"success","ttype","start_time","trial_type","trial_index","time_elapsed","internal_node_id","warning","missed_checkup","PID","view_history","rt","responses","repeat_instructions","key_press","index","keypress_isi","keypress_S2","block","trial_num","phase","group_type","pair_type","S1_stim","S2_stim","S1_img","S2_img","S1_chosen","S1_higher","accuracy","keypress_iti","total_bonus_tally"
"true","full_screen","d03082023hr1559","fullscreen","0","18141","0.0-0.0","0","0","83394","","","","","","","","","","","","","","","","","","","","","",""
"","instructions","","instructions","1","87840","0.0-1.0-0.0-0.0","0","0","83394","[{""page_index"":0,""viewing_time"":7012},{""page_index"":1,""viewing_time"":40099},{""page_index"":2,""viewing_time"":17317},{""page_index"":3,""viewing_time"":5259}]","69691","","","","","","","","","","","","","","","","","","","",""
"","comprehension_check","","survey-multi-choice","2","117153","0.0-1.0-0.0-1.0","0","0","83394","","29293","{""Q0"":""True"",""Q1"":""D"",""Q2"":""Once the second image appears and while the screen 'MAKE A CHOICE' is shown"",""Q3"":""Green mark"",""Q4"":""either D or K""}","0","","","","","","","","","","","","","","","","","",""
"","start_exp","","html-keyboard-response","3","120456","0.0-1.0-1.0","0","0","83394","","3290","","","32","","","","","","","","","","","","","","","","",""
"","S1","","html-keyboard-response","4","120715","0.0-1.0-2.0","0","0","83394","","null","","","null","0","","","","","","","","","","","","","","","",""
"","ISI","","html-keyboard-response","5","120878","0.0-1.0-3.0","0","0","83394","","null","","","null","0","NaN","","","","","","","","","","","","","","",""
"","S2","","html-keyboard-response","6","121142","0.0-1.0-4.0","0","0","83394","","null","","","null","0","","NaN","","","","","","","","","","","","","",""
"","response","","html-keyboard-response","7","122905","0.0-1.0-5.0-0.0","0","0","83394","","null","","","null","0","","","1","0","training","adjacent","FE","6","5","P.jpg","M.jpg","NaN","0","0","",""
"","too_slow_prompt","","html-keyboard-response","8","123916","0.0-1.0-7.0-0.0","1","0","83394","","null","","","null","","","","","","","","","","","","","","","","",""
"","time_out","","html-keyboard-response","9","125929","0.0-1.0-8.0-0.0","0","0","83394","","null","","","null","0","","","","","","","","","","","","","","","",""
"","ITI","","html-keyboard-response","10","126942","0.0-1.0-9.0","0","0","83394","","null","","","null","0","","","","","","","","","","","","","","","NaN",""
"","S1","","html-keyboard-response","11","127204","0.0-1.0-11.0","0","0","83394","","null","","","null","1","","","","","","","","","","","","","","","",""
"","ISI","","html-keyboard-response","12","127365","0.0-1.0-12.0","0","0","83394","","null","","","null","1","NaN","","","","","","","","","","","","","","",""
"","S2","","html-keyboard-response","13","127489","0.0-1.0-13.0","0","0","83394","","115","","","68","1","","d","1","1","training","adjacent","FE","6","5","P.jpg","M.jpg","1","0","0","",""
"","feedback","","html-keyboard-response","14","128500","0.0-1.0-15.0-0.0","0","0","83394","","null","","","null","1","","","","","","","","","","","","","","","",""
"","time_out","","html-keyboard-response","15","130513","0.0-1.0-17.0-0.0","0","0","83394","","null","","","null","1","","","","","","","","","","","","","","","",""
"","ITI","","html-keyboard-response","16","131522","0.0-1.0-18.0","0","0","83394","","null","","","null","1","","","","","","","","","","","","","","","NaN",""
"","S1","","html-keyboard-response","17","131785","0.0-1.0-20.0","0","0","83394","","null","","","null","2","","","","","","","","","","","","","","","",""
"","ISI","","html-keyboard-response","18","131947","0.0-1.0-21.0","0","0","83394","","null","","","null","2","NaN","","","","","","","","","","","","","","",""
"","S2","","html-keyboard-response","19","132207","0.0-1.0-22.0","0","0","83394","","null","","","null","2","","NaN","","","","","","","","","","","","","",""
"","response","","html-keyboard-response","20","133202","0.0-1.0-23.0-0.0","0","0","83394","","984","","","68","2","","","1","2","training","adjacent","BA","2","1","L.jpg","N.jpg","1","0","0","",""
"","feedback","","html-keyboard-response","21","134214","0.0-1.0-24.0-0.0","0","0","83394","","null","","","null","2","","","","","","","","","","","","","","","",""
"","time_out","","html-keyboard-response","22","136226","0.0-1.0-26.0-0.0","0","0","83394","","null","","","null","2","","","","","","","","","","","","","","","",""
"","ITI","","html-keyboard-response","23","137238","0.0-1.0-27.0","0","0","83394","","null","","","null","2","","","","","","","","","","","","","","","NaN",""
"","S1","","html-keyboard-response","24","137496","0.0-1.0-29.0","0","0","83394","","null","","","null","3","","","","","","","","","","","","","","","",""
"","ISI","","html-keyboard-response","25","137655","0.0-1.0-30.0","0","0","83394","","null","","","null","3","NaN","","","","","","","","","","","","","","",""
"","S2","","html-keyboard-response","26","137918","0.0-1.0-31.0","0","0","83394","","null","","","null","3","","NaN","","","","","","","","","","","","","",""
"","response","","html-keyboard-response","27","138359","0.0-1.0-32.0-0.0","0","0","83394","","429","","","75","3","","","1","3","training","adjacent","BA","2","1","L.jpg","N.jpg","0","0","1","",""
"","feedback","","html-keyboard-response","28","139370","0.0-1.0-33.0-0.0","0","0","83394","","null","","","null","3","","","","","","","","","","","","","","","",""
"","ITI","","html-keyboard-response","29","140381","0.0-1.0-36.0","0","0","83394","","null","","","null","3","","","","","","","","","","","","","","","NaN",""
"","S1","","html-keyboard-response","30","140639","0.0-1.0-38.0","0","0","83394","","null","","","null","4","","","","","","","","","","","","","","","",""
"","ISI","","html-keyboard-response","31","140801","0.0-1.0-39.0","0","0","83394","","null","","","null","4","NaN","","","","","","","","","","","","","","",""
"","S2","","html-keyboard-response","32","141058","0.0-1.0-40.0","0","0","83394","","null","","","null","4","","NaN","","","","","","","","","","","","","",""
"","response","","html-keyboard-response","33","141552","0.0-1.0-41.0-0.0","0","0","83394","","484","","","68","4","","","1","4","training","adjacent","DC","4","3","R.jpg","O.jpg","1","0","0","",""
"","feedback","","html-keyboard-response","34","142566","0.0-1.0-42.0-0.0","0","0","83394","","null","","","null","4","","","","","","","","","","","","","","","",""
"","time_out","","html-keyboard-response","35","144580","0.0-1.0-44.0-0.0","0","0","83394","","null","","","null","4","","","","","","","","","","","","","","","",""
"","ITI","","html-keyboard-response","36","145590","0.0-1.0-45.0","0","0","83394","","null","","","null","4","","","","","","","","","","","","","","","NaN",""
"","S1","","html-keyboard-response","37","145852","0.0-1.0-47.0","0","0","83394","","null","","","null","5","","","","","","","","","","","","","","","",""
"","ISI","","html-keyboard-response","38","146013","0.0-1.0-48.0","0","0","83394","","null","","","null","5","NaN","","","","","","","","","","","","","","",""
"","S2","","html-keyboard-response","39","146273","0.0-1.0-49.0","0","0","83394","","null","","","null","5","","NaN","","","","","","","","","","","","","",""
"","response","","html-keyboard-response","40","147002","0.0-1.0-50.0-0.0","0","0","83394","","717","","","75","5","","","1","5","training","adjacent","FG","6","7","P.jpg","Q.jpg","0","1","0","",""
"","feedback","","html-keyboard-response","41","148012","0.0-1.0-51.0-0.0","0","0","83394","","null","","","null","5","","","","","","","","","","","","","","","",""
"","time_out","","html-keyboard-response","42","150021","0.0-1.0-53.0-0.0","0","0","83394","","null","","","null","5","","","","","","","","","","","","","","","",""
"","ITI","","html-keyboard-response","43","151035","0.0-1.0-54.0","0","0","83394","","null","","","null","5","","","","","","","","","","","","","","","NaN",""
"","S1","","html-keyboard-response","44","151303","0.0-1.0-56.0","0","0","83394","","null","","","null","6","","","","","","","","","","","","","","","",""
"","ISI","","html-keyboard-response","45","151463","0.0-1.0-57.0","0","0","83394","","null","","","null","6","NaN","","","","","","","","","","","","","","",""
"","S2","","html-keyboard-response","46","151724","0.0-1.0-58.0","0","0","83394","","null","","","null","6","","NaN","","","","","","","","","","","","","",""
"","response","","html-keyboard-response","47","152216","0.0-1.0-59.0-0.0","0","0","83394","","484","","","68","6","","","1","6","training","adjacent","FG","6","7","P.jpg","Q.jpg","1","1","1","",""
"","feedback","","html-keyboard-response","48","153227","0.0-1.0-60.0-0.0","0","0","83394","","null","","","null","6","","","","","","","","","","","","","","","",""
"","ITI","","html-keyboard-response","49","154238","0.0-1.0-63.0","0","0","83394","","null","","","null","6","","","","","","","","","","","","","","","NaN",""
"","S1","","html-keyboard-response","50","154499","0.0-1.0-65.0","0","0","83394","","null","","","null","7","","","","","","","","","","","","","","","",""
"","ISI","","html-keyboard-response","51","154658","0.0-1.0-66.0","0","0","83394","","null","","","null","7","NaN","","","","","","","","","","","","","","",""
"","S2","","html-keyboard-response","52","154923","0.0-1.0-67.0","0","0","83394","","null","","","null","7","","NaN","","","","","","","","","","","","","",""
"","response","","html-keyboard-response","53","155755","0.0-1.0-68.0-0.0","0","0","83394","","822","","","75","7","","","1","7","training","adjacent","BC","2","3","L.jpg","O.jpg","0","1","0","",""
"","feedback","","html-keyboard-response","54","156768","0.0-1.0-69.0-0.0","0","0","83394","","null","","","null","7","","","","","","","","","","","","","","","",""
"","time_out","","html-keyboard-response","55","158777","0.0-1.0-71.0-0.0","0","0","83394","","null","","","null","7","","","","","","","","","","","","","","","",""
"","ITI","","html-keyboard-response","56","159787","0.0-1.0-72.0","0","0","83394","","null","","","null","7","","","","","","","","","","","","","","","NaN",""
"","S1","","html-keyboard-response","57","160051","0.0-1.0-74.0","0","0","83394","","null","","","null","8","","","","","","","","","","","","","","","",""
"","ISI","","html-keyboard-response","58","160213","0.0-1.0-75.0","0","0","83394","","null","","","null","8","NaN","","","","","","","","","","","","","","",""
"","S2","","html-keyboard-response","59","160472","0.0-1.0-76.0","0","0","83394","","null","","","null","8","","NaN","","","","","","","","","","","","","",""
"","response","","html-keyboard-response","60","161068","0.0-1.0-77.0-0.0","0","0","83394","","587","","","75","8","","","1","8","training","adjacent","EF","5","6","M.jpg","P.jpg","0","1","0","",""
"","feedback","","html-keyboard-response","61","162080","0.0-1.0-78.0-0.0","0","0","83394","","null","","","null","8","","","","","","","","","","","","","","","",""
"","time_out","","html-keyboard-response","62","164090","0.0-1.0-80.0-0.0","0","0","83394","","null","","","null","8","","","","","","","","","","","","","","","",""
"","ITI","","html-keyboard-response","63","165104","0.0-1.0-81.0","0","0","83394","","null","","","null","8","","","","","","","","","","","","","","","NaN",""
"","S1","","html-keyboard-response","64","165365","0.0-1.0-83.0","0","0","83394","","null","","","null","9","","","","","","","","","","","","","","","",""
"","ISI","","html-keyboard-response","65","165525","0.0-1.0-84.0","0","0","83394","","null","","","null","9","NaN","","","","","","","","","","","","","","",""
"","S2","","html-keyboard-response","66","165786","0.0-1.0-85.0","0","0","83394","","null","","","null","9","","NaN","","","","","","","","","","","","","",""
"","response","","html-keyboard-response","67","166472","0.0-1.0-86.0-0.0","0","0","83394","","674","","","68","9","","","1","9","training","adjacent","BC","2","3","L.jpg","O.jpg","1","1","1","",""
"","feedback","","html-keyboard-response","68","167484","0.0-1.0-87.0-0.0","0","0","83394","","null","","","null","9","","","","","","","","","","","","","","","",""
"","ITI","","html-keyboard-response","69","168498","0.0-1.0-90.0","0","0","83394","","null","","","null","9","","","","","","","","","","","","","","","NaN",""
"","S1","","html-keyboard-response","70","168760","0.0-1.0-92.0","0","0","83394","","null","","","null","10","","","","","","","","","","","","","","","",""
"","ISI","","html-keyboard-response","71","168924","0.0-1.0-93.0","0","0","83394","","null","","","null","10","NaN","","","","","","","","","","","","","","",""
"","S2","","html-keyboard-response","72","169182","0.0-1.0-94.0","0","0","83394","","null","","","null","10","","NaN","","","","","","","","","","","","","",""
"","response","","html-keyboard-response","73","169952","0.0-1.0-95.0-0.0","0","0","83394","","757","","","75","10","","","1","10","training","adjacent","CD","3","4","O.jpg","R.jpg","0","1","0","",""
"","feedback","","html-keyboard-response","74","170960","0.0-1.0-96.0-0.0","0","0","83394","","null","","","null","10","","","","","","","","","","","","","","","",""
"","time_out","","html-keyboard-response","75","172970","0.0-1.0-98.0-0.0","0","0","83394","","null","","","null","10","","","","","","","","","","","","","","","",""
"","ITI","","html-keyboard-response","76","173981","0.0-1.0-99.0","0","0","83394","","null","","","null","10","","","","","","","","","","","","","","","NaN",""
"","S1","","html-keyboard-response","77","174242","0.0-1.0-101.0","0","0","83394","","null","","","null","11","","","","","","","","","","","","","","","",""
"","ISI","","html-keyboard-response","78","174404","0.0-1.0-102.0","0","0","83394","","null","","","null","11","NaN","","","","","","","","","","","","","","",""
"","S2","","html-keyboard-response","79","174666","0.0-1.0-103.0","0","0","83394","","null","","","null","11","","NaN","","","","","","","","","","","","","",""
"","response","","html-keyboard-response","80","175139","0.0-1.0-104.0-0.0","0","0","83394","","461","","","75","11","","","1","11","training","adjacent","GF","7","6","Q.jpg","P.jpg","0","0","1","",""
"","feedback","","html-keyboard-response","81","176150","0.0-1.0-105.0-0.0","0","0","83394","","null","","","null","11","","","","","","","","","","","","","","","",""
"","ITI","","html-keyboard-response","82","177162","0.0-1.0-108.0","0","0","83394","","null","","","null","11","","","","","","","","","","","","","","","NaN",""
"","S1","","html-keyboard-response","83","177425","0.0-1.0-110.0","0","0","83394","","null","","","null","12","","","","","","","","","","","","","","","",""
"","ISI","","html-keyboard-response","84","177586","0.0-1.0-111.0","0","0","83394","","null","","","null","12","NaN","","","","","","","","","","","","","","",""
"","S2","","html-keyboard-response","85","177848","0.0-1.0-112.0","0","0","83394","","null","","","null","12","","NaN","","","","","","","","","","","","","",""
"","response","","html-keyboard-response","86","178208","0.0-1.0-113.0-0.0","0","0","83394","","348","","","68","12","","","1","12","training","adjacent","AB","1","2","N.jpg","L.jpg","1","1","1","",""
"","feedback","","html-keyboard-response","87","179221","0.0-1.0-114.0-0.0","0","0","83394","","null","","","null","12","","","","","","","","","","","","","","","",""
"","ITI","","html-keyboard-response","88","180231","0.0-1.0-117.0","0","0","83394","","null","","","null","12","","","","","","","","","","","","","","","NaN",""
"","S1","","html-keyboard-response","89","180493","0.0-1.0-119.0","0","0","83394","","null","","","null","13","","","","","","","","","","","","","","","",""
"","ISI","","html-keyboard-response","90","180651","0.0-1.0-120.0","0","0","83394","","null","","","null","13","NaN","","","","","","","","","","","","","","",""
"","S2","","html-keyboard-response","91","180913","0.0-1.0-121.0","0","0","83394","","null","","","null","13","","NaN","","","","","","","","","","","","","",""
"","response","","html-keyboard-response","92","181423","0.0-1.0-122.0-0.0","0","0","83394","","503","","","75","13","","","1","13","training","adjacent","DC","4","3","R.jpg","O.jpg","0","0","1","",""
"","feedback","","html-keyboard-response","93","182434","0.0-1.0-123.0-0.0","0","0","83394","","null","","","null","13","","","","","","","","","","","","","","","",""
"","ITI","","html-keyboard-response","94","183446","0.0-1.0-126.0","0","0","83394","","null","","","null","13","","","","","","","","","","","","","","","NaN",""
"","S1","","html-keyboard-response","95","183707","0.0-1.0-128.0","0","0","83394","","null","","","null","14","","","","","","","","","","","","","","","",""
"","ISI","","html-keyboard-response","96","183869","0.0-1.0-129.0","0","0","83394","","null","","","null","14","NaN","","","","","","","","","","","","","","",""
"","S2","","html-keyboard-response","97","184133","0.0-1.0-130.0","0","0","83394","","null","","","null","14","","NaN","","","","","","","","","","","","","",""
"","response","","html-keyboard-response","98","184859","0.0-1.0-131.0-0.0","0","0","83394","","717","","","68","14","","","1","14","training","adjacent","FE","6","5","P.jpg","M.jpg","1","0","0","",""
"","feedback","","html-keyboard-response","99","185871","0.0-1.0-132.0-0.0","0","0","83394","","null","","","null","14","","","","","","","","","","","","","","","",""
"","time_out","","html-keyboard-response","100","187883","0.0-1.0-134.0-0.0","0","0","83394","","null","","","null","14","","","","","","","","","","","","","","","",""
"","ITI","","html-keyboard-response","101","188896","0.0-1.0-135.0","0","0","83394","","null","","","null","14","","","","","","","","","","","","","","","NaN",""
"","S1","","html-keyboard-response","102","189159","0.0-1.0-137.0","0","0","83394","","null","","","null","15","","","","","","","","","","","","","","","",""
"","ISI","","html-keyboard-response","103","189320","0.0-1.0-138.0","0","0","83394","","null","","","null","15","NaN","","","","","","","","","","","","","","",""
"","S2","","html-keyboard-response","104","189583","0.0-1.0-139.0","0","0","83394","","null","","","null","15","","NaN","","","","","","","","","","","","","",""
"","response","","html-keyboard-response","105","189858","0.0-1.0-140.0-0.0","0","0","83394","","266","","","68","15","","","1","15","training","adjacent","AB","1","2","N.jpg","L.jpg","1","1","1","",""
"","feedback","","html-keyboard-response","106","190871","0.0-1.0-141.0-0.0","0","0","83394","","null","","","null","15","","","","","","","","","","","","","","","",""
"","ITI","","html-keyboard-response","107","191881","0.0-1.0-144.0","0","0","83394","","null","","","null","15","","","","","","","","","","","","","","","NaN",""
"","S1","","html-keyboard-response","108","192145","0.0-1.0-146.0","0","0","83394","","null","","","null","16","","","","","","","","","","","","","","","",""
"","ISI","","html-keyboard-response","109","192306","0.0-1.0-147.0","0","0","83394","","null","","","null","16","NaN","","","","","","","","","","","","","","",""
"","S2","","html-keyboard-response","110","192566","0.0-1.0-148.0","0","0","83394","","null","","","null","16","","NaN","","","","","","","","","","","","","",""
"","response","","html-keyboard-response","111","193145","0.0-1.0-149.0-0.0","0","0","83394","","567","","","75","16","","","1","16","training","adjacent","CB","3","2","O.jpg","L.jpg","0","0","1","",""
"","feedback","","html-keyboard-response","112","194155","0.0-1.0-150.0-0.0","0","0","83394","","null","","","null","16","","","","","","","","","","","","","","","",""
"","ITI","","html-keyboard-response","113","195165","0.0-1.0-153.0","0","0","83394","","null","","","null","16","","","","","","","","","","","","","","","NaN",""
"","S1","","html-keyboard-response","114","195427","0.0-1.0-155.0","0","0","83394","","null","","","null","17","","","","","","","","","","","","","","","",""
"","ISI","","html-keyboard-response","115","195588","0.0-1.0-156.0","0","0","83394","","null","","","null","17","NaN","","","","","","","","","","","","","","",""
"","S2","","html-keyboard-response","116","195850","0.0-1.0-157.0","0","0","83394","","null","","","null","17","","NaN","","","","","","","","","","","","","",""
"","response","","html-keyboard-response","117","196465","0.0-1.0-158.0-0.0","0","0","83394","","606","","","68","17","","","1","17","training","adjacent","DE","4","5","R.jpg","M.jpg","1","1","1","",""
"","feedback","","html-keyboard-response","118","197479","0.0-1.0-159.0-0.0","0","0","83394","","null","","","null","17","","","","","","","","","","","","","","","",""
"","ITI","","html-keyboard-response","119","198490","0.0-1.0-162.0","0","0","83394","","null","","","null","17","","","","","","","","","","","","","","","NaN",""
"","S1","","html-keyboard-response","120","198752","0.0-1.0-164.0","0","0","83394","","null","","","null","18","","","","","","","","","","","","","","","",""
"","ISI","","html-keyboard-response","121","198911","0.0-1.0-165.0","0","0","83394","","null","","","null","18","NaN","","","","","","","","","","","","","","",""
"","S2","","html-keyboard-response","122","199168","0.0-1.0-166.0","0","0","83394","","null","","","null","18","","NaN","","","","","","","","","","","","","",""
"","response","","html-keyboard-response","123","200375","0.0-1.0-167.0-0.0","0","0","83394","","1199","","","75","18","","","1","18","training","adjacent","CB","3","2","O.jpg","L.jpg","0","0","1","",""
"","feedback","","html-keyboard-response","124","201385","0.0-1.0-168.0-0.0","0","0","83394","","null","","","null","18","","","","","","","","","","","","","","","",""
"","ITI","","html-keyboard-response","125","202397","0.0-1.0-171.0","0","0","83394","","null","","","null","18","","","","","","","","","","","","","","","NaN",""
"","S1","","html-keyboard-response","126","202659","0.0-1.0-173.0","0","0","83394","","null","","","null","19","","","","","","","","","","","","","","","",""
"","ISI","","html-keyboard-response","127","202820","0.0-1.0-174.0","0","0","83394","","null","","","null","19","NaN","","","","","","","","","","","","","","",""
"","S2","","html-keyboard-response","128","203083","0.0-1.0-175.0","0","0","83394","","null","","","null","19","","NaN","","","","","","","","","","","","","",""
"","response","","html-keyboard-response","129","204005","0.0-1.0-176.0-0.0","0","0","83394","","914","","","75","19","","","1","19","training","adjacent","AB","1","2","N.jpg","L.jpg","0","1","0","",""
"","feedback","","html-keyboard-response","130","205015","0.0-1.0-177.0-0.0","0","0","83394","","null","","","null","19","","","","","","","","","","","","","","","",""
"","time_out","","html-keyboard-response","131","207028","0.0-1.0-179.0-0.0","0","0","83394","","null","","","null","19","","","","","","","","","","","","","","","",""
"","ITI","","html-keyboard-response","132","208039","0.0-1.0-180.0","0","0","83394","","null","","","null","19","","","","","","","","","","","","","","","NaN",""
"","S1","","html-keyboard-response","133","208298","0.0-1.0-182.0","0","0","83394","","null","","","null","20","","","","","","","","","","","","","","","",""
"","ISI","","html-keyboard-response","134","208461","0.0-1.0-183.0","0","0","83394","","null","","","null","20","NaN","","","","","","","","","","","","","","",""
"","S2","","html-keyboard-response","135","208723","0.0-1.0-184.0","0","0","83394","","null","","","null","20","","NaN","","","","","","","","","","","","","",""
"","response","","html-keyboard-response","136","209376","0.0-1.0-185.0-0.0","0","0","83394","","645","","","75","20","","","1","20","training","adjacent","ED","5","4","M.jpg","R.jpg","0","0","1","",""
"","feedback","","html-keyboard-response","137","210388","0.0-1.0-186.0-0.0","0","0","83394","","null","","","null","20","","","","","","","","","","","","","","","",""
"","ITI","","html-keyboard-response","138","211400","0.0-1.0-189.0","0","0","83394","","null","","","null","20","","","","","","","","","","","","","","","NaN",""
"","S1","","html-keyboard-response","139","211661","0.0-1.0-191.0","0","0","83394","","null","","","null","21","","","","","","","","","","","","","","","",""
"","ISI","","html-keyboard-response","140","211822","0.0-1.0-192.0","0","0","83394","","null","","","null","21","NaN","","","","","","","","","","","","","","",""
"","S2","","html-keyboard-response","141","212085","0.0-1.0-193.0","0","0","83394","","null","","","null","21","","NaN","","","","","","","","","","","","","",""
"","response","","html-keyboard-response","142","212800","0.0-1.0-194.0-0.0","0","0","83394","","706","","","68","21","","","1","21","training","adjacent","CB","3","2","O.jpg","L.jpg","1","0","0","",""
"","feedback","","html-keyboard-response","143","213810","0.0-1.0-195.0-0.0","0","0","83394","","null","","","null","21","","","","","","","","","","","","","","","",""
"","time_out","","html-keyboard-response","144","215820","0.0-1.0-197.0-0.0","0","0","83394","","null","","","null","21","","","","","","","","","","","","","","","",""
"","ITI","","html-keyboard-response","145","216832","0.0-1.0-198.0","0","0","83394","","null","","","null","21","","","","","","","","","","","","","","","NaN",""
"","S1","","html-keyboard-response","146","217093","0.0-1.0-200.0","0","0","83394","","null","","","null","22","","","","","","","","","","","","","","","",""
"","ISI","","html-keyboard-response","147","217257","0.0-1.0-201.0","0","0","83394","","null","","","null","22","NaN","","","","","","","","","","","","","","",""
"","S2","","html-keyboard-response","148","217517","0.0-1.0-202.0","0","0","83394","","null","","","null","22","","NaN","","","","","","","","","","","","","",""
"","response","","html-keyboard-response","149","218176","0.0-1.0-203.0-0.0","0","0","83394","","649","","","68","22","","","1","22","training","adjacent","FG","6","7","P.jpg","Q.jpg","1","1","1","",""
"","feedback","","html-keyboard-response","150","219184","0.0-1.0-204.0-0.0","0","0","83394","","null","","","null","22","","","","","","","","","","","","","","","",""
"","ITI","","html-keyboard-response","151","220198","0.0-1.0-207.0","0","0","83394","","null","","","null","22","","","","","","","","","","","","","","","NaN",""
"","S1","","html-keyboard-response","152","220458","0.0-1.0-209.0","0","0","83394","","null","","","null","23","","","","","","","","","","","","","","","",""
"","ISI","","html-keyboard-response","153","220619","0.0-1.0-210.0","0","0","83394","","null","","","null","23","NaN","","","","","","","","","","","","","","",""
"","S2","","html-keyboard-response","154","220880","0.0-1.0-211.0","0","0","83394","","null","","","null","23","","NaN","","","","","","","","","","","","","",""
"","response","","html-keyboard-response","155","221531","0.0-1.0-212.0-0.0","0","0","83394","","639","","","75","23","","","1","23","training","adjacent","GF","7","6","Q.jpg","P.jpg","0","0","1","",""
"","feedback","","html-keyboard-response","156","222543","0.0-1.0-213.0-0.0","0","0","83394","","null","","","null","23","","","","","","","","","","","","","","","",""
"","ITI","","html-keyboard-response","157","223553","0.0-1.0-216.0","0","0","83394","","null","","","null","23","","","","","","","","","","","","","","","NaN",""
"","S1","","html-keyboard-response","158","223816","0.0-1.0-218.0","0","0","83394","","null","","","null","24","","","","","","","","","","","","","","","",""
"","ISI","","html-keyboard-response","159","223978","0.0-1.0-219.0","0","0","83394","","null","","","null","24","NaN","","","","","","","","","","","","","","",""
"","S2","","html-keyboard-response","160","224238","0.0-1.0-220.0","0","0","83394","","null","","","null","24","","NaN","","","","","","","","","","","","","",""
"","response","","html-keyboard-response","161","224848","0.0-1.0-221.0-0.0","0","0","83394","","601","","","75","24","","","1","24","training","adjacent","CB","3","2","O.jpg","L.jpg","0","0","1","",""
"","feedback","","html-keyboard-response","162","225863","0.0-1.0-222.0-0.0","0","0","83394","","null","","","null","24","","","","","","","","","","","","","","","",""
"","ITI","","html-keyboard-response","163","226876","0.0-1.0-225.0","0","0","83394","","null","","","null","24","","","","","","","","","","","","","","","NaN",""
"","S1","","html-keyboard-response","164","227136","0.0-1.0-227.0","0","0","83394","","null","","","null","25","","","","","","","","","","","","","","","",""
"","ISI","","html-keyboard-response","165","227295","0.0-1.0-228.0","0","0","83394","","null","","","null","25","NaN","","","","","","","","","","","","","","",""
"","S2","","html-keyboard-response","166","227558","0.0-1.0-229.0","0","0","83394","","null","","","null","25","","NaN","","","","","","","","","","","","","",""
"","response","","html-keyboard-response","167","228096","0.0-1.0-230.0-0.0","0","0","83394","","528","","","68","25","","","1","25","training","adjacent","GF","7","6","Q.jpg","P.jpg","1","0","0","",""
"","feedback","","html-keyboard-response","168","229111","0.0-1.0-231.0-0.0","0","0","83394","","null","","","null","25","","","","","","","","","","","","","","","",""
"","time_out","","html-keyboard-response","169","231118","0.0-1.0-233.0-0.0","0","0","83394","","null","","","null","25","","","","","","","","","","","","","","","",""
"","ITI","","html-keyboard-response","170","232128","0.0-1.0-234.0","0","0","83394","","null","","","null","25","","","","","","","","","","","","","","","NaN",""
"","S1","","html-keyboard-response","171","232393","0.0-1.0-236.0","0","0","83394","","null","","","null","26","","","","","","","","","","","","","","","",""
"","ISI","","html-keyboard-response","172","232556","0.0-1.0-237.0","0","0","83394","","null","","","null","26","NaN","","","","","","","","","","","","","","",""
"","S2","","html-keyboard-response","173","232820","0.0-1.0-238.0","0","0","83394","","null","","","null","26","","NaN","","","","","","","","","","","","","",""
"","response","","html-keyboard-response","174","233395","0.0-1.0-239.0-0.0","0","0","83394","","564","","","75","26","","","1","26","training","adjacent","DC","4","3","R.jpg","O.jpg","0","0","1","",""
"","feedback","","html-keyboard-response","175","234407","0.0-1.0-240.0-0.0","0","0","83394","","null","","","null","26","","","","","","","","","","","","","","","",""
"","ITI","","html-keyboard-response","176","235416","0.0-1.0-243.0","0","0","83394","","null","","","null","26","","","","","","","","","","","","","","","NaN",""
"","S1","","html-keyboard-response","177","235677","0.0-1.0-245.0","0","0","83394","","null","","","null","27","","","","","","","","","","","","","","","",""
"","ISI","","html-keyboard-response","178","235838","0.0-1.0-246.0","0","0","83394","","null","","","null","27","NaN","","","","","","","","","","","","","","",""
"","S2","","html-keyboard-response","179","236100","0.0-1.0-247.0","0","0","83394","","null","","","null","27","","NaN","","","","","","","","","","","","","",""
"","response","","html-keyboard-response","180","236476","0.0-1.0-248.0-0.0","0","0","83394","","366","","","68","27","","","1","27","training","adjacent","DE","4","5","R.jpg","M.jpg","1","1","1","",""
"","feedback","","html-keyboard-response","181","237489","0.0-1.0-249.0-0.0","0","0","83394","","null","","","null","27","","","","","","","","","","","","","","","",""
"","ITI","","html-keyboard-response","182","238504","0.0-1.0-252.0","0","0","83394","","null","","","null","27","","","","","","","","","","","","","","","NaN",""
"","S1","","html-keyboard-response","183","238764","0.0-1.0-254.0","0","0","83394","","null","","","null","28","","","","","","","","","","","","","","","",""
"","ISI","","html-keyboard-response","184","238923","0.0-1.0-255.0","0","0","83394","","null","","","null","28","NaN","","","","","","","","","","","","","","",""
"","S2","","html-keyboard-response","185","239185","0.0-1.0-256.0","0","0","83394","","null","","","null","28","","NaN","","","","","","","","","","","","","",""
"","response","","html-keyboard-response","186","239849","0.0-1.0-257.0-0.0","0","0","83394","","654","","","68","28","","","1","28","training","adjacent","ED","5","4","M.jpg","R.jpg","1","0","0","",""
"","feedback","","html-keyboard-response","187","240859","0.0-1.0-258.0-0.0","0","0","83394","","null","","","null","28","","","","","","","","","","","","","","","",""
"","time_out","","html-keyboard-response","188","242870","0.0-1.0-260.0-0.0","0","0","83394","","null","","","null","28","","","","","","","","","","","","","","","",""
"","ITI","","html-keyboard-response","189","243880","0.0-1.0-261.0","0","0","83394","","null","","","null","28","","","","","","","","","","","","","","","NaN",""
"","S1","","html-keyboard-response","190","244141","0.0-1.0-263.0","0","0","83394","","null","","","null","29","","","","","","","","","","","","","","","",""
"","ISI","","html-keyboard-response","191","244300","0.0-1.0-264.0","0","0","83394","","null","","","null","29","NaN","","","","","","","","","","","","","","",""
"","S2","","html-keyboard-response","192","244562","0.0-1.0-265.0","0","0","83394","","null","","","null","29","","NaN","","","","","","","","","","","","","",""
"","response","","html-keyboard-response","193","245065","0.0-1.0-266.0-0.0","0","0","83394","","493","","","75","29","","","1","29","training","adjacent","CD","3","4","O.jpg","R.jpg","0","1","0","",""
"","feedback","","html-keyboard-response","194","246076","0.0-1.0-267.0-0.0","0","0","83394","","null","","","null","29","","","","","","","","","","","","","","","",""
"","time_out","","html-keyboard-response","195","248085","0.0-1.0-269.0-0.0","0","0","83394","","null","","","null","29","","","","","","","","","","","","","","","",""
"","ITI","","html-keyboard-response","196","249096","0.0-1.0-270.0","0","0","83394","","null","","","null","29","","","","","","","","","","","","","","","NaN",""
"","S1","","html-keyboard-response","197","249359","0.0-1.0-272.0","0","0","83394","","null","","","null","30","","","","","","","","","","","","","","","",""
"","ISI","","html-keyboard-response","198","249521","0.0-1.0-273.0","0","0","83394","","null","","","null","30","NaN","","","","","","","","","","","","","","",""
"","S2","","html-keyboard-response","199","249782","0.0-1.0-274.0","0","0","83394","","null","","","null","30","","NaN","","","","","","","","","","","","","",""
"","response","","html-keyboard-response","200","250325","0.0-1.0-275.0-0.0","0","0","83394","","534","","","75","30","","","1","30","training","adjacent","BC","2","3","L.jpg","O.jpg","0","1","0","",""
"","feedback","","html-keyboard-response","201","251336","0.0-1.0-276.0-0.0","0","0","83394","","null","","","null","30","","","","","","","","","","","","","","","",""
"","time_out","","html-keyboard-response","202","253348","0.0-1.0-278.0-0.0","0","0","83394","","null","","","null","30","","","","","","","","","","","","","","","",""
"","ITI","","html-keyboard-response","203","254358","0.0-1.0-279.0","0","0","83394","","null","","","null","30","","","","","","","","","","","","","","","NaN",""
"","S1","","html-keyboard-response","204","254621","0.0-1.0-281.0","0","0","83394","","null","","","null","31","","","","","","","","","","","","","","","",""
"","ISI","","html-keyboard-response","205","254781","0.0-1.0-282.0","0","0","83394","","null","","","null","31","NaN","","","","","","","","","","","","","","",""
"","S2","","html-keyboard-response","206","255042","0.0-1.0-283.0","0","0","83394","","null","","","null","31","","NaN","","","","","","","","","","","","","",""
"","response","","html-keyboard-response","207","255562","0.0-1.0-284.0-0.0","0","0","83394","","512","","","68","31","","","1","31","training","adjacent","FG","6","7","P.jpg","Q.jpg","1","1","1","",""
"","feedback","","html-keyboard-response","208","256572","0.0-1.0-285.0-0.0","0","0","83394","","null","","","null","31","","","","","","","","","","","","","","","",""
"","ITI","","html-keyboard-response","209","257585","0.0-1.0-288.0","0","0","83394","","null","","","null","31","","","","","","","","","","","","","","","NaN",""
"","S1","","html-keyboard-response","210","257847","0.0-1.0-290.0","0","0","83394","","null","","","null","32","","","","","","","","","","","","","","","",""
"","ISI","","html-keyboard-response","211","258010","0.0-1.0-291.0","0","0","83394","","null","","","null","32","NaN","","","","","","","","","","","","","","",""
"","S2","","html-keyboard-response","212","258270","0.0-1.0-292.0","0","0","83394","","null","","","null","32","","NaN","","","","","","","","","","","","","",""
"","response","","html-keyboard-response","213","258711","0.0-1.0-293.0-0.0","0","0","83394","","432","","","75","32","","","1","32","training","adjacent","GF","7","6","Q.jpg","P.jpg","0","0","1","",""
"","feedback","","html-keyboard-response","214","259721","0.0-1.0-294.0-0.0","0","0","83394","","null","","","null","32","","","","","","","","","","","","","","","",""
"","ITI","","html-keyboard-response","215","260733","0.0-1.0-297.0","0","0","83394","","null","","","null","32","","","","","","","","","","","","","","","NaN",""
"","S1","","html-keyboard-response","216","260994","0.0-1.0-299.0","0","0","83394","","null","","","null","33","","","","","","","","","","","","","","","",""
"","ISI","","html-keyboard-response","217","261152","0.0-1.0-300.0","0","0","83394","","null","","","null","33","NaN","","","","","","","","","","","","","","",""
"","S2","","html-keyboard-response","218","261415","0.0-1.0-301.0","0","0","83394","","null","","","null","33","","NaN","","","","","","","","","","","","","",""
"","response","","html-keyboard-response","219","262048","0.0-1.0-302.0-0.0","0","0","83394","","623","","","68","33","","","1","33","training","adjacent","CD","3","4","O.jpg","R.jpg","1","1","1","",""
"","feedback","","html-keyboard-response","220","263059","0.0-1.0-303.0-0.0","0","0","83394","","null","","","null","33","","","","","","","","","","","","","","","",""
"","ITI","","html-keyboard-response","221","264069","0.0-1.0-306.0","0","0","83394","","null","","","null","33","","","","","","","","","","","","","","","NaN",""
"","S1","","html-keyboard-response","222","264329","0.0-1.0-308.0","0","0","83394","","null","","","null","34","","","","","","","","","","","","","","","",""
"","ISI","","html-keyboard-response","223","264488","0.0-1.0-309.0","0","0","83394","","null","","","null","34","NaN","","","","","","","","","","","","","","",""
"","S2","","html-keyboard-response","224","264748","0.0-1.0-310.0","0","0","83394","","null","","","null","34","","NaN","","","","","","","","","","","","","",""
"","response","","html-keyboard-response","225","265228","0.0-1.0-311.0-0.0","0","0","83394","","472","","","68","34","","","1","34","training","adjacent","BA","2","1","L.jpg","N.jpg","1","0","0","",""
"","feedback","","html-keyboard-response","226","266242","0.0-1.0-312.0-0.0","0","0","83394","","null","","","null","34","","","","","","","","","","","","","","","",""
"","time_out","","html-keyboard-response","227","268253","0.0-1.0-314.0-0.0","0","0","83394","","null","","","null","34","","","","","","","","","","","","","","","",""
"","ITI","","html-keyboard-response","228","269262","0.0-1.0-315.0","0","0","83394","","null","","","null","34","","","","","","","","","","","","","","","NaN",""
"","S1","","html-keyboard-response","229","269523","0.0-1.0-317.0","0","0","83394","","null","","","null","35","","","","","","","","","","","","","","","",""
"","ISI","","html-keyboard-response","230","269682","0.0-1.0-318.0","0","0","83394","","null","","","null","35","NaN","","","","","","","","","","","","","","",""
"","S2","","html-keyboard-response","231","269942","0.0-1.0-319.0","0","0","83394","","null","","","null","35","","NaN","","","","","","","","","","","","","",""
"","response","","html-keyboard-response","232","270356","0.0-1.0-320.0-0.0","0","0","83394","","405","","","75","35","","","1","35","training","adjacent","EF","5","6","M.jpg","P.jpg","0","1","0","",""
"","feedback","","html-keyboard-response","233","271367","0.0-1.0-321.0-0.0","0","0","83394","","null","","","null","35","","","","","","","","","","","","","","","",""
"","time_out","","html-keyboard-response","234","273378","0.0-1.0-323.0-0.0","0","0","83394","","null","","","null","35","","","","","","","","","","","","","","","",""
"","ITI","","html-keyboard-response","235","274387","0.0-1.0-324.0","0","0","83394","","null","","","null","35","","","","","","","","","","","","","","","NaN",""
"","S1","","html-keyboard-response","236","274650","0.0-1.0-326.0","0","0","83394","","null","","","null","36","","","","","","","","","","","","","","","",""
"","ISI","","html-keyboard-response","237","274808","0.0-1.0-327.0","0","0","83394","","null","","","null","36","NaN","","","","","","","","","","","","","","",""
"","S2","","html-keyboard-response","238","275072","0.0-1.0-328.0","0","0","83394","","null","","","null","36","","NaN","","","","","","","","","","","","","",""
"","response","","html-keyboard-response","239","275457","0.0-1.0-329.0-0.0","0","0","83394","","377","","","75","36","","","1","36","training","adjacent","EF","5","6","M.jpg","P.jpg","0","1","0","",""
"","feedback","","html-keyboard-response","240","276469","0.0-1.0-330.0-0.0","0","0","83394","","null","","","null","36","","","","","","","","","","","","","","","",""
"","time_out","","html-keyboard-response","241","278480","0.0-1.0-332.0-0.0","0","0","83394","","null","","","null","36","","","","","","","","","","","","","","","",""
"","ITI","","html-keyboard-response","242","279489","0.0-1.0-333.0","0","0","83394","","null","","","null","36","","","","","","","","","","","","","","","NaN",""
"","S1","","html-keyboard-response","243","279752","0.0-1.0-335.0","0","0","83394","","null","","","null","37","","","","","","","","","","","","","","","",""
"","ISI","","html-keyboard-response","244","279912","0.0-1.0-336.0","0","0","83394","","null","","","null","37","NaN","","","","","","","","","","","","","","",""
"","S2","","html-keyboard-response","245","280172","0.0-1.0-337.0","0","0","83394","","null","","","null","37","","NaN","","","","","","","","","","","","","",""
"","response","","html-keyboard-response","246","280581","0.0-1.0-338.0-0.0","0","0","83394","","402","","","68","37","","","1","37","training","adjacent","FE","6","5","P.jpg","M.jpg","1","0","0","",""
"","feedback","","html-keyboard-response","247","281595","0.0-1.0-339.0-0.0","0","0","83394","","null","","","null","37","","","","","","","","","","","","","","","",""
"","time_out","","html-keyboard-response","248","283605","0.0-1.0-341.0-0.0","0","0","83394","","null","","","null","37","","","","","","","","","","","","","","","",""
"","ITI","","html-keyboard-response","249","284618","0.0-1.0-342.0","0","0","83394","","null","","","null","37","","","","","","","","","","","","","","","NaN",""
"","S1","","html-keyboard-response","250","284878","0.0-1.0-344.0","0","0","83394","","null","","","null","38","","","","","","","","","","","","","","","",""
"","ISI","","html-keyboard-response","251","285039","0.0-1.0-345.0","0","0","83394","","null","","","null","38","NaN","","","","","","","","","","","","","","",""
"","S2","","html-keyboard-response","252","285302","0.0-1.0-346.0","0","0","83394","","null","","","null","38","","NaN","","","","","","","","","","","","","",""
"","response","","html-keyboard-response","253","285782","0.0-1.0-347.0-0.0","0","0","83394","","471","","","75","38","","","1","38","training","adjacent","EF","5","6","M.jpg","P.jpg","0","1","0","",""
"","feedback","","html-keyboard-response","254","286794","0.0-1.0-348.0-0.0","0","0","83394","","null","","","null","38","","","","","","","","","","","","","","","",""
"","time_out","","html-keyboard-response","255","288804","0.0-1.0-350.0-0.0","0","0","83394","","null","","","null","38","","","","","","","","","","","","","","","",""
"","ITI","","html-keyboard-response","256","289816","0.0-1.0-351.0","0","0","83394","","null","","","null","38","","","","","","","","","","","","","","","NaN",""
"","S1","","html-keyboard-response","257","290078","0.0-1.0-353.0","0","0","83394","","null","","","null","39","","","","","","","","","","","","","","","",""
"","ISI","","html-keyboard-response","258","290240","0.0-1.0-354.0","0","0","83394","","null","","","null","39","NaN","","","","","","","","","","","","","","",""
"","S2","","html-keyboard-response","259","290499","0.0-1.0-355.0","0","0","83394","","null","","","null","39","","NaN","","","","","","","","","","","","","",""
"","response","","html-keyboard-response","260","291158","0.0-1.0-356.0-0.0","0","0","83394","","651","","","75","39","","","1","39","training","adjacent","ED","5","4","M.jpg","R.jpg","0","0","1","",""
"","feedback","","html-keyboard-response","261","292170","0.0-1.0-357.0-0.0","0","0","83394","","null","","","null","39","","","","","","","","","","","","","","","",""
"","ITI","","html-keyboard-response","262","293181","0.0-1.0-360.0","0","0","83394","","null","","","null","39","","","","","","","","","","","","","","","NaN",""
"","S1","","html-keyboard-response","263","293440","0.0-1.0-362.0","0","0","83394","","null","","","null","40","","","","","","","","","","","","","","","",""
"","ISI","","html-keyboard-response","264","293599","0.0-1.0-363.0","0","0","83394","","null","","","null","40","NaN","","","","","","","","","","","","","","",""
"","S2","","html-keyboard-response","265","293861","0.0-1.0-364.0","0","0","83394","","null","","","null","40","","NaN","","","","","","","","","","","","","",""
"","response","","html-keyboard-response","266","294302","0.0-1.0-365.0-0.0","0","0","83394","","431","","","68","40","","","1","40","training","adjacent","DE","4","5","R.jpg","M.jpg","1","1","1","",""
"","feedback","","html-keyboard-response","267","295313","0.0-1.0-366.0-0.0","0","0","83394","","null","","","null","40","","","","","","","","","","","","","","","",""
"","ITI","","html-keyboard-response","268","296326","0.0-1.0-369.0","0","0","83394","","null","","","null","40","","","","","","","","","","","","","","","NaN",""
"","S1","","html-keyboard-response","269","296587","0.0-1.0-371.0","0","0","83394","","null","","","null","41","","","","","","","","","","","","","","","",""
"","ISI","","html-keyboard-response","270","296747","0.0-1.0-372.0","0","0","83394","","null","","","null","41","NaN","","","","","","","","","","","","","","",""
"","S2","","html-keyboard-response","271","297008","0.0-1.0-373.0","0","0","83394","","null","","","null","41","","NaN","","","","","","","","","","","","","",""
"","response","","html-keyboard-response","272","297754","0.0-1.0-374.0-0.0","0","0","83394","","733","","","68","41","","","1","41","training","adjacent","BC","2","3","L.jpg","O.jpg","1","1","1","",""
"","feedback","","html-keyboard-response","273","298766","0.0-1.0-375.0-0.0","0","0","83394","","null","","","null","41","","","","","","","","","","","","","","","",""
"","ITI","","html-keyboard-response","274","299778","0.0-1.0-378.0","0","0","83394","","null","","","null","41","","","","","","","","","","","","","","","NaN",""
"","S1","","html-keyboard-response","275","300039","0.0-1.0-380.0","0","0","83394","","null","","","null","42","","","","","","","","","","","","","","","",""
"","ISI","","html-keyboard-response","276","300202","0.0-1.0-381.0","0","0","83394","","null","","","null","42","NaN","","","","","","","","","","","","","","",""
"","S2","","html-keyboard-response","277","300463","0.0-1.0-382.0","0","0","83394","","null","","","null","42","","NaN","","","","","","","","","","","","","",""
"","response","","html-keyboard-response","278","300884","0.0-1.0-383.0-0.0","0","0","83394","","411","","","68","42","","","1","42","training","adjacent","DC","4","3","R.jpg","O.jpg","1","0","0","",""
"","feedback","","html-keyboard-response","279","301895","0.0-1.0-384.0-0.0","0","0","83394","","null","","","null","42","","","","","","","","","","","","","","","",""
"","time_out","","html-keyboard-response","280","303905","0.0-1.0-386.0-0.0","0","0","83394","","null","","","null","42","","","","","","","","","","","","","","","",""
"","ITI","","html-keyboard-response","281","304916","0.0-1.0-387.0","0","0","83394","","null","","","null","42","","","","","","","","","","","","","","","NaN",""
"","S1","","html-keyboard-response","282","305178","0.0-1.0-389.0","0","0","83394","","null","","","null","43","","","","","","","","","","","","","","","",""
"","ISI","","html-keyboard-response","283","305340","0.0-1.0-390.0","0","0","83394","","null","","","null","43","NaN","","","","","","","","","","","","","","",""
"","S2","","html-keyboard-response","284","305599","0.0-1.0-391.0","0","0","83394","","null","","","null","43","","NaN","","","","","","","","","","","","","",""
"","response","","html-keyboard-response","285","306107","0.0-1.0-392.0-0.0","0","0","83394","","501","","","68","43","","","1","43","training","adjacent","BA","2","1","L.jpg","N.jpg","1","0","0","",""
"","feedback","","html-keyboard-response","286","307120","0.0-1.0-393.0-0.0","0","0","83394","","null","","","null","43","","","","","","","","","","","","","","","",""
"","time_out","","html-keyboard-response","287","309134","0.0-1.0-395.0-0.0","0","0","83394","","null","","","null","43","","","","","","","","","","","","","","","",""
"","ITI","","html-keyboard-response","288","310146","0.0-1.0-396.0","0","0","83394","","null","","","null","43","","","","","","","","","","","","","","","NaN",""
"","S1","","html-keyboard-response","289","310406","0.0-1.0-398.0","0","0","83394","","null","","","null","44","","","","","","","","","","","","","","","",""
"","ISI","","html-keyboard-response","290","310569","0.0-1.0-399.0","0","0","83394","","null","","","null","44","NaN","","","","","","","","","","","","","","",""
"","S2","","html-keyboard-response","291","310830","0.0-1.0-400.0","0","0","83394","","null","","","null","44","","NaN","","","","","","","","","","","","","",""
"","response","","html-keyboard-response","292","311334","0.0-1.0-401.0-0.0","0","0","83394","","495","","","75","44","","","1","44","training","adjacent","CD","3","4","O.jpg","R.jpg","0","1","0","",""
"","feedback","","html-keyboard-response","293","312346","0.0-1.0-402.0-0.0","0","0","83394","","null","","","null","44","","","","","","","","","","","","","","","",""
"","time_out","","html-keyboard-response","294","314357","0.0-1.0-404.0-0.0","0","0","83394","","null","","","null","44","","","","","","","","","","","","","","","",""
"","ITI","","html-keyboard-response","295","315369","0.0-1.0-405.0","0","0","83394","","null","","","null","44","","","","","","","","","","","","","","","NaN",""
"","S1","","html-keyboard-response","296","315630","0.0-1.0-407.0","0","0","83394","","null","","","null","45","","","","","","","","","","","","","","","",""
"","ISI","","html-keyboard-response","297","315790","0.0-1.0-408.0","0","0","83394","","null","","","null","45","NaN","","","","","","","","","","","","","","",""
"","S2","","html-keyboard-response","298","316053","0.0-1.0-409.0","0","0","83394","","null","","","null","45","","NaN","","","","","","","","","","","","","",""
"","response","","html-keyboard-response","299","316666","0.0-1.0-410.0-0.0","0","0","83394","","604","","","68","45","","","1","45","training","adjacent","AB","1","2","N.jpg","L.jpg","1","1","1","",""
"","feedback","","html-keyboard-response","300","317677","0.0-1.0-411.0-0.0","0","0","83394","","null","","","null","45","","","","","","","","","","","","","","","",""
"","ITI","","html-keyboard-response","301","318687","0.0-1.0-414.0","0","0","83394","","null","","","null","45","","","","","","","","","","","","","","","NaN",""
"","S1","","html-keyboard-response","302","318949","0.0-1.0-416.0","0","0","83394","","null","","","null","46","","","","","","","","","","","","","","","",""
"","ISI","","html-keyboard-response","303","319112","0.0-1.0-417.0","0","0","83394","","null","","","null","46","NaN","","","","","","","","","","","","","","",""
"","S2","","html-keyboard-response","304","319377","0.0-1.0-418.0","0","0","83394","","null","","","null","46","","NaN","","","","","","","","","","","","","",""
"","response","","html-keyboard-response","305","319829","0.0-1.0-419.0-0.0","0","0","83394","","441","","","68","46","","","1","46","training","adjacent","DE","4","5","R.jpg","M.jpg","1","1","1","",""
"","feedback","","html-keyboard-response","306","320839","0.0-1.0-420.0-0.0","0","0","83394","","null","","","null","46","","","","","","","","","","","","","","","",""
"","ITI","","html-keyboard-response","307","321848","0.0-1.0-423.0","0","0","83394","","null","","","null","46","","","","","","","","","","","","","","","NaN",""
"","S1","","html-keyboard-response","308","322110","0.0-1.0-425.0","0","0","83394","","null","","","null","47","","","","","","","","","","","","","","","",""
"","ISI","","html-keyboard-response","309","322269","0.0-1.0-426.0","0","0","83394","","null","","","null","47","NaN","","","","","","","","","","","","","","",""
"","S2","","html-keyboard-response","310","322533","0.0-1.0-427.0","0","0","83394","","null","","","null","47","","NaN","","","","","","","","","","","","","",""
"","response","","html-keyboard-response","311","323083","0.0-1.0-428.0-0.0","0","0","83394","","541","","","75","47","","","1","47","training","adjacent","ED","5","4","M.jpg","R.jpg","0","0","1","",""
"","feedback","","html-keyboard-response","312","324093","0.0-1.0-429.0-0.0","0","0","83394","","null","","","null","47","","","","","","","","","","","","","","","",""
"","ITI","","html-keyboard-response","313","325105","0.0-1.0-432.0","0","0","83394","","null","","","null","47","","","","","","","","","","","","","","","NaN",""
"","block_over","","html-keyboard-response","314","333357","0.0-1.0-433.0-0.0","0","0","83394","","8240","","","32","47","","","","","","","","","","","","","","","",""
"","S1","","html-keyboard-response","315","333618","0.0-1.0-434.0","0","0","83394","","null","","","null","48","","","","","","","","","","","","","","","",""
"","ISI","","html-keyboard-response","316","333779","0.0-1.0-435.0","0","0","83394","","null","","","null","48","NaN","","","","","","","","","","","","","","",""
"","S2","","html-keyboard-response","317","334042","0.0-1.0-436.0","0","0","83394","","null","","","null","48","","NaN","","","","","","","","","","","","","",""
"","response","","html-keyboard-response","318","334626","0.0-1.0-437.0-0.0","0","0","83394","","574","","","68","48","","","2","48","training","adjacent","BC","2","3","L.jpg","O.jpg","1","1","1","",""
"","feedback","","html-keyboard-response","319","335637","0.0-1.0-438.0-0.0","0","0","83394","","null","","","null","48","","","","","","","","","","","","","","","",""
"","ITI","","html-keyboard-response","320","336647","0.0-1.0-441.0","0","0","83394","","null","","","null","48","","","","","","","","","","","","","","","NaN",""
"","S1","","html-keyboard-response","321","336905","0.0-1.0-443.0","0","0","83394","","null","","","null","49","","","","","","","","","","","","","","","",""
"","ISI","","html-keyboard-response","322","337066","0.0-1.0-444.0","0","0","83394","","null","","","null","49","NaN","","","","","","","","","","","","","","",""
"","S2","","html-keyboard-response","323","337328","0.0-1.0-445.0","0","0","83394","","null","","","null","49","","NaN","","","","","","","","","","","","","",""
"","response","","html-keyboard-response","324","337872","0.0-1.0-446.0-0.0","0","0","83394","","532","","","75","49","","","2","49","training","adjacent","CD","3","4","O.jpg","R.jpg","0","1","0","",""
"","feedback","","html-keyboard-response","325","338885","0.0-1.0-447.0-0.0","0","0","83394","","null","","","null","49","","","","","","","","","","","","","","","",""
"","time_out","","html-keyboard-response","326","340894","0.0-1.0-449.0-0.0","0","0","83394","","null","","","null","49","","","","","","","","","","","","","","","",""
"","ITI","","html-keyboard-response","327","341906","0.0-1.0-450.0","0","0","83394","","null","","","null","49","","","","","","","","","","","","","","","NaN",""
"","S1","","html-keyboard-response","328","342166","0.0-1.0-452.0","0","0","83394","","null","","","null","50","","","","","","","","","","","","","","","",""
"","ISI","","html-keyboard-response","329","342325","0.0-1.0-453.0","0","0","83394","","null","","","null","50","NaN","","","","","","","","","","","","","","",""
"","S2","","html-keyboard-response","330","342587","0.0-1.0-454.0","0","0","83394","","null","","","null","50","","NaN","","","","","","","","","","","","","",""
"","response","","html-keyboard-response","331","343063","0.0-1.0-455.0-0.0","0","0","83394","","465","","","75","50","","","2","50","training","adjacent","EF","5","6","M.jpg","P.jpg","0","1","0","",""
"","feedback","","html-keyboard-response","332","344072","0.0-1.0-456.0-0.0","0","0","83394","","null","","","null","50","","","","","","","","","","","","","","","",""
"","time_out","","html-keyboard-response","333","346084","0.0-1.0-458.0-0.0","0","0","83394","","null","","","null","50","","","","","","","","","","","","","","","",""
"","ITI","","html-keyboard-response","334","347097","0.0-1.0-459.0","0","0","83394","","null","","","null","50","","","","","","","","","","","","","","","NaN",""
"","S1","","html-keyboard-response","335","347361","0.0-1.0-461.0","0","0","83394","","null","","","null","51","","","","","","","","","","","","","","","",""
"","ISI","","html-keyboard-response","336","347521","0.0-1.0-462.0","0","0","83394","","null","","","null","51","NaN","","","","","","","","","","","","","","",""
"","S2","","html-keyboard-response","337","347778","0.0-1.0-463.0","0","0","83394","","null","","","null","51","","NaN","","","","","","","","","","","","","",""
"","response","","html-keyboard-response","338","348543","0.0-1.0-464.0-0.0","0","0","83394","","759","","","75","51","","","2","51","training","adjacent","FG","6","7","P.jpg","Q.jpg","0","1","0","",""
"","feedback","","html-keyboard-response","339","349629","0.0-1.0-465.0-0.0","0","0","83394","","null","","","null","51","","","","","","","","","","","","","","","",""
"","time_out","","html-keyboard-response","340","351644","0.0-1.0-467.0-0.0","0","0","83394","","null","","","null","51","","","","","","","","","","","","","","","",""
"","ITI","","html-keyboard-response","341","352653","0.0-1.0-468.0","0","0","83394","","null","","","null","51","","","","","","","","","","","","","","","NaN",""
"","S1","","html-keyboard-response","342","352918","0.0-1.0-470.0","0","0","83394","","null","","","null","52","","","","","","","","","","","","","","","",""
"","ISI","","html-keyboard-response","343","353078","0.0-1.0-471.0","0","0","83394","","null","","","null","52","NaN","","","","","","","","","","","","","","",""
"","S2","","html-keyboard-response","344","353337","0.0-1.0-472.0","0","0","83394","","null","","","null","52","","NaN","","","","","","","","","","","","","",""
"","response","","html-keyboard-response","345","353760","0.0-1.0-473.0-0.0","0","0","83394","","412","","","68","52","","","2","52","training","adjacent","DE","4","5","R.jpg","M.jpg","1","1","1","",""
"","feedback","","html-keyboard-response","346","354771","0.0-1.0-474.0-0.0","0","0","83394","","null","","","null","52","","","","","","","","","","","","","","","",""
"","ITI","","html-keyboard-response","347","355780","0.0-1.0-477.0","0","0","83394","","null","","","null","52","","","","","","","","","","","","","","","NaN",""
"","S1","","html-keyboard-response","348","356043","0.0-1.0-479.0","0","0","83394","","null","","","null","53","","","","","","","","","","","","","","","",""
"","ISI","","html-keyboard-response","349","356204","0.0-1.0-480.0","0","0","83394","","null","","","null","53","NaN","","","","","","","","","","","","","","",""
"","S2","","html-keyboard-response","350","356465","0.0-1.0-481.0","0","0","83394","","null","","","null","53","","NaN","","","","","","","","","","","","","",""
"","response","","html-keyboard-response","351","356998","0.0-1.0-482.0-0.0","0","0","83394","","522","","","75","53","","","2","53","training","adjacent","GF","7","6","Q.jpg","P.jpg","0","0","1","",""
"","feedback","","html-keyboard-response","352","358009","0.0-1.0-483.0-0.0","0","0","83394","","null","","","null","53","","","","","","","","","","","","","","","",""
"","ITI","","html-keyboard-response","353","359018","0.0-1.0-486.0","0","0","83394","","null","","","null","53","","","","","","","","","","","","","","","NaN",""
"","S1","","html-keyboard-response","354","359279","0.0-1.0-488.0","0","0","83394","","null","","","null","54","","","","","","","","","","","","","","","",""
"","ISI","","html-keyboard-response","355","359441","0.0-1.0-489.0","0","0","83394","","null","","","null","54","NaN","","","","","","","","","","","","","","",""
"","S2","","html-keyboard-response","356","359702","0.0-1.0-490.0","0","0","83394","","null","","","null","54","","NaN","","","","","","","","","","","","","",""
"","response","","html-keyboard-response","357","360219","0.0-1.0-491.0-0.0","0","0","83394","","507","","","75","54","","","2","54","training","adjacent","DC","4","3","R.jpg","O.jpg","0","0","1","",""
"","feedback","","html-keyboard-response","358","361227","0.0-1.0-492.0-0.0","0","0","83394","","null","","","null","54","","","","","","","","","","","","","","","",""
"","ITI","","html-keyboard-response","359","362235","0.0-1.0-495.0","0","0","83394","","null","","","null","54","","","","","","","","","","","","","","","NaN",""
"","S1","","html-keyboard-response","360","362493","0.0-1.0-497.0","0","0","83394","","null","","","null","55","","","","","","","","","","","","","","","",""
"","ISI","","html-keyboard-response","361","362652","0.0-1.0-498.0","0","0","83394","","null","","","null","55","NaN","","","","","","","","","","","","","","",""
"","S2","","html-keyboard-response","362","362910","0.0-1.0-499.0","0","0","83394","","null","","","null","55","","NaN","","","","","","","","","","","","","",""
"","response","","html-keyboard-response","363","363498","0.0-1.0-500.0-0.0","0","0","83394","","578","","","68","55","","","2","55","training","adjacent","DE","4","5","R.jpg","M.jpg","1","1","1","",""
"","feedback","","html-keyboard-response","364","364509","0.0-1.0-501.0-0.0","0","0","83394","","null","","","null","55","","","","","","","","","","","","","","","",""
"","ITI","","html-keyboard-response","365","365521","0.0-1.0-504.0","0","0","83394","","null","","","null","55","","","","","","","","","","","","","","","NaN",""
"","S1","","html-keyboard-response","366","365780","0.0-1.0-506.0","0","0","83394","","null","","","null","56","","","","","","","","","","","","","","","",""
"","ISI","","html-keyboard-response","367","365938","0.0-1.0-507.0","0","0","83394","","null","","","null","56","NaN","","","","","","","","","","","","","","",""
"","S2","","html-keyboard-response","368","366199","0.0-1.0-508.0","0","0","83394","","null","","","null","56","","NaN","","","","","","","","","","","","","",""
"","response","","html-keyboard-response","369","366944","0.0-1.0-509.0-0.0","0","0","83394","","737","","","68","56","","","2","56","training","adjacent","DE","4","5","R.jpg","M.jpg","1","1","1","",""
"","feedback","","html-keyboard-response","370","367952","0.0-1.0-510.0-0.0","0","0","83394","","null","","","null","56","","","","","","","","","","","","","","","",""
"","ITI","","html-keyboard-response","371","368964","0.0-1.0-513.0","0","0","83394","","null","","","null","56","","","","","","","","","","","","","","","NaN",""
"","S1","","html-keyboard-response","372","369225","0.0-1.0-515.0","0","0","83394","","null","","","null","57","","","","","","","","","","","","","","","",""
"","ISI","","html-keyboard-response","373","369385","0.0-1.0-516.0","0","0","83394","","null","","","null","57","NaN","","","","","","","","","","","","","","",""
"","S2","","html-keyboard-response","374","369645","0.0-1.0-517.0","0","0","83394","","null","","","null","57","","NaN","","","","","","","","","","","","","",""
"","response","","html-keyboard-response","375","370087","0.0-1.0-518.0-0.0","0","0","83394","","432","","","75","57","","","2","57","training","adjacent","BA","2","1","L.jpg","N.jpg","0","0","1","",""
"","feedback","","html-keyboard-response","376","371099","0.0-1.0-519.0-0.0","0","0","83394","","null","","","null","57","","","","","","","","","","","","","","","",""
"","ITI","","html-keyboard-response","377","372112","0.0-1.0-522.0","0","0","83394","","null","","","null","57","","","","","","","","","","","","","","","NaN",""
"","S1","","html-keyboard-response","378","372372","0.0-1.0-524.0","0","0","83394","","null","","","null","58","","","","","","","","","","","","","","","",""
"","ISI","","html-keyboard-response","379","372533","0.0-1.0-525.0","0","0","83394","","null","","","null","58","NaN","","","","","","","","","","","","","","",""
"","S2","","html-keyboard-response","380","372796","0.0-1.0-526.0","0","0","83394","","null","","","null","58","","NaN","","","","","","","","","","","","","",""
"","response","","html-keyboard-response","381","373688","0.0-1.0-527.0-0.0","0","0","83394","","884","","","75","58","","","2","58","training","adjacent","FG","6","7","P.jpg","Q.jpg","0","1","0","",""
"","feedback","","html-keyboard-response","382","374701","0.0-1.0-528.0-0.0","0","0","83394","","null","","","null","58","","","","","","","","","","","","","","","",""
"","time_out","","html-keyboard-response","383","376714","0.0-1.0-530.0-0.0","0","0","83394","","null","","","null","58","","","","","","","","","","","","","","","",""
"","ITI","","html-keyboard-response","384","377724","0.0-1.0-531.0","0","0","83394","","null","","","null","58","","","","","","","","","","","","","","","NaN",""
"","S1","","html-keyboard-response","385","377982","0.0-1.0-533.0","0","0","83394","","null","","","null","59","","","","","","","","","","","","","","","",""
"","ISI","","html-keyboard-response","386","378141","0.0-1.0-534.0","0","0","83394","","null","","","null","59","NaN","","","","","","","","","","","","","","",""
"","S2","","html-keyboard-response","387","378400","0.0-1.0-535.0","0","0","83394","","null","","","null","59","","NaN","","","","","","","","","","","","","",""
"","response","","html-keyboard-response","388","378919","0.0-1.0-536.0-0.0","0","0","83394","","505","","","68","59","","","2","59","training","adjacent","CD","3","4","O.jpg","R.jpg","1","1","1","",""
"","feedback","","html-keyboard-response","389","379930","0.0-1.0-537.0-0.0","0","0","83394","","null","","","null","59","","","","","","","","","","","","","","","",""
"","ITI","","html-keyboard-response","390","380944","0.0-1.0-540.0","0","0","83394","","null","","","null","59","","","","","","","","","","","","","","","NaN",""
"","S1","","html-keyboard-response","391","381204","0.0-1.0-542.0","0","0","83394","","null","","","null","60","","","","","","","","","","","","","","","",""
"","ISI","","html-keyboard-response","392","381364","0.0-1.0-543.0","0","0","83394","","null","","","null","60","NaN","","","","","","","","","","","","","","",""
"","S2","","html-keyboard-response","393","381626","0.0-1.0-544.0","0","0","83394","","null","","","null","60","","NaN","","","","","","","","","","","","","",""
"","response","","html-keyboard-response","394","382147","0.0-1.0-545.0-0.0","0","0","83394","","510","","","68","60","","","2","60","training","adjacent","ED","5","4","M.jpg","R.jpg","1","0","0","",""
"","feedback","","html-keyboard-response","395","383160","0.0-1.0-546.0-0.0","0","0","83394","","null","","","null","60","","","","","","","","","","","","","","","",""
"","time_out","","html-keyboard-response","396","385168","0.0-1.0-548.0-0.0","0","0","83394","","null","","","null","60","","","","","","","","","","","","","","","",""
"","ITI","","html-keyboard-response","397","386178","0.0-1.0-549.0","0","0","83394","","null","","","null","60","","","","","","","","","","","","","","","NaN",""
"","S1","","html-keyboard-response","398","386441","0.0-1.0-551.0","0","0","83394","","null","","","null","61","","","","","","","","","","","","","","","",""
"","ISI","","html-keyboard-response","399","386602","0.0-1.0-552.0","0","0","83394","","null","","","null","61","NaN","","","","","","","","","","","","","","",""
"","S2","","html-keyboard-response","400","386864","0.0-1.0-553.0","0","0","83394","","null","","","null","61","","NaN","","","","","","","","","","","","","",""
"","response","","html-keyboard-response","401","387249","0.0-1.0-554.0-0.0","0","0","83394","","374","","","68","61","","","2","61","training","adjacent","CB","3","2","O.jpg","L.jpg","1","0","0","",""
"","feedback","","html-keyboard-response","402","388260","0.0-1.0-555.0-0.0","0","0","83394","","null","","","null","61","","","","","","","","","","","","","","","",""
"","time_out","","html-keyboard-response","403","390272","0.0-1.0-557.0-0.0","0","0","83394","","null","","","null","61","","","","","","","","","","","","","","","",""
"","ITI","","html-keyboard-response","404","391282","0.0-1.0-558.0","0","0","83394","","null","","","null","61","","","","","","","","","","","","","","","NaN",""
"","S1","","html-keyboard-response","405","391542","0.0-1.0-560.0","0","0","83394","","null","","","null","62","","","","","","","","","","","","","","","",""
"","ISI","","html-keyboard-response","406","391703","0.0-1.0-561.0","0","0","83394","","null","","","null","62","NaN","","","","","","","","","","","","","","",""
"","S2","","html-keyboard-response","407","391968","0.0-1.0-562.0","0","0","83394","","null","","","null","62","","NaN","","","","","","","","","","","","","",""
"","response","","html-keyboard-response","408","392476","0.0-1.0-563.0-0.0","0","0","83394","","500","","","68","62","","","2","62","training","adjacent","FE","6","5","P.jpg","M.jpg","1","0","0","",""
"","feedback","","html-keyboard-response","409","393490","0.0-1.0-564.0-0.0","0","0","83394","","null","","","null","62","","","","","","","","","","","","","","","",""
"","time_out","","html-keyboard-response","410","395501","0.0-1.0-566.0-0.0","0","0","83394","","null","","","null","62","","","","","","","","","","","","","","","",""
"","ITI","","html-keyboard-response","411","396514","0.0-1.0-567.0","0","0","83394","","null","","","null","62","","","","","","","","","","","","","","","NaN",""
"","S1","","html-keyboard-response","412","396776","0.0-1.0-569.0","0","0","83394","","null","","","null","63","","","","","","","","","","","","","","","",""
"","ISI","","html-keyboard-response","413","396938","0.0-1.0-570.0","0","0","83394","","null","","","null","63","NaN","","","","","","","","","","","","","","",""
"","S2","","html-keyboard-response","414","397198","0.0-1.0-571.0","0","0","83394","","null","","","null","63","","NaN","","","","","","","","","","","","","",""
"","response","","html-keyboard-response","415","397599","0.0-1.0-572.0-0.0","0","0","83394","","391","","","75","63","","","2","63","training","adjacent","CD","3","4","O.jpg","R.jpg","0","1","0","",""
"","feedback","","html-keyboard-response","416","398609","0.0-1.0-573.0-0.0","0","0","83394","","null","","","null","63","","","","","","","","","","","","","","","",""
"","time_out","","html-keyboard-response","417","400623","0.0-1.0-575.0-0.0","0","0","83394","","null","","","null","63","","","","","","","","","","","","","","","",""
"","ITI","","html-keyboard-response","418","401634","0.0-1.0-576.0","0","0","83394","","null","","","null","63","","","","","","","","","","","","","","","NaN",""
"","S1","","html-keyboard-response","419","401897","0.0-1.0-578.0","0","0","83394","","null","","","null","64","","","","","","","","","","","","","","","",""
"","ISI","","html-keyboard-response","420","402055","0.0-1.0-579.0","0","0","83394","","null","","","null","64","NaN","","","","","","","","","","","","","","",""
"","S2","","html-keyboard-response","421","402318","0.0-1.0-580.0","0","0","83394","","null","","","null","64","","NaN","","","","","","","","","","","","","",""
"","response","","html-keyboard-response","422","402921","0.0-1.0-581.0-0.0","0","0","83394","","592","","","68","64","","","2","64","training","adjacent","ED","5","4","M.jpg","R.jpg","1","0","0","",""
"","feedback","","html-keyboard-response","423","403935","0.0-1.0-582.0-0.0","0","0","83394","","null","","","null","64","","","","","","","","","","","","","","","",""
"","time_out","","html-keyboard-response","424","405946","0.0-1.0-584.0-0.0","0","0","83394","","null","","","null","64","","","","","","","","","","","","","","","",""
"","ITI","","html-keyboard-response","425","406957","0.0-1.0-585.0","0","0","83394","","null","","","null","64","","","","","","","","","","","","","","","NaN",""
"","S1","","html-keyboard-response","426","407218","0.0-1.0-587.0","0","0","83394","","null","","","null","65","","","","","","","","","","","","","","","",""
"","ISI","","html-keyboard-response","427","407380","0.0-1.0-588.0","0","0","83394","","null","","","null","65","NaN","","","","","","","","","","","","","","",""
"","S2","","html-keyboard-response","428","407644","0.0-1.0-589.0","0","0","83394","","null","","","null","65","","NaN","","","","","","","","","","","","","",""
"","response","","html-keyboard-response","429","408715","0.0-1.0-590.0-0.0","0","0","83394","","1064","","","75","65","","","2","65","training","adjacent","ED","5","4","M.jpg","R.jpg","0","0","1","",""
"","feedback","","html-keyboard-response","430","409727","0.0-1.0-591.0-0.0","0","0","83394","","null","","","null","65","","","","","","","","","","","","","","","",""
"","ITI","","html-keyboard-response","431","410739","0.0-1.0-594.0","0","0","83394","","null","","","null","65","","","","","","","","","","","","","","","NaN",""
"","S1","","html-keyboard-response","432","411002","0.0-1.0-596.0","0","0","83394","","null","","","null","66","","","","","","","","","","","","","","","",""
"","ISI","","html-keyboard-response","433","411163","0.0-1.0-597.0","0","0","83394","","null","","","null","66","NaN","","","","","","","","","","","","","","",""
"","S2","","html-keyboard-response","434","411425","0.0-1.0-598.0","0","0","83394","","null","","","null","66","","NaN","","","","","","","","","","","","","",""
"","response","","html-keyboard-response","435","411708","0.0-1.0-599.0-0.0","0","0","83394","","271","","","68","66","","","2","66","training","adjacent","CB","3","2","O.jpg","L.jpg","1","0","0","",""
"","feedback","","html-keyboard-response","436","412717","0.0-1.0-600.0-0.0","0","0","83394","","null","","","null","66","","","","","","","","","","","","","","","",""
"","time_out","","html-keyboard-response","437","414732","0.0-1.0-602.0-0.0","0","0","83394","","null","","","null","66","","","","","","","","","","","","","","","",""
"","ITI","","html-keyboard-response","438","415743","0.0-1.0-603.0","0","0","83394","","null","","","null","66","","","","","","","","","","","","","","","NaN",""
"","S1","","html-keyboard-response","439","416007","0.0-1.0-605.0","0","0","83394","","null","","","null","67","","","","","","","","","","","","","","","",""
"","ISI","","html-keyboard-response","440","416168","0.0-1.0-606.0","0","0","83394","","null","","","null","67","NaN","","","","","","","","","","","","","","",""
"","S2","","html-keyboard-response","441","416431","0.0-1.0-607.0","0","0","83394","","null","","","null","67","","NaN","","","","","","","","","","","","","",""
"","response","","html-keyboard-response","442","417062","0.0-1.0-608.0-0.0","0","0","83394","","623","","","68","67","","","2","67","training","adjacent","BA","2","1","L.jpg","N.jpg","1","0","0","",""
"","feedback","","html-keyboard-response","443","418076","0.0-1.0-609.0-0.0","0","0","83394","","null","","","null","67","","","","","","","","","","","","","","","",""
"","time_out","","html-keyboard-response","444","420087","0.0-1.0-611.0-0.0","0","0","83394","","null","","","null","67","","","","","","","","","","","","","","","",""
"","ITI","","html-keyboard-response","445","421102","0.0-1.0-612.0","0","0","83394","","null","","","null","67","","","","","","","","","","","","","","","NaN",""
"","S1","","html-keyboard-response","446","421364","0.0-1.0-614.0","0","0","83394","","null","","","null","68","","","","","","","","","","","","","","","",""
"","ISI","","html-keyboard-response","447","421524","0.0-1.0-615.0","0","0","83394","","null","","","null","68","NaN","","","","","","","","","","","","","","",""
"","S2","","html-keyboard-response","448","421785","0.0-1.0-616.0","0","0","83394","","null","","","null","68","","NaN","","","","","","","","","","","","","",""
"","response","","html-keyboard-response","449","422421","0.0-1.0-617.0-0.0","0","0","83394","","627","","","68","68","","","2","68","training","adjacent","FG","6","7","P.jpg","Q.jpg","1","1","1","",""
"","feedback","","html-keyboard-response","450","423436","0.0-1.0-618.0-0.0","0","0","83394","","null","","","null","68","","","","","","","","","","","","","","","",""
"","ITI","","html-keyboard-response","451","424447","0.0-1.0-621.0","0","0","83394","","null","","","null","68","","","","","","","","","","","","","","","NaN",""
"","S1","","html-keyboard-response","452","424708","0.0-1.0-623.0","0","0","83394","","null","","","null","69","","","","","","","","","","","","","","","",""
"","ISI","","html-keyboard-response","453","424871","0.0-1.0-624.0","0","0","83394","","null","","","null","69","NaN","","","","","","","","","","","","","","",""
"","S2","","html-keyboard-response","454","425134","0.0-1.0-625.0","0","0","83394","","null","","","null","69","","NaN","","","","","","","","","","","","","",""
"","response","","html-keyboard-response","455","425685","0.0-1.0-626.0-0.0","0","0","83394","","541","","","75","69","","","2","69","training","adjacent","BC","2","3","L.jpg","O.jpg","0","1","0","",""
"","feedback","","html-keyboard-response","456","426695","0.0-1.0-627.0-0.0","0","0","83394","","null","","","null","69","","","","","","","","","","","","","","","",""
"","time_out","","html-keyboard-response","457","428706","0.0-1.0-629.0-0.0","0","0","83394","","null","","","null","69","","","","","","","","","","","","","","","",""
"","ITI","","html-keyboard-response","458","429719","0.0-1.0-630.0","0","0","83394","","null","","","null","69","","","","","","","","","","","","","","","NaN",""
"","S1","","html-keyboard-response","459","429981","0.0-1.0-632.0","0","0","83394","","null","","","null","70","","","","","","","","","","","","","","","",""
"","ISI","","html-keyboard-response","460","430143","0.0-1.0-633.0","0","0","83394","","null","","","null","70","NaN","","","","","","","","","","","","","","",""
"","S2","","html-keyboard-response","461","430403","0.0-1.0-634.0","0","0","83394","","null","","","null","70","","NaN","","","","","","","","","","","","","",""
"","response","","html-keyboard-response","462","430962","0.0-1.0-635.0-0.0","0","0","83394","","550","","","75","70","","","2","70","training","adjacent","DC","4","3","R.jpg","O.jpg","0","0","1","",""
"","feedback","","html-keyboard-response","463","431973","0.0-1.0-636.0-0.0","0","0","83394","","null","","","null","70","","","","","","","","","","","","","","","",""
"","ITI","","html-keyboard-response","464","432987","0.0-1.0-639.0","0","0","83394","","null","","","null","70","","","","","","","","","","","","","","","NaN",""
"","S1","","html-keyboard-response","465","433249","0.0-1.0-641.0","0","0","83394","","null","","","null","71","","","","","","","","","","","","","","","",""
"","ISI","","html-keyboard-response","466","433411","0.0-1.0-642.0","0","0","83394","","null","","","null","71","NaN","","","","","","","","","","","","","","",""
"","S2","","html-keyboard-response","467","433674","0.0-1.0-643.0","0","0","83394","","null","","","null","71","","NaN","","","","","","","","","","","","","",""
"","response","","html-keyboard-response","468","434817","0.0-1.0-644.0-0.0","0","0","83394","","1135","","","68","71","","","2","71","training","adjacent","FE","6","5","P.jpg","M.jpg","1","0","0","",""
"","feedback","","html-keyboard-response","469","435829","0.0-1.0-645.0-0.0","0","0","83394","","null","","","null","71","","","","","","","","","","","","","","","",""
"","time_out","","html-keyboard-response","470","437841","0.0-1.0-647.0-0.0","0","0","83394","","null","","","null","71","","","","","","","","","","","","","","","",""
"","ITI","","html-keyboard-response","471","438850","0.0-1.0-648.0","0","0","83394","","null","","","null","71","","","","","","","","","","","","","","","NaN",""
"","S1","","html-keyboard-response","472","439111","0.0-1.0-650.0","0","0","83394","","null","","","null","72","","","","","","","","","","","","","","","",""
"","ISI","","html-keyboard-response","473","439271","0.0-1.0-651.0","0","0","83394","","null","","","null","72","NaN","","","","","","","","","","","","","","",""
"","S2","","html-keyboard-response","474","439532","0.0-1.0-652.0","0","0","83394","","null","","","null","72","","NaN","","","","","","","","","","","","","",""
"","response","","html-keyboard-response","475","440020","0.0-1.0-653.0-0.0","0","0","83394","","477","","","75","72","","","2","72","training","adjacent","AB","1","2","N.jpg","L.jpg","0","1","0","",""
"","feedback","","html-keyboard-response","476","441032","0.0-1.0-654.0-0.0","0","0","83394","","null","","","null","72","","","","","","","","","","","","","","","",""
"","time_out","","html-keyboard-response","477","443044","0.0-1.0-656.0-0.0","0","0","83394","","null","","","null","72","","","","","","","","","","","","","","","",""
"","ITI","","html-keyboard-response","478","444051","0.0-1.0-657.0","0","0","83394","","null","","","null","72","","","","","","","","","","","","","","","NaN",""
"","S1","","html-keyboard-response","479","444311","0.0-1.0-659.0","0","0","83394","","null","","","null","73","","","","","","","","","","","","","","","",""
"","ISI","","html-keyboard-response","480","444469","0.0-1.0-660.0","0","0","83394","","null","","","null","73","NaN","","","","","","","","","","","","","","",""
"","S2","","html-keyboard-response","481","444730","0.0-1.0-661.0","0","0","83394","","null","","","null","73","","NaN","","","","","","","","","","","","","",""
"","response","","html-keyboard-response","482","446114","0.0-1.0-662.0-0.0","0","0","83394","","1374","","","68","73","","","2","73","training","adjacent","BC","2","3","L.jpg","O.jpg","1","1","1","",""
"","feedback","","html-keyboard-response","483","447126","0.0-1.0-663.0-0.0","0","0","83394","","null","","","null","73","","","","","","","","","","","","","","","",""
"","ITI","","html-keyboard-response","484","448137","0.0-1.0-666.0","0","0","83394","","null","","","null","73","","","","","","","","","","","","","","","NaN",""
"","S1","","html-keyboard-response","485","448399","0.0-1.0-668.0","0","0","83394","","null","","","null","74","","","","","","","","","","","","","","","",""
"","ISI","","html-keyboard-response","486","448561","0.0-1.0-669.0","0","0","83394","","null","","","null","74","NaN","","","","","","","","","","","","","","",""
"","S2","","html-keyboard-response","487","448821","0.0-1.0-670.0","0","0","83394","","null","","","null","74","","NaN","","","","","","","","","","","","","",""
"","response","","html-keyboard-response","488","449138","0.0-1.0-671.0-0.0","0","0","83394","","305","","","68","74","","","2","74","training","adjacent","CB","3","2","O.jpg","L.jpg","1","0","0","",""
"","feedback","","html-keyboard-response","489","450151","0.0-1.0-672.0-0.0","0","0","83394","","null","","","null","74","","","","","","","","","","","","","","","",""
"","time_out","","html-keyboard-response","490","452161","0.0-1.0-674.0-0.0","0","0","83394","","null","","","null","74","","","","","","","","","","","","","","","",""
"","ITI","","html-keyboard-response","491","453171","0.0-1.0-675.0","0","0","83394","","null","","","null","74","","","","","","","","","","","","","","","NaN",""
"","S1","","html-keyboard-response","492","453434","0.0-1.0-677.0","0","0","83394","","null","","","null","75","","","","","","","","","","","","","","","",""
"","ISI","","html-keyboard-response","493","453595","0.0-1.0-678.0","0","0","83394","","null","","","null","75","NaN","","","","","","","","","","","","","","",""
"","S2","","html-keyboard-response","494","453857","0.0-1.0-679.0","0","0","83394","","null","","","null","75","","NaN","","","","","","","","","","","","","",""
"","response","","html-keyboard-response","495","454430","0.0-1.0-680.0-0.0","0","0","83394","","562","","","75","75","","","2","75","training","adjacent","BC","2","3","L.jpg","O.jpg","0","1","0","",""
"","feedback","","html-keyboard-response","496","455442","0.0-1.0-681.0-0.0","0","0","83394","","null","","","null","75","","","","","","","","","","","","","","","",""
"","time_out","","html-keyboard-response","497","457452","0.0-1.0-683.0-0.0","0","0","83394","","null","","","null","75","","","","","","","","","","","","","","","",""
"","ITI","","html-keyboard-response","498","458464","0.0-1.0-684.0","0","0","83394","","null","","","null","75","","","","","","","","","","","","","","","NaN",""
"","S1","","html-keyboard-response","499","458726","0.0-1.0-686.0","0","0","83394","","null","","","null","76","","","","","","","","","","","","","","","",""
"","ISI","","html-keyboard-response","500","458886","0.0-1.0-687.0","0","0","83394","","null","","","null","76","NaN","","","","","","","","","","","","","","",""
"","S2","","html-keyboard-response","501","459145","0.0-1.0-688.0","0","0","83394","","null","","","null","76","","NaN","","","","","","","","","","","","","",""
"","response","","html-keyboard-response","502","460548","0.0-1.0-689.0-0.0","0","0","83394","","1393","","","75","76","","","2","76","training","adjacent","CD","3","4","O.jpg","R.jpg","0","1","0","",""
"","feedback","","html-keyboard-response","503","461558","0.0-1.0-690.0-0.0","0","0","83394","","null","","","null","76","","","","","","","","","","","","","","","",""
"","time_out","","html-keyboard-response","504","463571","0.0-1.0-692.0-0.0","0","0","83394","","null","","","null","76","","","","","","","","","","","","","","","",""
"","ITI","","html-keyboard-response","505","464581","0.0-1.0-693.0","0","0","83394","","null","","","null","76","","","","","","","","","","","","","","","NaN",""
"","S1","","html-keyboard-response","506","464847","0.0-1.0-695.0","0","0","83394","","null","","","null","77","","","","","","","","","","","","","","","",""
"","ISI","","html-keyboard-response","507","465003","0.0-1.0-696.0","0","0","83394","","null","","","null","77","NaN","","","","","","","","","","","","","","",""
"","S2","","html-keyboard-response","508","465265","0.0-1.0-697.0","0","0","83394","","null","","","null","77","","NaN","","","","","","","","","","","","","",""
"","response","","html-keyboard-response","509","465760","0.0-1.0-698.0-0.0","0","0","83394","","488","","","68","77","","","2","77","training","adjacent","GF","7","6","Q.jpg","P.jpg","1","0","0","",""
"","feedback","","html-keyboard-response","510","466772","0.0-1.0-699.0-0.0","0","0","83394","","null","","","null","77","","","","","","","","","","","","","","","",""
"","time_out","","html-keyboard-response","511","468782","0.0-1.0-701.0-0.0","0","0","83394","","null","","","null","77","","","","","","","","","","","","","","","",""
"","ITI","","html-keyboard-response","512","469793","0.0-1.0-702.0","0","0","83394","","null","","","null","77","","","","","","","","","","","","","","","NaN",""
"","S1","","html-keyboard-response","513","470057","0.0-1.0-704.0","0","0","83394","","null","","","null","78","","","","","","","","","","","","","","","",""
"","ISI","","html-keyboard-response","514","470219","0.0-1.0-705.0","0","0","83394","","null","","","null","78","NaN","","","","","","","","","","","","","","",""
"","S2","","html-keyboard-response","515","470481","0.0-1.0-706.0","0","0","83394","","null","","","null","78","","NaN","","","","","","","","","","","","","",""
"","response","","html-keyboard-response","516","471088","0.0-1.0-707.0-0.0","0","0","83394","","601","","","68","78","","","2","78","training","adjacent","BA","2","1","L.jpg","N.jpg","1","0","0","",""
"","feedback","","html-keyboard-response","517","472098","0.0-1.0-708.0-0.0","0","0","83394","","null","","","null","78","","","","","","","","","","","","","","","",""
"","time_out","","html-keyboard-response","518","474109","0.0-1.0-710.0-0.0","0","0","83394","","null","","","null","78","","","","","","","","","","","","","","","",""
"","ITI","","html-keyboard-response","519","475118","0.0-1.0-711.0","0","0","83394","","null","","","null","78","","","","","","","","","","","","","","","NaN",""
"","S1","","html-keyboard-response","520","475381","0.0-1.0-713.0","0","0","83394","","null","","","null","79","","","","","","","","","","","","","","","",""
"","ISI","","html-keyboard-response","521","475542","0.0-1.0-714.0","0","0","83394","","null","","","null","79","NaN","","","","","","","","","","","","","","",""
"","S2","","html-keyboard-response","522","475802","0.0-1.0-715.0","0","0","83394","","null","","","null","79","","NaN","","","","","","","","","","","","","",""
"","response","","html-keyboard-response","523","476283","0.0-1.0-716.0-0.0","0","0","83394","","469","","","75","79","","","2","79","training","adjacent","EF","5","6","M.jpg","P.jpg","0","1","0","",""
"","feedback","","html-keyboard-response","524","477297","0.0-1.0-717.0-0.0","0","0","83394","","null","","","null","79","","","","","","","","","","","","","","","",""
"","time_out","","html-keyboard-response","525","479307","0.0-1.0-719.0-0.0","0","0","83394","","null","","","null","79","","","","","","","","","","","","","","","",""
"","ITI","","html-keyboard-response","526","480318","0.0-1.0-720.0","0","0","83394","","null","","","null","79","","","","","","","","","","","","","","","NaN",""
"","S1","","html-keyboard-response","527","480579","0.0-1.0-722.0","0","0","83394","","null","","","null","80","","","","","","","","","","","","","","","",""
"","ISI","","html-keyboard-response","528","480737","0.0-1.0-723.0","0","0","83394","","null","","","null","80","NaN","","","","","","","","","","","","","","",""
"","S2","","html-keyboard-response","529","481001","0.0-1.0-724.0","0","0","83394","","null","","","null","80","","NaN","","","","","","","","","","","","","",""
"","response","","html-keyboard-response","530","481482","0.0-1.0-725.0-0.0","0","0","83394","","471","","","68","80","","","2","80","training","adjacent","CB","3","2","O.jpg","L.jpg","1","0","0","",""
"","feedback","","html-keyboard-response","531","482494","0.0-1.0-726.0-0.0","0","0","83394","","null","","","null","80","","","","","","","","","","","","","","","",""
"","time_out","","html-keyboard-response","532","484507","0.0-1.0-728.0-0.0","0","0","83394","","null","","","null","80","","","","","","","","","","","","","","","",""
"","ITI","","html-keyboard-response","533","485519","0.0-1.0-729.0","0","0","83394","","null","","","null","80","","","","","","","","","","","","","","","NaN",""
"","S1","","html-keyboard-response","534","485781","0.0-1.0-731.0","0","0","83394","","null","","","null","81","","","","","","","","","","","","","","","",""
"","ISI","","html-keyboard-response","535","485942","0.0-1.0-732.0","0","0","83394","","null","","","null","81","NaN","","","","","","","","","","","","","","",""
"","S2","","html-keyboard-response","536","486205","0.0-1.0-733.0","0","0","83394","","null","","","null","81","","NaN","","","","","","","","","","","","","",""
"","response","","html-keyboard-response","537","486917","0.0-1.0-734.0-0.0","0","0","83394","","704","","","68","81","","","2","81","training","adjacent","AB","1","2","N.jpg","L.jpg","1","1","1","",""
"","feedback","","html-keyboard-response","538","487928","0.0-1.0-735.0-0.0","0","0","83394","","null","","","null","81","","","","","","","","","","","","","","","",""
"","ITI","","html-keyboard-response","539","488942","0.0-1.0-738.0","0","0","83394","","null","","","null","81","","","","","","","","","","","","","","","NaN",""
"","S1","","html-keyboard-response","540","489199","0.0-1.0-740.0","0","0","83394","","null","","","null","82","","","","","","","","","","","","","","","",""
"","ISI","","html-keyboard-response","541","489360","0.0-1.0-741.0","0","0","83394","","null","","","null","82","NaN","","","","","","","","","","","","","","",""
"","S2","","html-keyboard-response","542","489621","0.0-1.0-742.0","0","0","83394","","null","","","null","82","","NaN","","","","","","","","","","","","","",""
"","response","","html-keyboard-response","543","490285","0.0-1.0-743.0-0.0","0","0","83394","","655","","","68","82","","","2","82","training","adjacent","FG","6","7","P.jpg","Q.jpg","1","1","1","",""
"","feedback","","html-keyboard-response","544","491299","0.0-1.0-744.0-0.0","0","0","83394","","null","","","null","82","","","","","","","","","","","","","","","",""
"","ITI","","html-keyboard-response","545","492311","0.0-1.0-747.0","0","0","83394","","null","","","null","82","","","","","","","","","","","","","","","NaN",""
"","S1","","html-keyboard-response","546","492573","0.0-1.0-749.0","0","0","83394","","null","","","null","83","","","","","","","","","","","","","","","",""
"","ISI","","html-keyboard-response","547","492734","0.0-1.0-750.0","0","0","83394","","null","","","null","83","NaN","","","","","","","","","","","","","","",""
"","S2","","html-keyboard-response","548","492994","0.0-1.0-751.0","0","0","83394","","null","","","null","83","","NaN","","","","","","","","","","","","","",""
"","response","","html-keyboard-response","549","493428","0.0-1.0-752.0-0.0","0","0","83394","","422","","","68","83","","","2","83","training","adjacent","GF","7","6","Q.jpg","P.jpg","1","0","0","",""
"","feedback","","html-keyboard-response","550","494440","0.0-1.0-753.0-0.0","0","0","83394","","null","","","null","83","","","","","","","","","","","","","","","",""
"","time_out","","html-keyboard-response","551","496451","0.0-1.0-755.0-0.0","0","0","83394","","null","","","null","83","","","","","","","","","","","","","","","",""
"","ITI","","html-keyboard-response","552","497461","0.0-1.0-756.0","0","0","83394","","null","","","null","83","","","","","","","","","","","","","","","NaN",""
"","S1","","html-keyboard-response","553","497720","0.0-1.0-758.0","0","0","83394","","null","","","null","84","","","","","","","","","","","","","","","",""
"","ISI","","html-keyboard-response","554","497882","0.0-1.0-759.0","0","0","83394","","null","","","null","84","NaN","","","","","","","","","","","","","","",""
"","S2","","html-keyboard-response","555","498142","0.0-1.0-760.0","0","0","83394","","null","","","null","84","","NaN","","","","","","","","","","","","","",""
"","response","","html-keyboard-response","556","498696","0.0-1.0-761.0-0.0","0","0","83394","","545","","","68","84","","","2","84","training","adjacent","FE","6","5","P.jpg","M.jpg","1","0","0","",""
"","feedback","","html-keyboard-response","557","499710","0.0-1.0-762.0-0.0","0","0","83394","","null","","","null","84","","","","","","","","","","","","","","","",""
"","time_out","","html-keyboard-response","558","501723","0.0-1.0-764.0-0.0","0","0","83394","","null","","","null","84","","","","","","","","","","","","","","","",""
"","ITI","","html-keyboard-response","559","502732","0.0-1.0-765.0","0","0","83394","","null","","","null","84","","","","","","","","","","","","","","","NaN",""
"","S1","","html-keyboard-response","560","502994","0.0-1.0-767.0","0","0","83394","","null","","","null","85","","","","","","","","","","","","","","","",""
"","ISI","","html-keyboard-response","561","503150","0.0-1.0-768.0","0","0","83394","","null","","","null","85","NaN","","","","","","","","","","","","","","",""
"","S2","","html-keyboard-response","562","503411","0.0-1.0-769.0","0","0","83394","","null","","","null","85","","NaN","","","","","","","","","","","","","",""
"","response","","html-keyboard-response","563","504053","0.0-1.0-770.0-0.0","0","0","83394","","631","","","75","85","","","2","85","training","adjacent","FE","6","5","P.jpg","M.jpg","0","0","1","",""
"","feedback","","html-keyboard-response","564","505064","0.0-1.0-771.0-0.0","0","0","83394","","null","","","null","85","","","","","","","","","","","","","","","",""
"","ITI","","html-keyboard-response","565","506077","0.0-1.0-774.0","0","0","83394","","null","","","null","85","","","","","","","","","","","","","","","NaN",""
"","S1","","html-keyboard-response","566","506339","0.0-1.0-776.0","0","0","83394","","null","","","null","86","","","","","","","","","","","","","","","",""
"","ISI","","html-keyboard-response","567","506500","0.0-1.0-777.0","0","0","83394","","null","","","null","86","NaN","","","","","","","","","","","","","","",""
"","S2","","html-keyboard-response","568","506760","0.0-1.0-778.0","0","0","83394","","null","","","null","86","","NaN","","","","","","","","","","","","","",""
"","response","","html-keyboard-response","569","507091","0.0-1.0-779.0-0.0","0","0","83394","","321","","","68","86","","","2","86","training","adjacent","ED","5","4","M.jpg","R.jpg","1","0","0","",""
"","feedback","","html-keyboard-response","570","508102","0.0-1.0-780.0-0.0","0","0","83394","","null","","","null","86","","","","","","","","","","","","","","","",""
"","time_out","","html-keyboard-response","571","510116","0.0-1.0-782.0-0.0","0","0","83394","","null","","","null","86","","","","","","","","","","","","","","","",""
"","ITI","","html-keyboard-response","572","511126","0.0-1.0-783.0","0","0","83394","","null","","","null","86","","","","","","","","","","","","","","","NaN",""
"","S1","","html-keyboard-response","573","511388","0.0-1.0-785.0","0","0","83394","","null","","","null","87","","","","","","","","","","","","","","","",""
"","ISI","","html-keyboard-response","574","511550","0.0-1.0-786.0","0","0","83394","","null","","","null","87","NaN","","","","","","","","","","","","","","",""
"","S2","","html-keyboard-response","575","511812","0.0-1.0-787.0","0","0","83394","","null","","","null","87","","NaN","","","","","","","","","","","","","",""
"","response","","html-keyboard-response","576","512578","0.0-1.0-788.0-0.0","0","0","83394","","756","","","75","87","","","2","87","training","adjacent","BA","2","1","L.jpg","N.jpg","0","0","1","",""
"","feedback","","html-keyboard-response","577","513592","0.0-1.0-789.0-0.0","0","0","83394","","null","","","null","87","","","","","","","","","","","","","","","",""
"","ITI","","html-keyboard-response","578","514602","0.0-1.0-792.0","0","0","83394","","null","","","null","87","","","","","","","","","","","","","","","NaN",""
"","S1","","html-keyboard-response","579","514863","0.0-1.0-794.0","0","0","83394","","null","","","null","88","","","","","","","","","","","","","","","",""
"","ISI","","html-keyboard-response","580","515023","0.0-1.0-795.0","0","0","83394","","null","","","null","88","NaN","","","","","","","","","","","","","","",""
"","S2","","html-keyboard-response","581","515285","0.0-1.0-796.0","0","0","83394","","null","","","null","88","","NaN","","","","","","","","","","","","","",""
"","response","","html-keyboard-response","582","515983","0.0-1.0-797.0-0.0","0","0","83394","","688","","","68","88","","","2","88","training","adjacent","AB","1","2","N.jpg","L.jpg","1","1","1","",""
