"success","ttype","start_time","trial_type","trial_index","time_elapsed","internal_node_id","warning","missed_checkup","PID","view_history","rt","responses","repeat_instructions","key_press","index","keypress_isi","keypress_S2","block","trial_num","phase","group_type","pair_type","S1_stim","S2_stim","S1_img","S2_img","S1_chosen","S1_higher","accuracy","keypress_iti","total_bonus_tally"
"true","full_screen","d08052022hr1610","fullscreen","0","14139","0.0-0.0","0","0","37444","","","","","","","","","","","","","","","","","","","","","",""
"","instructions","","instructions","1","48323","0.0-1.0-0.0-0.0","0","0","37444","[{""page_index"":0,""viewing_time"":4404},{""page_index"":1,""viewing_time"":18077},{""page_index"":2,""viewing_time"":9740},{""page_index"":3,""viewing_time"":1958}]","34179","","","","","","","","","","","","","","","","","","","",""
"","comprehension_check","","survey-multi-choice","2","69229","0.0-1.0-0.0-1.0","0","0","37444","","20901","{""Q0"":""True"",""Q1"":""D"",""Q2"":""Only when the screen 'MAKE A CHOICE' is shown"",""Q3"":""Green mark"",""Q4"":""either D or K""}","1","","","","","","","","","","","","","","","","","",""
"","missed_instruction_checkup","","html-keyboard-response","3","71296","0.0-1.0-0.0-2.0-0.0","0","1","37444","","2064","","","32","","","","","","","","","","","","","","","","",""
"","instructions","","instructions","4","88405","0.0-1.0-0.1-0.1","0","0","37444","[{""page_index"":0,""viewing_time"":2591},{""page_index"":1,""viewing_time"":11122},{""page_index"":2,""viewing_time"":2339},{""page_index"":3,""viewing_time"":1055}]","17107","","","","","","","","","","","","","","","","","","","",""
"","comprehension_check","","survey-multi-choice","5","112352","0.0-1.0-0.1-1.1","0","0","37444","","23943","{""Q0"":""True"",""Q1"":""D"",""Q2"":""Once the second image appears and while the screen 'MAKE A CHOICE' is shown"",""Q3"":""Green mark"",""Q4"":""either D or K""}","0","","","","","","","","","","","","","","","","","",""
"","start_exp","","html-keyboard-response","6","114465","0.0-1.0-1.0","0","0","37444","","2111","","","32","","","","","","","","","","","","","","","","",""
"","S1","","html-keyboard-response","7","114722","0.0-1.0-2.0","0","0","37444","","null","","","null","0","","","","","","","","","","","","","","","",""
"","ISI","","html-keyboard-response","8","116734","0.0-1.0-3.0","0","0","37444","","null","","","null","0","NaN","","","","","","","","","","","","","","",""
"","S2","","html-keyboard-response","9","116998","0.0-1.0-4.0","0","0","37444","","null","","","null","0","","NaN","","","","","","","","","","","","","",""
"","response","","html-keyboard-response","10","117960","0.0-1.0-5.0-0.0","0","0","37444","","958","","","75","0","","","1","0","training","adjacent","AB","1","2","N.jpg","L.jpg","0","1","0","",""
"","feedback","","html-keyboard-response","11","118965","0.0-1.0-6.0-0.0","0","0","37444","","null","","","null","0","","","","","","","","","","","","","","","",""
"","time_out","","html-keyboard-response","12","120975","0.0-1.0-8.0-0.0","0","0","37444","","null","","","null","0","","","","","","","","","","","","","","","",""
"","ITI","","html-keyboard-response","13","121984","0.0-1.0-9.0","0","0","37444","","null","","","null","0","","","","","","","","","","","","","","","NaN",""
"","S1","","html-keyboard-response","14","122248","0.0-1.0-11.0","0","0","37444","","null","","","null","1","","","","","","","","","","","","","","","",""
"","ISI","","html-keyboard-response","15","124261","0.0-1.0-12.0","0","0","37444","","null","","","null","1","NaN","","","","","","","","","","","","","","",""
"","S2","","html-keyboard-response","16","124526","0.0-1.0-13.0","0","0","37444","","null","","","null","1","","NaN","","","","","","","","","","","","","",""
"","response","","html-keyboard-response","17","124937","0.0-1.0-14.0-0.0","0","0","37444","","407","","","68","1","","","1","1","training","adjacent","DC","4","3","P.jpg","M.jpg","1","0","0","",""
"","feedback","","html-keyboard-response","18","125949","0.0-1.0-15.0-0.0","0","0","37444","","null","","","null","1","","","","","","","","","","","","","","","",""
"","time_out","","html-keyboard-response","19","127962","0.0-1.0-17.0-0.0","0","0","37444","","null","","","null","1","","","","","","","","","","","","","","","",""
"","ITI","","html-keyboard-response","20","128967","0.0-1.0-18.0","0","0","37444","","null","","","null","1","","","","","","","","","","","","","","","NaN",""
"","S1","","html-keyboard-response","21","129230","0.0-1.0-20.0","0","0","37444","","null","","","null","2","","","","","","","","","","","","","","","",""
"","ISI","","html-keyboard-response","22","131242","0.0-1.0-21.0","0","0","37444","","null","","","null","2","NaN","","","","","","","","","","","","","","",""
"","S2","","html-keyboard-response","23","131504","0.0-1.0-22.0","0","0","37444","","null","","","null","2","","NaN","","","","","","","","","","","","","",""
"","response","","html-keyboard-response","24","131974","0.0-1.0-23.0-0.0","0","0","37444","","465","","","68","2","","","1","2","training","adjacent","DE","4","5","P.jpg","R.jpg","1","1","1","",""
"","feedback","","html-keyboard-response","25","132979","0.0-1.0-24.0-0.0","0","0","37444","","null","","","null","2","","","","","","","","","","","","","","","",""
"","ITI","","html-keyboard-response","26","133998","0.0-1.0-27.0","0","0","37444","","null","","","null","2","","","","","","","","","","","","","","","NaN",""
"","S1","","html-keyboard-response","27","134259","0.0-1.0-29.0","0","0","37444","","null","","","null","3","","","","","","","","","","","","","","","",""
"","ISI","","html-keyboard-response","28","136270","0.0-1.0-30.0","0","0","37444","","null","","","null","3","NaN","","","","","","","","","","","","","","",""
"","S2","","html-keyboard-response","29","136532","0.0-1.0-31.0","0","0","37444","","null","","","null","3","","NaN","","","","","","","","","","","","","",""
"","response","","html-keyboard-response","30","136958","0.0-1.0-32.0-0.0","0","0","37444","","424","","","75","3","","","1","3","training","adjacent","AB","1","2","N.jpg","L.jpg","0","1","0","",""
"","feedback","","html-keyboard-response","31","137972","0.0-1.0-33.0-0.0","0","0","37444","","null","","","null","3","","","","","","","","","","","","","","","",""
"","time_out","","html-keyboard-response","32","139985","0.0-1.0-35.0-0.0","0","0","37444","","null","","","null","3","","","","","","","","","","","","","","","",""
"","ITI","","html-keyboard-response","33","140990","0.0-1.0-36.0","0","0","37444","","null","","","null","3","","","","","","","","","","","","","","","NaN",""
"","S1","","html-keyboard-response","34","141253","0.0-1.0-38.0","0","0","37444","","null","","","null","4","","","","","","","","","","","","","","","",""
"","ISI","","html-keyboard-response","35","143265","0.0-1.0-39.0","0","0","37444","","null","","","null","4","NaN","","","","","","","","","","","","","","",""
"","S2","","html-keyboard-response","36","143528","0.0-1.0-40.0","0","0","37444","","null","","","null","4","","NaN","","","","","","","","","","","","","",""
"","response","","html-keyboard-response","37","143798","0.0-1.0-41.0-0.0","0","0","37444","","266","","","75","4","","","1","4","training","adjacent","DC","4","3","P.jpg","M.jpg","0","0","1","",""
"","feedback","","html-keyboard-response","38","144811","0.0-1.0-42.0-0.0","0","0","37444","","null","","","null","4","","","","","","","","","","","","","","","",""
"","ITI","","html-keyboard-response","39","145816","0.0-1.0-45.0","0","0","37444","","null","","","null","4","","","","","","","","","","","","","","","NaN",""
"","S1","","html-keyboard-response","40","146079","0.0-1.0-47.0","0","0","37444","","null","","","null","5","","","","","","","","","","","","","","","",""
"","ISI","","html-keyboard-response","41","148094","0.0-1.0-48.0","0","0","37444","","null","","","null","5","NaN","","","","","","","","","","","","","","",""
"","S2","","html-keyboard-response","42","148356","0.0-1.0-49.0","0","0","37444","","null","","","null","5","","NaN","","","","","","","","","","","","","",""
"","response","","html-keyboard-response","43","148955","0.0-1.0-50.0-0.0","0","0","37444","","595","","","68","5","","","1","5","training","adjacent","FG","6","7","O.jpg","Q.jpg","1","1","1","",""
"","feedback","","html-keyboard-response","44","149965","0.0-1.0-51.0-0.0","0","0","37444","","null","","","null","5","","","","","","","","","","","","","","","",""
"","ITI","","html-keyboard-response","45","150969","0.0-1.0-54.0","0","0","37444","","null","","","null","5","","","","","","","","","","","","","","","NaN",""
"","S1","","html-keyboard-response","46","151233","0.0-1.0-56.0","0","0","37444","","null","","","null","6","","","","","","","","","","","","","","","",""
"","ISI","","html-keyboard-response","47","153242","0.0-1.0-57.0","0","0","37444","","null","","","null","6","NaN","","","","","","","","","","","","","","",""
"","S2","","html-keyboard-response","48","153507","0.0-1.0-58.0","0","0","37444","","null","","","null","6","","NaN","","","","","","","","","","","","","",""
"","response","","html-keyboard-response","49","153829","0.0-1.0-59.0-0.0","0","0","37444","","318","","","75","6","","","1","6","training","adjacent","DC","4","3","P.jpg","M.jpg","0","0","1","",""
"","feedback","","html-keyboard-response","50","154838","0.0-1.0-60.0-0.0","0","0","37444","","null","","","null","6","","","","","","","","","","","","","","","",""
"","ITI","","html-keyboard-response","51","155847","0.0-1.0-63.0","0","0","37444","","null","","","null","6","","","","","","","","","","","","","","","NaN",""
"","S1","","html-keyboard-response","52","156110","0.0-1.0-65.0","0","0","37444","","null","","","null","7","","","","","","","","","","","","","","","",""
"","ISI","","html-keyboard-response","53","158123","0.0-1.0-66.0","0","0","37444","","null","","","null","7","NaN","","","","","","","","","","","","","","",""
"","S2","","html-keyboard-response","54","158385","0.0-1.0-67.0","0","0","37444","","null","","","null","7","","NaN","","","","","","","","","","","","","",""
"","response","","html-keyboard-response","55","159104","0.0-1.0-68.0-0.0","0","0","37444","","716","","","68","7","","","1","7","training","adjacent","BC","2","3","L.jpg","M.jpg","1","1","1","",""
"","feedback","","html-keyboard-response","56","160119","0.0-1.0-69.0-0.0","0","0","37444","","null","","","null","7","","","","","","","","","","","","","","","",""
"","ITI","","html-keyboard-response","57","161125","0.0-1.0-72.0","0","0","37444","","null","","","null","7","","","","","","","","","","","","","","","NaN",""
"","S1","","html-keyboard-response","58","161388","0.0-1.0-74.0","0","0","37444","","null","","","null","8","","","","","","","","","","","","","","","",""
"","ISI","","html-keyboard-response","59","163400","0.0-1.0-75.0","0","0","37444","","null","","","null","8","NaN","","","","","","","","","","","","","","",""
"","S2","","html-keyboard-response","60","163663","0.0-1.0-76.0","0","0","37444","","null","","","null","8","","NaN","","","","","","","","","","","","","",""
"","response","","html-keyboard-response","61","164341","0.0-1.0-77.0-0.0","0","0","37444","","672","","","68","8","","","1","8","training","adjacent","CD","3","4","M.jpg","P.jpg","1","1","1","",""
"","feedback","","html-keyboard-response","62","165348","0.0-1.0-78.0-0.0","0","0","37444","","null","","","null","8","","","","","","","","","","","","","","","",""
"","ITI","","html-keyboard-response","63","166357","0.0-1.0-81.0","0","0","37444","","null","","","null","8","","","","","","","","","","","","","","","NaN",""
"","S1","","html-keyboard-response","64","166620","0.0-1.0-83.0","0","0","37444","","null","","","null","9","","","","","","","","","","","","","","","",""
"","ISI","","html-keyboard-response","65","168632","0.0-1.0-84.0","0","0","37444","","null","","","null","9","NaN","","","","","","","","","","","","","","",""
"","S2","","html-keyboard-response","66","168896","0.0-1.0-85.0","0","0","37444","","null","","","null","9","","NaN","","","","","","","","","","","","","",""
"","response","","html-keyboard-response","67","169438","0.0-1.0-86.0-0.0","0","0","37444","","538","","","68","9","","","1","9","training","adjacent","DE","4","5","P.jpg","R.jpg","1","1","1","",""
"","feedback","","html-keyboard-response","68","170456","0.0-1.0-87.0-0.0","0","0","37444","","null","","","null","9","","","","","","","","","","","","","","","",""
"","ITI","","html-keyboard-response","69","171464","0.0-1.0-90.0","0","0","37444","","null","","","null","9","","","","","","","","","","","","","","","NaN",""
"","S1","","html-keyboard-response","70","171728","0.0-1.0-92.0","0","0","37444","","null","","","null","10","","","","","","","","","","","","","","","",""
"","ISI","","html-keyboard-response","71","173742","0.0-1.0-93.0","0","0","37444","","null","","","null","10","NaN","","","","","","","","","","","","","","",""
"","S2","","html-keyboard-response","72","174005","0.0-1.0-94.0","0","0","37444","","null","","","null","10","","NaN","","","","","","","","","","","","","",""
"","response","","html-keyboard-response","73","174858","0.0-1.0-95.0-0.0","0","0","37444","","849","","","68","10","","","1","10","training","adjacent","DE","4","5","P.jpg","R.jpg","1","1","1","",""
"","feedback","","html-keyboard-response","74","175864","0.0-1.0-96.0-0.0","0","0","37444","","null","","","null","10","","","","","","","","","","","","","","","",""
"","ITI","","html-keyboard-response","75","176867","0.0-1.0-99.0","0","0","37444","","null","","","null","10","","","","","","","","","","","","","","","NaN",""
"","S1","","html-keyboard-response","76","177130","0.0-1.0-101.0","0","0","37444","","null","","","null","11","","","","","","","","","","","","","","","",""
"","ISI","","html-keyboard-response","77","179140","0.0-1.0-102.0","0","0","37444","","null","","","null","11","NaN","","","","","","","","","","","","","","",""
"","S2","","html-keyboard-response","78","179404","0.0-1.0-103.0","0","0","37444","","null","","","null","11","","NaN","","","","","","","","","","","","","",""
"","response","","html-keyboard-response","79","179833","0.0-1.0-104.0-0.0","0","0","37444","","426","","","68","11","","","1","11","training","adjacent","CD","3","4","M.jpg","P.jpg","1","1","1","",""
"","feedback","","html-keyboard-response","80","180841","0.0-1.0-105.0-0.0","0","0","37444","","null","","","null","11","","","","","","","","","","","","","","","",""
"","ITI","","html-keyboard-response","81","181848","0.0-1.0-108.0","0","0","37444","","null","","","null","11","","","","","","","","","","","","","","","NaN",""
"","S1","","html-keyboard-response","82","182110","0.0-1.0-110.0","0","0","37444","","null","","","null","12","","","","","","","","","","","","","","","",""
"","ISI","","html-keyboard-response","83","184120","0.0-1.0-111.0","0","0","37444","","null","","","null","12","NaN","","","","","","","","","","","","","","",""
"","S2","","html-keyboard-response","84","184386","0.0-1.0-112.0","0","0","37444","","null","","","null","12","","NaN","","","","","","","","","","","","","",""
"","response","","html-keyboard-response","85","184721","0.0-1.0-113.0-0.0","0","0","37444","","331","","","75","12","","","1","12","training","adjacent","EF","5","6","R.jpg","O.jpg","0","1","0","",""
"","feedback","","html-keyboard-response","86","185730","0.0-1.0-114.0-0.0","0","0","37444","","null","","","null","12","","","","","","","","","","","","","","","",""
"","time_out","","html-keyboard-response","87","187741","0.0-1.0-116.0-0.0","0","0","37444","","null","","","null","12","","","","","","","","","","","","","","","",""
"","ITI","","html-keyboard-response","88","188748","0.0-1.0-117.0","0","0","37444","","null","","","null","12","","","","","","","","","","","","","","","NaN",""
"","S1","","html-keyboard-response","89","189010","0.0-1.0-119.0","0","0","37444","","null","","","null","13","","","","","","","","","","","","","","","",""
"","ISI","","html-keyboard-response","90","191020","0.0-1.0-120.0","0","0","37444","","null","","","null","13","NaN","","","","","","","","","","","","","","",""
"","S2","","html-keyboard-response","91","191284","0.0-1.0-121.0","0","0","37444","","null","","","null","13","","NaN","","","","","","","","","","","","","",""
"","response","","html-keyboard-response","92","191630","0.0-1.0-122.0-0.0","0","0","37444","","341","","","68","13","","","1","13","training","adjacent","GF","7","6","Q.jpg","O.jpg","1","0","0","",""
"","feedback","","html-keyboard-response","93","192648","0.0-1.0-123.0-0.0","0","0","37444","","null","","","null","13","","","","","","","","","","","","","","","",""
"","time_out","","html-keyboard-response","94","194657","0.0-1.0-125.0-0.0","0","0","37444","","null","","","null","13","","","","","","","","","","","","","","","",""
"","ITI","","html-keyboard-response","95","195663","0.0-1.0-126.0","0","0","37444","","null","","","null","13","","","","","","","","","","","","","","","NaN",""
"","S1","","html-keyboard-response","96","195927","0.0-1.0-128.0","0","0","37444","","null","","","null","14","","","","","","","","","","","","","","","",""
"","ISI","","html-keyboard-response","97","197944","0.0-1.0-129.0","0","0","37444","","null","","","null","14","NaN","","","","","","","","","","","","","","",""
"","S2","","html-keyboard-response","98","198197","0.0-1.0-130.0","0","0","37444","","null","","","null","14","","NaN","","","","","","","","","","","","","",""
"","response","","html-keyboard-response","99","199181","0.0-1.0-131.0-0.0","0","0","37444","","980","","","75","14","","","1","14","training","adjacent","ED","5","4","R.jpg","P.jpg","0","0","1","",""
"","feedback","","html-keyboard-response","100","200194","0.0-1.0-132.0-0.0","0","0","37444","","null","","","null","14","","","","","","","","","","","","","","","",""
"","ITI","","html-keyboard-response","101","201202","0.0-1.0-135.0","0","0","37444","","null","","","null","14","","","","","","","","","","","","","","","NaN",""
"","S1","","html-keyboard-response","102","201463","0.0-1.0-137.0","0","0","37444","","null","","","null","15","","","","","","","","","","","","","","","",""
"","ISI","","html-keyboard-response","103","203478","0.0-1.0-138.0","0","0","37444","","null","","","null","15","NaN","","","","","","","","","","","","","","",""
"","S2","","html-keyboard-response","104","203743","0.0-1.0-139.0","0","0","37444","","null","","","null","15","","NaN","","","","","","","","","","","","","",""
"","response","","html-keyboard-response","105","204432","0.0-1.0-140.0-0.0","0","0","37444","","686","","","75","15","","","1","15","training","adjacent","GF","7","6","Q.jpg","O.jpg","0","0","1","",""
"","feedback","","html-keyboard-response","106","205447","0.0-1.0-141.0-0.0","0","0","37444","","null","","","null","15","","","","","","","","","","","","","","","",""
"","ITI","","html-keyboard-response","107","206453","0.0-1.0-144.0","0","0","37444","","null","","","null","15","","","","","","","","","","","","","","","NaN",""
"","S1","","html-keyboard-response","108","206716","0.0-1.0-146.0","0","0","37444","","null","","","null","16","","","","","","","","","","","","","","","",""
"","ISI","","html-keyboard-response","109","208727","0.0-1.0-147.0","0","0","37444","","null","","","null","16","NaN","","","","","","","","","","","","","","",""
"","S2","","html-keyboard-response","110","208991","0.0-1.0-148.0","0","0","37444","","null","","","null","16","","NaN","","","","","","","","","","","","","",""
"","response","","html-keyboard-response","111","209523","0.0-1.0-149.0-0.0","0","0","37444","","529","","","68","16","","","1","16","training","adjacent","CD","3","4","M.jpg","P.jpg","1","1","1","",""
"","feedback","","html-keyboard-response","112","210533","0.0-1.0-150.0-0.0","0","0","37444","","null","","","null","16","","","","","","","","","","","","","","","",""
"","ITI","","html-keyboard-response","113","211542","0.0-1.0-153.0","0","0","37444","","null","","","null","16","","","","","","","","","","","","","","","NaN",""
"","S1","","html-keyboard-response","114","211805","0.0-1.0-155.0","0","0","37444","","null","","","null","17","","","","","","","","","","","","","","","",""
"","ISI","","html-keyboard-response","115","213813","0.0-1.0-156.0","0","0","37444","","null","","","null","17","NaN","","","","","","","","","","","","","","",""
"","S2","","html-keyboard-response","116","214076","0.0-1.0-157.0","0","0","37444","","null","","","null","17","","NaN","","","","","","","","","","","","","",""
"","response","","html-keyboard-response","117","214662","0.0-1.0-158.0-0.0","0","0","37444","","581","","","75","17","","","1","17","training","adjacent","CB","3","2","M.jpg","L.jpg","0","0","1","",""
"","feedback","","html-keyboard-response","118","215674","0.0-1.0-159.0-0.0","0","0","37444","","null","","","null","17","","","","","","","","","","","","","","","",""
"","ITI","","html-keyboard-response","119","216679","0.0-1.0-162.0","0","0","37444","","null","","","null","17","","","","","","","","","","","","","","","NaN",""
"","S1","","html-keyboard-response","120","216942","0.0-1.0-164.0","0","0","37444","","null","","","null","18","","","","","","","","","","","","","","","",""
"","ISI","","html-keyboard-response","121","218953","0.0-1.0-165.0","0","0","37444","","null","","","null","18","NaN","","","","","","","","","","","","","","",""
"","S2","","html-keyboard-response","122","219216","0.0-1.0-166.0","0","0","37444","","null","","","null","18","","NaN","","","","","","","","","","","","","",""
"","response","","html-keyboard-response","123","219717","0.0-1.0-167.0-0.0","0","0","37444","","496","","","75","18","","","1","18","training","adjacent","BC","2","3","L.jpg","M.jpg","0","1","0","",""
"","feedback","","html-keyboard-response","124","220736","0.0-1.0-168.0-0.0","0","0","37444","","null","","","null","18","","","","","","","","","","","","","","","",""
"","time_out","","html-keyboard-response","125","222748","0.0-1.0-170.0-0.0","0","0","37444","","null","","","null","18","","","","","","","","","","","","","","","",""
"","ITI","","html-keyboard-response","126","223752","0.0-1.0-171.0","0","0","37444","","null","","","null","18","","","","","","","","","","","","","","","NaN",""
"","S1","","html-keyboard-response","127","224014","0.0-1.0-173.0","0","0","37444","","null","","","null","19","","","","","","","","","","","","","","","",""
"","ISI","","html-keyboard-response","128","226024","0.0-1.0-174.0","0","0","37444","","null","","","null","19","NaN","","","","","","","","","","","","","","",""
"","S2","","html-keyboard-response","129","226287","0.0-1.0-175.0","0","0","37444","","null","","","null","19","","NaN","","","","","","","","","","","","","",""
"","response","","html-keyboard-response","130","226865","0.0-1.0-176.0-0.0","0","0","37444","","572","","","75","19","","","1","19","training","adjacent","EF","5","6","R.jpg","O.jpg","0","1","0","",""
"","feedback","","html-keyboard-response","131","227869","0.0-1.0-177.0-0.0","0","0","37444","","null","","","null","19","","","","","","","","","","","","","","","",""
"","time_out","","html-keyboard-response","132","229881","0.0-1.0-179.0-0.0","0","0","37444","","null","","","null","19","","","","","","","","","","","","","","","",""
"","ITI","","html-keyboard-response","133","230886","0.0-1.0-180.0","0","0","37444","","null","","","null","19","","","","","","","","","","","","","","","NaN",""
"","S1","","html-keyboard-response","134","231148","0.0-1.0-182.0","0","0","37444","","null","","","null","20","","","","","","","","","","","","","","","",""
"","ISI","","html-keyboard-response","135","233162","0.0-1.0-183.0","0","0","37444","","null","","","null","20","NaN","","","","","","","","","","","","","","",""
"","S2","","html-keyboard-response","136","233424","0.0-1.0-184.0","0","0","37444","","null","","","null","20","","NaN","","","","","","","","","","","","","",""
"","response","","html-keyboard-response","137","234206","0.0-1.0-185.0-0.0","0","0","37444","","779","","","68","20","","","1","20","training","adjacent","FE","6","5","O.jpg","R.jpg","1","0","0","",""
"","feedback","","html-keyboard-response","138","235220","0.0-1.0-186.0-0.0","0","0","37444","","null","","","null","20","","","","","","","","","","","","","","","",""
"","time_out","","html-keyboard-response","139","237234","0.0-1.0-188.0-0.0","0","0","37444","","null","","","null","20","","","","","","","","","","","","","","","",""
"","ITI","","html-keyboard-response","140","238242","0.0-1.0-189.0","0","0","37444","","null","","","null","20","","","","","","","","","","","","","","","NaN",""
"","S1","","html-keyboard-response","141","238505","0.0-1.0-191.0","0","0","37444","","null","","","null","21","","","","","","","","","","","","","","","",""
"","ISI","","html-keyboard-response","142","240512","0.0-1.0-192.0","0","0","37444","","null","","","null","21","NaN","","","","","","","","","","","","","","",""
"","S2","","html-keyboard-response","143","240773","0.0-1.0-193.0","0","0","37444","","null","","","null","21","","NaN","","","","","","","","","","","","","",""
"","response","","html-keyboard-response","144","241145","0.0-1.0-194.0-0.0","0","0","37444","","369","","","68","21","","","1","21","training","adjacent","BA","2","1","L.jpg","N.jpg","1","0","0","",""
"","feedback","","html-keyboard-response","145","242152","0.0-1.0-195.0-0.0","0","0","37444","","null","","","null","21","","","","","","","","","","","","","","","",""
"","time_out","","html-keyboard-response","146","244163","0.0-1.0-197.0-0.0","0","0","37444","","null","","","null","21","","","","","","","","","","","","","","","",""
"","ITI","","html-keyboard-response","147","245168","0.0-1.0-198.0","0","0","37444","","null","","","null","21","","","","","","","","","","","","","","","NaN",""
"","S1","","html-keyboard-response","148","245431","0.0-1.0-200.0","0","0","37444","","null","","","null","22","","","","","","","","","","","","","","","",""
"","ISI","","html-keyboard-response","149","247448","0.0-1.0-201.0","0","0","37444","","null","","","null","22","NaN","","","","","","","","","","","","","","",""
"","S2","","html-keyboard-response","150","247710","0.0-1.0-202.0","0","0","37444","","null","","","null","22","","NaN","","","","","","","","","","","","","",""
"","response","","html-keyboard-response","151","248797","0.0-1.0-203.0-0.0","0","0","37444","","1083","","","68","22","","","1","22","training","adjacent","ED","5","4","R.jpg","P.jpg","1","0","0","",""
"","feedback","","html-keyboard-response","152","249811","0.0-1.0-204.0-0.0","0","0","37444","","null","","","null","22","","","","","","","","","","","","","","","",""
"","time_out","","html-keyboard-response","153","251823","0.0-1.0-206.0-0.0","0","0","37444","","null","","","null","22","","","","","","","","","","","","","","","",""
"","ITI","","html-keyboard-response","154","252829","0.0-1.0-207.0","0","0","37444","","null","","","null","22","","","","","","","","","","","","","","","NaN",""
"","S1","","html-keyboard-response","155","253092","0.0-1.0-209.0","0","0","37444","","null","","","null","23","","","","","","","","","","","","","","","",""
"","ISI","","html-keyboard-response","156","255100","0.0-1.0-210.0","0","0","37444","","null","","","null","23","NaN","","","","","","","","","","","","","","",""
"","S2","","html-keyboard-response","157","255363","0.0-1.0-211.0","0","0","37444","","null","","","null","23","","NaN","","","","","","","","","","","","","",""
"","response","","html-keyboard-response","158","255975","0.0-1.0-212.0-0.0","0","0","37444","","612","","","75","23","","","1","23","training","adjacent","EF","5","6","R.jpg","O.jpg","0","1","0","",""
"","feedback","","html-keyboard-response","159","256985","0.0-1.0-213.0-0.0","0","0","37444","","null","","","null","23","","","","","","","","","","","","","","","",""
"","time_out","","html-keyboard-response","160","258997","0.0-1.0-215.0-0.0","0","0","37444","","null","","","null","23","","","","","","","","","","","","","","","",""
"","ITI","","html-keyboard-response","161","260003","0.0-1.0-216.0","0","0","37444","","null","","","null","23","","","","","","","","","","","","","","","NaN",""
"","S1","","html-keyboard-response","162","260265","0.0-1.0-218.0","0","0","37444","","null","","","null","24","","","","","","","","","","","","","","","",""
"","ISI","","html-keyboard-response","163","262278","0.0-1.0-219.0","0","0","37444","","null","","","null","24","NaN","","","","","","","","","","","","","","",""
"","S2","","html-keyboard-response","164","262541","0.0-1.0-220.0","0","0","37444","","null","","","null","24","","NaN","","","","","","","","","","","","","",""
"","response","","html-keyboard-response","165","263124","0.0-1.0-221.0-0.0","0","0","37444","","580","","","75","24","","","1","24","training","adjacent","AB","1","2","N.jpg","L.jpg","0","1","0","",""
"","feedback","","html-keyboard-response","166","264136","0.0-1.0-222.0-0.0","0","0","37444","","null","","","null","24","","","","","","","","","","","","","","","",""
"","time_out","","html-keyboard-response","167","266144","0.0-1.0-224.0-0.0","0","0","37444","","null","","","null","24","","","","","","","","","","","","","","","",""
"","ITI","","html-keyboard-response","168","267148","0.0-1.0-225.0","0","0","37444","","null","","","null","24","","","","","","","","","","","","","","","NaN",""
"","S1","","html-keyboard-response","169","267412","0.0-1.0-227.0","0","0","37444","","null","","","null","25","","","","","","","","","","","","","","","",""
"","ISI","","html-keyboard-response","170","269425","0.0-1.0-228.0","0","0","37444","","null","","","null","25","NaN","","","","","","","","","","","","","","",""
"","S2","","html-keyboard-response","171","269687","0.0-1.0-229.0","0","0","37444","","null","","","null","25","","NaN","","","","","","","","","","","","","",""
"","response","","html-keyboard-response","172","270433","0.0-1.0-230.0-0.0","0","0","37444","","743","","","75","25","","","1","25","training","adjacent","CB","3","2","M.jpg","L.jpg","0","0","1","",""
"","feedback","","html-keyboard-response","173","271435","0.0-1.0-231.0-0.0","0","0","37444","","null","","","null","25","","","","","","","","","","","","","","","",""
"","ITI","","html-keyboard-response","174","272444","0.0-1.0-234.0","0","0","37444","","null","","","null","25","","","","","","","","","","","","","","","NaN",""
"","S1","","html-keyboard-response","175","272704","0.0-1.0-236.0","0","0","37444","","null","","","null","26","","","","","","","","","","","","","","","",""
"","ISI","","html-keyboard-response","176","274715","0.0-1.0-237.0","0","0","37444","","null","","","null","26","NaN","","","","","","","","","","","","","","",""
"","S2","","html-keyboard-response","177","274978","0.0-1.0-238.0","0","0","37444","","null","","","null","26","","NaN","","","","","","","","","","","","","",""
"","response","","html-keyboard-response","178","275487","0.0-1.0-239.0-0.0","0","0","37444","","505","","","75","26","","","1","26","training","adjacent","CB","3","2","M.jpg","L.jpg","0","0","1","",""
"","feedback","","html-keyboard-response","179","276491","0.0-1.0-240.0-0.0","0","0","37444","","null","","","null","26","","","","","","","","","","","","","","","",""
"","ITI","","html-keyboard-response","180","277500","0.0-1.0-243.0","0","0","37444","","null","","","null","26","","","","","","","","","","","","","","","NaN",""
"","S1","","html-keyboard-response","181","277764","0.0-1.0-245.0","0","0","37444","","null","","","null","27","","","","","","","","","","","","","","","",""
"","ISI","","html-keyboard-response","182","279774","0.0-1.0-246.0","0","0","37444","","null","","","null","27","NaN","","","","","","","","","","","","","","",""
"","S2","","html-keyboard-response","183","280036","0.0-1.0-247.0","0","0","37444","","null","","","null","27","","NaN","","","","","","","","","","","","","",""
"","response","","html-keyboard-response","184","281038","0.0-1.0-248.0-0.0","0","0","37444","","1001","","","75","27","","","1","27","training","adjacent","DC","4","3","P.jpg","M.jpg","0","0","1","",""
"","feedback","","html-keyboard-response","185","282047","0.0-1.0-249.0-0.0","0","0","37444","","null","","","null","27","","","","","","","","","","","","","","","",""
"","ITI","","html-keyboard-response","186","283056","0.0-1.0-252.0","0","0","37444","","null","","","null","27","","","","","","","","","","","","","","","NaN",""
"","S1","","html-keyboard-response","187","283321","0.0-1.0-254.0","0","0","37444","","null","","","null","28","","","","","","","","","","","","","","","",""
"","ISI","","html-keyboard-response","188","285329","0.0-1.0-255.0","0","0","37444","","null","","","null","28","NaN","","","","","","","","","","","","","","",""
"","S2","","html-keyboard-response","189","285594","0.0-1.0-256.0","0","0","37444","","null","","","null","28","","NaN","","","","","","","","","","","","","",""
"","response","","html-keyboard-response","190","286810","0.0-1.0-257.0-0.0","0","0","37444","","1213","","","75","28","","","1","28","training","adjacent","EF","5","6","R.jpg","O.jpg","0","1","0","",""
"","feedback","","html-keyboard-response","191","287821","0.0-1.0-258.0-0.0","0","0","37444","","null","","","null","28","","","","","","","","","","","","","","","",""
"","time_out","","html-keyboard-response","192","289836","0.0-1.0-260.0-0.0","0","0","37444","","null","","","null","28","","","","","","","","","","","","","","","",""
"","ITI","","html-keyboard-response","193","290855","0.0-1.0-261.0","0","0","37444","","null","","","null","28","","","","","","","","","","","","","","","NaN",""
"","S1","","html-keyboard-response","194","291120","0.0-1.0-263.0","0","0","37444","","null","","","null","29","","","","","","","","","","","","","","","",""
"","ISI","","html-keyboard-response","195","293136","0.0-1.0-264.0","0","0","37444","","null","","","null","29","NaN","","","","","","","","","","","","","","",""
"","S2","","html-keyboard-response","196","293398","0.0-1.0-265.0","0","0","37444","","null","","","null","29","","NaN","","","","","","","","","","","","","",""
"","response","","html-keyboard-response","197","293826","0.0-1.0-266.0-0.0","0","0","37444","","423","","","68","29","","","1","29","training","adjacent","FG","6","7","O.jpg","Q.jpg","1","1","1","",""
"","feedback","","html-keyboard-response","198","294837","0.0-1.0-267.0-0.0","0","0","37444","","null","","","null","29","","","","","","","","","","","","","","","",""
"","ITI","","html-keyboard-response","199","295843","0.0-1.0-270.0","0","0","37444","","null","","","null","29","","","","","","","","","","","","","","","NaN",""
"","S1","","html-keyboard-response","200","296105","0.0-1.0-272.0","0","0","37444","","null","","","null","30","","","","","","","","","","","","","","","",""
"","ISI","","html-keyboard-response","201","298114","0.0-1.0-273.0","0","0","37444","","null","","","null","30","NaN","","","","","","","","","","","","","","",""
"","S2","","html-keyboard-response","202","298376","0.0-1.0-274.0","0","0","37444","","null","","","null","30","","NaN","","","","","","","","","","","","","",""
"","response","","html-keyboard-response","203","298974","0.0-1.0-275.0-0.0","0","0","37444","","594","","","75","30","","","1","30","training","adjacent","ED","5","4","R.jpg","P.jpg","0","0","1","",""
"","feedback","","html-keyboard-response","204","299984","0.0-1.0-276.0-0.0","0","0","37444","","null","","","null","30","","","","","","","","","","","","","","","",""
"","ITI","","html-keyboard-response","205","300991","0.0-1.0-279.0","0","0","37444","","null","","","null","30","","","","","","","","","","","","","","","NaN",""
"","S1","","html-keyboard-response","206","301254","0.0-1.0-281.0","0","0","37444","","null","","","null","31","","","","","","","","","","","","","","","",""
"","ISI","","html-keyboard-response","207","303265","0.0-1.0-282.0","0","0","37444","","null","","","null","31","NaN","","","","","","","","","","","","","","",""
"","S2","","html-keyboard-response","208","303530","0.0-1.0-283.0","0","0","37444","","null","","","null","31","","NaN","","","","","","","","","","","","","",""
"","response","","html-keyboard-response","209","304222","0.0-1.0-284.0-0.0","0","0","37444","","686","","","68","31","","","1","31","training","adjacent","FE","6","5","O.jpg","R.jpg","1","0","0","",""
"","feedback","","html-keyboard-response","210","305231","0.0-1.0-285.0-0.0","0","0","37444","","null","","","null","31","","","","","","","","","","","","","","","",""
"","time_out","","html-keyboard-response","211","307241","0.0-1.0-287.0-0.0","0","0","37444","","null","","","null","31","","","","","","","","","","","","","","","",""
"","ITI","","html-keyboard-response","212","308248","0.0-1.0-288.0","0","0","37444","","null","","","null","31","","","","","","","","","","","","","","","NaN",""
"","S1","","html-keyboard-response","213","308510","0.0-1.0-290.0","0","0","37444","","null","","","null","32","","","","","","","","","","","","","","","",""
"","ISI","","html-keyboard-response","214","310521","0.0-1.0-291.0","0","0","37444","","null","","","null","32","NaN","","","","","","","","","","","","","","",""
"","S2","","html-keyboard-response","215","310787","0.0-1.0-292.0","0","0","37444","","null","","","null","32","","NaN","","","","","","","","","","","","","",""
"","response","","html-keyboard-response","216","311312","0.0-1.0-293.0-0.0","0","0","37444","","522","","","75","32","","","1","32","training","adjacent","FE","6","5","O.jpg","R.jpg","0","0","1","",""
"","feedback","","html-keyboard-response","217","312314","0.0-1.0-294.0-0.0","0","0","37444","","null","","","null","32","","","","","","","","","","","","","","","",""
"","ITI","","html-keyboard-response","218","313322","0.0-1.0-297.0","0","0","37444","","null","","","null","32","","","","","","","","","","","","","","","NaN",""
"","S1","","html-keyboard-response","219","313581","0.0-1.0-299.0","0","0","37444","","null","","","null","33","","","","","","","","","","","","","","","",""
"","ISI","","html-keyboard-response","220","315593","0.0-1.0-300.0","0","0","37444","","null","","","null","33","NaN","","","","","","","","","","","","","","",""
"","S2","","html-keyboard-response","221","315858","0.0-1.0-301.0","0","0","37444","","null","","","null","33","","NaN","","","","","","","","","","","","","",""
"","response","","html-keyboard-response","222","316568","0.0-1.0-302.0-0.0","0","0","37444","","705","","","68","33","","","1","33","training","adjacent","CD","3","4","M.jpg","P.jpg","1","1","1","",""
"","feedback","","html-keyboard-response","223","317574","0.0-1.0-303.0-0.0","0","0","37444","","null","","","null","33","","","","","","","","","","","","","","","",""
"","ITI","","html-keyboard-response","224","318583","0.0-1.0-306.0","0","0","37444","","null","","","null","33","","","","","","","","","","","","","","","NaN",""
"","S1","","html-keyboard-response","225","318846","0.0-1.0-308.0","0","0","37444","","null","","","null","34","","","","","","","","","","","","","","","",""
"","ISI","","html-keyboard-response","226","320856","0.0-1.0-309.0","0","0","37444","","null","","","null","34","NaN","","","","","","","","","","","","","","",""
"","S2","","html-keyboard-response","227","321119","0.0-1.0-310.0","0","0","37444","","null","","","null","34","","NaN","","","","","","","","","","","","","",""
"","response","","html-keyboard-response","228","321583","0.0-1.0-311.0-0.0","0","0","37444","","459","","","75","34","","","1","34","training","adjacent","ED","5","4","R.jpg","P.jpg","0","0","1","",""
"","feedback","","html-keyboard-response","229","322592","0.0-1.0-312.0-0.0","0","0","37444","","null","","","null","34","","","","","","","","","","","","","","","",""
"","ITI","","html-keyboard-response","230","323597","0.0-1.0-315.0","0","0","37444","","null","","","null","34","","","","","","","","","","","","","","","NaN",""
"","S1","","html-keyboard-response","231","323863","0.0-1.0-317.0","0","0","37444","","null","","","null","35","","","","","","","","","","","","","","","",""
"","ISI","","html-keyboard-response","232","325875","0.0-1.0-318.0","0","0","37444","","null","","","null","35","NaN","","","","","","","","","","","","","","",""
"","S2","","html-keyboard-response","233","326136","0.0-1.0-319.0","0","0","37444","","null","","","null","35","","NaN","","","","","","","","","","","","","",""
"","response","","html-keyboard-response","234","326567","0.0-1.0-320.0-0.0","0","0","37444","","426","","","68","35","","","1","35","training","adjacent","FG","6","7","O.jpg","Q.jpg","1","1","1","",""
"","feedback","","html-keyboard-response","235","327575","0.0-1.0-321.0-0.0","0","0","37444","","null","","","null","35","","","","","","","","","","","","","","","",""
"","ITI","","html-keyboard-response","236","328581","0.0-1.0-324.0","0","0","37444","","null","","","null","35","","","","","","","","","","","","","","","NaN",""
"","S1","","html-keyboard-response","237","328843","0.0-1.0-326.0","0","0","37444","","null","","","null","36","","","","","","","","","","","","","","","",""
"","ISI","","html-keyboard-response","238","330853","0.0-1.0-327.0","0","0","37444","","null","","","null","36","NaN","","","","","","","","","","","","","","",""
"","S2","","html-keyboard-response","239","331117","0.0-1.0-328.0","0","0","37444","","null","","","null","36","","NaN","","","","","","","","","","","","","",""
"","response","","html-keyboard-response","240","331660","0.0-1.0-329.0-0.0","0","0","37444","","541","","","68","36","","","1","36","training","adjacent","GF","7","6","Q.jpg","O.jpg","1","0","0","",""
"","feedback","","html-keyboard-response","241","332679","0.0-1.0-330.0-0.0","0","0","37444","","null","","","null","36","","","","","","","","","","","","","","","",""
"","time_out","","html-keyboard-response","242","334692","0.0-1.0-332.0-0.0","0","0","37444","","null","","","null","36","","","","","","","","","","","","","","","",""
"","ITI","","html-keyboard-response","243","335695","0.0-1.0-333.0","0","0","37444","","null","","","null","36","","","","","","","","","","","","","","","NaN",""
"","S1","","html-keyboard-response","244","335958","0.0-1.0-335.0","0","0","37444","","null","","","null","37","","","","","","","","","","","","","","","",""
"","ISI","","html-keyboard-response","245","337969","0.0-1.0-336.0","0","0","37444","","null","","","null","37","NaN","","","","","","","","","","","","","","",""
"","S2","","html-keyboard-response","246","338234","0.0-1.0-337.0","0","0","37444","","null","","","null","37","","NaN","","","","","","","","","","","","","",""
"","response","","html-keyboard-response","247","338732","0.0-1.0-338.0-0.0","0","0","37444","","495","","","68","37","","","1","37","training","adjacent","FG","6","7","O.jpg","Q.jpg","1","1","1","",""
"","feedback","","html-keyboard-response","248","339737","0.0-1.0-339.0-0.0","0","0","37444","","null","","","null","37","","","","","","","","","","","","","","","",""
"","ITI","","html-keyboard-response","249","340742","0.0-1.0-342.0","0","0","37444","","null","","","null","37","","","","","","","","","","","","","","","NaN",""
"","S1","","html-keyboard-response","250","341002","0.0-1.0-344.0","0","0","37444","","null","","","null","38","","","","","","","","","","","","","","","",""
"","ISI","","html-keyboard-response","251","343016","0.0-1.0-345.0","0","0","37444","","null","","","null","38","NaN","","","","","","","","","","","","","","",""
"","S2","","html-keyboard-response","252","343279","0.0-1.0-346.0","0","0","37444","","null","","","null","38","","NaN","","","","","","","","","","","","","",""
"","response","","html-keyboard-response","253","344264","0.0-1.0-347.0-0.0","0","0","37444","","981","","","68","38","","","1","38","training","adjacent","DE","4","5","P.jpg","R.jpg","1","1","1","",""
"","feedback","","html-keyboard-response","254","345277","0.0-1.0-348.0-0.0","0","0","37444","","null","","","null","38","","","","","","","","","","","","","","","",""
"","ITI","","html-keyboard-response","255","346282","0.0-1.0-351.0","0","0","37444","","null","","","null","38","","","","","","","","","","","","","","","NaN",""
"","S1","","html-keyboard-response","256","346543","0.0-1.0-353.0","0","0","37444","","null","","","null","39","","","","","","","","","","","","","","","",""
"","ISI","","html-keyboard-response","257","348556","0.0-1.0-354.0","0","0","37444","","null","","","null","39","NaN","","","","","","","","","","","","","","",""
"","S2","","html-keyboard-response","258","348822","0.0-1.0-355.0","0","0","37444","","null","","","null","39","","NaN","","","","","","","","","","","","","",""
"","response","","html-keyboard-response","259","349167","0.0-1.0-356.0-0.0","0","0","37444","","342","","","75","39","","","1","39","training","adjacent","BA","2","1","L.jpg","N.jpg","0","0","1","",""
"","feedback","","html-keyboard-response","260","350184","0.0-1.0-357.0-0.0","0","0","37444","","null","","","null","39","","","","","","","","","","","","","","","",""
"","ITI","","html-keyboard-response","261","351192","0.0-1.0-360.0","0","0","37444","","null","","","null","39","","","","","","","","","","","","","","","NaN",""
"","S1","","html-keyboard-response","262","351457","0.0-1.0-362.0","0","0","37444","","null","","","null","40","","","","","","","","","","","","","","","",""
"","ISI","","html-keyboard-response","263","353474","0.0-1.0-363.0","0","0","37444","","null","","","null","40","NaN","","","","","","","","","","","","","","",""
"","S2","","html-keyboard-response","264","353740","0.0-1.0-364.0","0","0","37444","","null","","","null","40","","NaN","","","","","","","","","","","","","",""
"","response","","html-keyboard-response","265","354439","0.0-1.0-365.0-0.0","0","0","37444","","695","","","75","40","","","1","40","training","adjacent","AB","1","2","N.jpg","L.jpg","0","1","0","",""
"","feedback","","html-keyboard-response","266","355458","0.0-1.0-366.0-0.0","0","0","37444","","null","","","null","40","","","","","","","","","","","","","","","",""
"","time_out","","html-keyboard-response","267","357472","0.0-1.0-368.0-0.0","0","0","37444","","null","","","null","40","","","","","","","","","","","","","","","",""
"","ITI","","html-keyboard-response","268","358477","0.0-1.0-369.0","0","0","37444","","null","","","null","40","","","","","","","","","","","","","","","NaN",""
"","S1","","html-keyboard-response","269","358740","0.0-1.0-371.0","0","0","37444","","null","","","null","41","","","","","","","","","","","","","","","",""
"","ISI","","html-keyboard-response","270","360751","0.0-1.0-372.0","0","0","37444","","null","","","null","41","NaN","","","","","","","","","","","","","","",""
"","S2","","html-keyboard-response","271","361014","0.0-1.0-373.0","0","0","37444","","null","","","null","41","","NaN","","","","","","","","","","","","","",""
"","response","","html-keyboard-response","272","361353","0.0-1.0-374.0-0.0","0","0","37444","","335","","","75","41","","","1","41","training","adjacent","GF","7","6","Q.jpg","O.jpg","0","0","1","",""
"","feedback","","html-keyboard-response","273","362366","0.0-1.0-375.0-0.0","0","0","37444","","null","","","null","41","","","","","","","","","","","","","","","",""
"","ITI","","html-keyboard-response","274","363368","0.0-1.0-378.0","0","0","37444","","null","","","null","41","","","","","","","","","","","","","","","NaN",""
"","S1","","html-keyboard-response","275","363633","0.0-1.0-380.0","0","0","37444","","null","","","null","42","","","","","","","","","","","","","","","",""
"","ISI","","html-keyboard-response","276","365646","0.0-1.0-381.0","0","0","37444","","null","","","null","42","NaN","","","","","","","","","","","","","","",""
"","S2","","html-keyboard-response","277","365911","0.0-1.0-382.0","0","0","37444","","null","","","null","42","","NaN","","","","","","","","","","","","","",""
"","response","","html-keyboard-response","278","366482","0.0-1.0-383.0-0.0","0","0","37444","","567","","","68","42","","","1","42","training","adjacent","BA","2","1","L.jpg","N.jpg","1","0","0","",""
"","feedback","","html-keyboard-response","279","367491","0.0-1.0-384.0-0.0","0","0","37444","","null","","","null","42","","","","","","","","","","","","","","","",""
"","time_out","","html-keyboard-response","280","369500","0.0-1.0-386.0-0.0","0","0","37444","","null","","","null","42","","","","","","","","","","","","","","","",""
"","ITI","","html-keyboard-response","281","370507","0.0-1.0-387.0","0","0","37444","","null","","","null","42","","","","","","","","","","","","","","","NaN",""
"","S1","","html-keyboard-response","282","370771","0.0-1.0-389.0","0","0","37444","","null","","","null","43","","","","","","","","","","","","","","","",""
"","ISI","","html-keyboard-response","283","372784","0.0-1.0-390.0","0","0","37444","","null","","","null","43","NaN","","","","","","","","","","","","","","",""
"","S2","","html-keyboard-response","284","373048","0.0-1.0-391.0","0","0","37444","","null","","","null","43","","NaN","","","","","","","","","","","","","",""
"","response","","html-keyboard-response","285","373946","0.0-1.0-392.0-0.0","0","0","37444","","895","","","75","43","","","1","43","training","adjacent","CB","3","2","M.jpg","L.jpg","0","0","1","",""
"","feedback","","html-keyboard-response","286","374951","0.0-1.0-393.0-0.0","0","0","37444","","null","","","null","43","","","","","","","","","","","","","","","",""
"","ITI","","html-keyboard-response","287","375957","0.0-1.0-396.0","0","0","37444","","null","","","null","43","","","","","","","","","","","","","","","NaN",""
"","S1","","html-keyboard-response","288","376218","0.0-1.0-398.0","0","0","37444","","null","","","null","44","","","","","","","","","","","","","","","",""
"","ISI","","html-keyboard-response","289","378228","0.0-1.0-399.0","0","0","37444","","null","","","null","44","NaN","","","","","","","","","","","","","","",""
"","S2","","html-keyboard-response","290","378493","0.0-1.0-400.0","0","0","37444","","null","","","null","44","","NaN","","","","","","","","","","","","","",""
"","response","","html-keyboard-response","291","378984","0.0-1.0-401.0-0.0","0","0","37444","","488","","","68","44","","","1","44","training","adjacent","BC","2","3","L.jpg","M.jpg","1","1","1","",""
"","feedback","","html-keyboard-response","292","379998","0.0-1.0-402.0-0.0","0","0","37444","","null","","","null","44","","","","","","","","","","","","","","","",""
"","ITI","","html-keyboard-response","293","381016","0.0-1.0-405.0","0","0","37444","","null","","","null","44","","","","","","","","","","","","","","","NaN",""
"","S1","","html-keyboard-response","294","381280","0.0-1.0-407.0","0","0","37444","","null","","","null","45","","","","","","","","","","","","","","","",""
"","ISI","","html-keyboard-response","295","383289","0.0-1.0-408.0","0","0","37444","","null","","","null","45","NaN","","","","","","","","","","","","","","",""
"","S2","","html-keyboard-response","296","383554","0.0-1.0-409.0","0","0","37444","","null","","","null","45","","NaN","","","","","","","","","","","","","",""
"","response","","html-keyboard-response","297","383889","0.0-1.0-410.0-0.0","0","0","37444","","332","","","68","45","","","1","45","training","adjacent","BC","2","3","L.jpg","M.jpg","1","1","1","",""
"","feedback","","html-keyboard-response","298","384903","0.0-1.0-411.0-0.0","0","0","37444","","null","","","null","45","","","","","","","","","","","","","","","",""
"","ITI","","html-keyboard-response","299","385911","0.0-1.0-414.0","0","0","37444","","null","","","null","45","","","","","","","","","","","","","","","NaN",""
"","S1","","html-keyboard-response","300","386173","0.0-1.0-416.0","0","0","37444","","null","","","null","46","","","","","","","","","","","","","","","",""
"","ISI","","html-keyboard-response","301","388187","0.0-1.0-417.0","0","0","37444","","null","","","null","46","NaN","","","","","","","","","","","","","","",""
"","S2","","html-keyboard-response","302","388452","0.0-1.0-418.0","0","0","37444","","null","","","null","46","","NaN","","","","","","","","","","","","","",""
"","response","","html-keyboard-response","303","388868","0.0-1.0-419.0-0.0","0","0","37444","","414","","","75","46","","","1","46","training","adjacent","BA","2","1","L.jpg","N.jpg","0","0","1","",""
"","feedback","","html-keyboard-response","304","389876","0.0-1.0-420.0-0.0","0","0","37444","","null","","","null","46","","","","","","","","","","","","","","","",""
"","ITI","","html-keyboard-response","305","390883","0.0-1.0-423.0","0","0","37444","","null","","","null","46","","","","","","","","","","","","","","","NaN",""
"","S1","","html-keyboard-response","306","391144","0.0-1.0-425.0","0","0","37444","","null","","","null","47","","","","","","","","","","","","","","","",""
"","ISI","","html-keyboard-response","307","393155","0.0-1.0-426.0","0","0","37444","","null","","","null","47","NaN","","","","","","","","","","","","","","",""
"","S2","","html-keyboard-response","308","393418","0.0-1.0-427.0","0","0","37444","","null","","","null","47","","NaN","","","","","","","","","","","","","",""
"","response","","html-keyboard-response","309","394259","0.0-1.0-428.0-0.0","0","0","37444","","836","","","68","47","","","1","47","training","adjacent","FE","6","5","O.jpg","R.jpg","1","0","0","",""
"","feedback","","html-keyboard-response","310","395274","0.0-1.0-429.0-0.0","0","0","37444","","null","","","null","47","","","","","","","","","","","","","","","",""
"","time_out","","html-keyboard-response","311","397285","0.0-1.0-431.0-0.0","0","0","37444","","null","","","null","47","","","","","","","","","","","","","","","",""
"","ITI","","html-keyboard-response","312","398290","0.0-1.0-432.0","0","0","37444","","null","","","null","47","","","","","","","","","","","","","","","NaN",""
"","block_over","","html-keyboard-response","313","405009","0.0-1.0-433.0-0.0","0","0","37444","","6714","","","32","47","","","","","","","","","","","","","","","",""
"","S1","","html-keyboard-response","314","405269","0.0-1.0-434.0","0","0","37444","","null","","","null","48","","","","","","","","","","","","","","","",""
"","ISI","","html-keyboard-response","315","407282","0.0-1.0-435.0","0","0","37444","","null","","","null","48","NaN","","","","","","","","","","","","","","",""
"","S2","","html-keyboard-response","316","407551","0.0-1.0-436.0","0","0","37444","","null","","","null","48","","NaN","","","","","","","","","","","","","",""
"","response","","html-keyboard-response","317","408290","0.0-1.0-437.0-0.0","0","0","37444","","734","","","68","48","","","2","48","training","adjacent","FG","6","7","O.jpg","Q.jpg","1","1","1","",""
"","feedback","","html-keyboard-response","318","409309","0.0-1.0-438.0-0.0","0","0","37444","","null","","","null","48","","","","","","","","","","","","","","","",""
"","ITI","","html-keyboard-response","319","410316","0.0-1.0-441.0","0","0","37444","","null","","","null","48","","","","","","","","","","","","","","","NaN",""
"","S1","","html-keyboard-response","320","410579","0.0-1.0-443.0","0","0","37444","","null","","","null","49","","","","","","","","","","","","","","","",""
"","ISI","","html-keyboard-response","321","412592","0.0-1.0-444.0","0","0","37444","","null","","","null","49","NaN","","","","","","","","","","","","","","",""
"","S2","","html-keyboard-response","322","412861","0.0-1.0-445.0","0","0","37444","","null","","","null","49","","NaN","","","","","","","","","","","","","",""
"","response","","html-keyboard-response","323","413711","0.0-1.0-446.0-0.0","0","0","37444","","847","","","68","49","","","2","49","training","adjacent","DE","4","5","P.jpg","R.jpg","1","1","1","",""
"","feedback","","html-keyboard-response","324","414717","0.0-1.0-447.0-0.0","0","0","37444","","null","","","null","49","","","","","","","","","","","","","","","",""
"","ITI","","html-keyboard-response","325","415723","0.0-1.0-450.0","0","0","37444","","null","","","null","49","","","","","","","","","","","","","","","NaN",""
"","S1","","html-keyboard-response","326","415984","0.0-1.0-452.0","0","0","37444","","null","","","null","50","","","","","","","","","","","","","","","",""
"","ISI","","html-keyboard-response","327","417998","0.0-1.0-453.0","0","0","37444","","null","","","null","50","NaN","","","","","","","","","","","","","","",""
"","S2","","html-keyboard-response","328","418262","0.0-1.0-454.0","0","0","37444","","null","","","null","50","","NaN","","","","","","","","","","","","","",""
"","response","","html-keyboard-response","329","419303","0.0-1.0-455.0-0.0","0","0","37444","","1037","","","68","50","","","2","50","training","adjacent","AB","1","2","N.jpg","L.jpg","1","1","1","",""
"","feedback","","html-keyboard-response","330","420319","0.0-1.0-456.0-0.0","0","0","37444","","null","","","null","50","","","","","","","","","","","","","","","",""
"","ITI","","html-keyboard-response","331","421328","0.0-1.0-459.0","0","0","37444","","null","","","null","50","","","","","","","","","","","","","","","NaN",""
"","S1","","html-keyboard-response","332","421592","0.0-1.0-461.0","0","0","37444","","null","","","null","51","","","","","","","","","","","","","","","",""
"","ISI","","html-keyboard-response","333","423604","0.0-1.0-462.0","0","0","37444","","null","","","null","51","NaN","","","","","","","","","","","","","","",""
"","S2","","html-keyboard-response","334","423868","0.0-1.0-463.0","0","0","37444","","null","","","null","51","","NaN","","","","","","","","","","","","","",""
"","response","","html-keyboard-response","335","424222","0.0-1.0-464.0-0.0","0","0","37444","","352","","","68","51","","","2","51","training","adjacent","BC","2","3","L.jpg","M.jpg","1","1","1","",""
"","feedback","","html-keyboard-response","336","425232","0.0-1.0-465.0-0.0","0","0","37444","","null","","","null","51","","","","","","","","","","","","","","","",""
"","ITI","","html-keyboard-response","337","426237","0.0-1.0-468.0","0","0","37444","","null","","","null","51","","","","","","","","","","","","","","","NaN",""
"","S1","","html-keyboard-response","338","426500","0.0-1.0-470.0","0","0","37444","","null","","","null","52","","","","","","","","","","","","","","","",""
"","ISI","","html-keyboard-response","339","428511","0.0-1.0-471.0","0","0","37444","","null","","","null","52","NaN","","","","","","","","","","","","","","",""
"","S2","","html-keyboard-response","340","428777","0.0-1.0-472.0","0","0","37444","","null","","","null","52","","NaN","","","","","","","","","","","","","",""
"","response","","html-keyboard-response","341","429951","0.0-1.0-473.0-0.0","0","0","37444","","1169","","","75","52","","","2","52","training","adjacent","DC","4","3","P.jpg","M.jpg","0","0","1","",""
"","feedback","","html-keyboard-response","342","430959","0.0-1.0-474.0-0.0","0","0","37444","","null","","","null","52","","","","","","","","","","","","","","","",""
"","ITI","","html-keyboard-response","343","431967","0.0-1.0-477.0","0","0","37444","","null","","","null","52","","","","","","","","","","","","","","","NaN",""
"","S1","","html-keyboard-response","344","432230","0.0-1.0-479.0","0","0","37444","","null","","","null","53","","","","","","","","","","","","","","","",""
"","ISI","","html-keyboard-response","345","434237","0.0-1.0-480.0","0","0","37444","","null","","","null","53","NaN","","","","","","","","","","","","","","",""
"","S2","","html-keyboard-response","346","434502","0.0-1.0-481.0","0","0","37444","","null","","","null","53","","NaN","","","","","","","","","","","","","",""
"","response","","html-keyboard-response","347","435982","0.0-1.0-482.0-0.0","0","0","37444","","1477","","","75","53","","","2","53","training","adjacent","ED","5","4","R.jpg","P.jpg","0","0","1","",""
"","feedback","","html-keyboard-response","348","437000","0.0-1.0-483.0-0.0","0","0","37444","","null","","","null","53","","","","","","","","","","","","","","","",""
"","ITI","","html-keyboard-response","349","438006","0.0-1.0-486.0","0","0","37444","","null","","","null","53","","","","","","","","","","","","","","","NaN",""
"","S1","","html-keyboard-response","350","438268","0.0-1.0-488.0","0","0","37444","","null","","","null","54","","","","","","","","","","","","","","","",""
"","ISI","","html-keyboard-response","351","440284","0.0-1.0-489.0","0","0","37444","","null","","","null","54","NaN","","","","","","","","","","","","","","",""
"","S2","","html-keyboard-response","352","440544","0.0-1.0-490.0","0","0","37444","","null","","","null","54","","NaN","","","","","","","","","","","","","",""
"","response","","html-keyboard-response","353","441025","0.0-1.0-491.0-0.0","0","0","37444","","479","","","68","54","","","2","54","training","adjacent","CB","3","2","M.jpg","L.jpg","1","0","0","",""
"","feedback","","html-keyboard-response","354","442034","0.0-1.0-492.0-0.0","0","0","37444","","null","","","null","54","","","","","","","","","","","","","","","",""
"","time_out","","html-keyboard-response","355","444046","0.0-1.0-494.0-0.0","0","0","37444","","null","","","null","54","","","","","","","","","","","","","","","",""
"","ITI","","html-keyboard-response","356","445053","0.0-1.0-495.0","0","0","37444","","null","","","null","54","","","","","","","","","","","","","","","NaN",""
"","S1","","html-keyboard-response","357","445317","0.0-1.0-497.0","0","0","37444","","null","","","null","55","","","","","","","","","","","","","","","",""
"","ISI","","html-keyboard-response","358","447325","0.0-1.0-498.0","0","0","37444","","null","","","null","55","NaN","","","","","","","","","","","","","","",""
"","S2","","html-keyboard-response","359","447588","0.0-1.0-499.0","0","0","37444","","null","","","null","55","","NaN","","","","","","","","","","","","","",""
"","response","","html-keyboard-response","360","448317","0.0-1.0-500.0-0.0","0","0","37444","","725","","","75","55","","","2","55","training","adjacent","BA","2","1","L.jpg","N.jpg","0","0","1","",""
"","feedback","","html-keyboard-response","361","449324","0.0-1.0-501.0-0.0","0","0","37444","","null","","","null","55","","","","","","","","","","","","","","","",""
"","ITI","","html-keyboard-response","362","450332","0.0-1.0-504.0","0","0","37444","","null","","","null","55","","","","","","","","","","","","","","","NaN",""
"","S1","","html-keyboard-response","363","450593","0.0-1.0-506.0","0","0","37444","","null","","","null","56","","","","","","","","","","","","","","","",""
"","ISI","","html-keyboard-response","364","452606","0.0-1.0-507.0","0","0","37444","","null","","","null","56","NaN","","","","","","","","","","","","","","",""
"","S2","","html-keyboard-response","365","452871","0.0-1.0-508.0","0","0","37444","","null","","","null","56","","NaN","","","","","","","","","","","","","",""
"","response","","html-keyboard-response","366","453469","0.0-1.0-509.0-0.0","0","0","37444","","595","","","75","56","","","2","56","training","adjacent","AB","1","2","N.jpg","L.jpg","0","1","0","",""
"","feedback","","html-keyboard-response","367","454477","0.0-1.0-510.0-0.0","0","0","37444","","null","","","null","56","","","","","","","","","","","","","","","",""
"","time_out","","html-keyboard-response","368","456493","0.0-1.0-512.0-0.0","0","0","37444","","null","","","null","56","","","","","","","","","","","","","","","",""
"","ITI","","html-keyboard-response","369","457510","0.0-1.0-513.0","0","0","37444","","null","","","null","56","","","","","","","","","","","","","","","NaN",""
"","S1","","html-keyboard-response","370","457773","0.0-1.0-515.0","0","0","37444","","null","","","null","57","","","","","","","","","","","","","","","",""
"","ISI","","html-keyboard-response","371","459783","0.0-1.0-516.0","0","0","37444","","null","","","null","57","NaN","","","","","","","","","","","","","","",""
"","S2","","html-keyboard-response","372","460047","0.0-1.0-517.0","0","0","37444","","null","","","null","57","","NaN","","","","","","","","","","","","","",""
"","response","","html-keyboard-response","373","460915","0.0-1.0-518.0-0.0","0","0","37444","","863","","","75","57","","","2","57","training","adjacent","CD","3","4","M.jpg","P.jpg","0","1","0","",""
"","feedback","","html-keyboard-response","374","461922","0.0-1.0-519.0-0.0","0","0","37444","","null","","","null","57","","","","","","","","","","","","","","","",""
"","time_out","","html-keyboard-response","375","463931","0.0-1.0-521.0-0.0","0","0","37444","","null","","","null","57","","","","","","","","","","","","","","","",""
"","ITI","","html-keyboard-response","376","464940","0.0-1.0-522.0","0","0","37444","","null","","","null","57","","","","","","","","","","","","","","","NaN",""
"","S1","","html-keyboard-response","377","465202","0.0-1.0-524.0","0","0","37444","","null","","","null","58","","","","","","","","","","","","","","","",""
"","ISI","","html-keyboard-response","378","467212","0.0-1.0-525.0","0","0","37444","","null","","","null","58","NaN","","","","","","","","","","","","","","",""
"","S2","","html-keyboard-response","379","467471","0.0-1.0-526.0","0","0","37444","","null","","","null","58","","NaN","","","","","","","","","","","","","",""
"","response","","html-keyboard-response","380","468084","0.0-1.0-527.0-0.0","0","0","37444","","610","","","75","58","","","2","58","training","adjacent","BA","2","1","L.jpg","N.jpg","0","0","1","",""
"","feedback","","html-keyboard-response","381","469099","0.0-1.0-528.0-0.0","0","0","37444","","null","","","null","58","","","","","","","","","","","","","","","",""
"","ITI","","html-keyboard-response","382","470106","0.0-1.0-531.0","0","0","37444","","null","","","null","58","","","","","","","","","","","","","","","NaN",""
"","S1","","html-keyboard-response","383","470369","0.0-1.0-533.0","0","0","37444","","null","","","null","59","","","","","","","","","","","","","","","",""
"","ISI","","html-keyboard-response","384","472381","0.0-1.0-534.0","0","0","37444","","null","","","null","59","NaN","","","","","","","","","","","","","","",""
"","S2","","html-keyboard-response","385","472646","0.0-1.0-535.0","0","0","37444","","null","","","null","59","","NaN","","","","","","","","","","","","","",""
"","response","","html-keyboard-response","386","473436","0.0-1.0-536.0-0.0","0","0","37444","","786","","","68","59","","","2","59","training","adjacent","DE","4","5","P.jpg","R.jpg","1","1","1","",""
"","feedback","","html-keyboard-response","387","474456","0.0-1.0-537.0-0.0","0","0","37444","","null","","","null","59","","","","","","","","","","","","","","","",""
"","ITI","","html-keyboard-response","388","475475","0.0-1.0-540.0","0","0","37444","","null","","","null","59","","","","","","","","","","","","","","","NaN",""
"","S1","","html-keyboard-response","389","475738","0.0-1.0-542.0","0","0","37444","","null","","","null","60","","","","","","","","","","","","","","","",""
"","ISI","","html-keyboard-response","390","477747","0.0-1.0-543.0","0","0","37444","","null","","","null","60","NaN","","","","","","","","","","","","","","",""
"","S2","","html-keyboard-response","391","478010","0.0-1.0-544.0","0","0","37444","","null","","","null","60","","NaN","","","","","","","","","","","","","",""
"","response","","html-keyboard-response","392","478578","0.0-1.0-545.0-0.0","0","0","37444","","565","","","68","60","","","2","60","training","adjacent","BC","2","3","L.jpg","M.jpg","1","1","1","",""
"","feedback","","html-keyboard-response","393","479586","0.0-1.0-546.0-0.0","0","0","37444","","null","","","null","60","","","","","","","","","","","","","","","",""
"","ITI","","html-keyboard-response","394","480592","0.0-1.0-549.0","0","0","37444","","null","","","null","60","","","","","","","","","","","","","","","NaN",""
"","S1","","html-keyboard-response","395","480859","0.0-1.0-551.0","0","0","37444","","null","","","null","61","","","","","","","","","","","","","","","",""
"","ISI","","html-keyboard-response","396","482871","0.0-1.0-552.0","0","0","37444","","null","","","null","61","NaN","","","","","","","","","","","","","","",""
"","S2","","html-keyboard-response","397","483135","0.0-1.0-553.0","0","0","37444","","null","","","null","61","","NaN","","","","","","","","","","","","","",""
"","response","","html-keyboard-response","398","483621","0.0-1.0-554.0-0.0","0","0","37444","","484","","","75","61","","","2","61","training","adjacent","GF","7","6","Q.jpg","O.jpg","0","0","1","",""
"","feedback","","html-keyboard-response","399","484632","0.0-1.0-555.0-0.0","0","0","37444","","null","","","null","61","","","","","","","","","","","","","","","",""
"","ITI","","html-keyboard-response","400","485638","0.0-1.0-558.0","0","0","37444","","null","","","null","61","","","","","","","","","","","","","","","NaN",""
"","S1","","html-keyboard-response","401","485904","0.0-1.0-560.0","0","0","37444","","null","","","null","62","","","","","","","","","","","","","","","",""
"","ISI","","html-keyboard-response","402","487913","0.0-1.0-561.0","0","0","37444","","null","","","null","62","NaN","","","","","","","","","","","","","","",""
"","S2","","html-keyboard-response","403","488177","0.0-1.0-562.0","0","0","37444","","null","","","null","62","","NaN","","","","","","","","","","","","","",""
"","response","","html-keyboard-response","404","489145","0.0-1.0-563.0-0.0","0","0","37444","","963","","","68","62","","","2","62","training","adjacent","FE","6","5","O.jpg","R.jpg","1","0","0","",""
"","feedback","","html-keyboard-response","405","490160","0.0-1.0-564.0-0.0","0","0","37444","","null","","","null","62","","","","","","","","","","","","","","","",""
"","time_out","","html-keyboard-response","406","492172","0.0-1.0-566.0-0.0","0","0","37444","","null","","","null","62","","","","","","","","","","","","","","","",""
"","ITI","","html-keyboard-response","407","493182","0.0-1.0-567.0","0","0","37444","","null","","","null","62","","","","","","","","","","","","","","","NaN",""
"","S1","","html-keyboard-response","408","493445","0.0-1.0-569.0","0","0","37444","","null","","","null","63","","","","","","","","","","","","","","","",""
"","ISI","","html-keyboard-response","409","495454","0.0-1.0-570.0","0","0","37444","","null","","","null","63","NaN","","","","","","","","","","","","","","",""
"","S2","","html-keyboard-response","410","495719","0.0-1.0-571.0","0","0","37444","","null","","","null","63","","NaN","","","","","","","","","","","","","",""
"","response","","html-keyboard-response","411","496440","0.0-1.0-572.0-0.0","0","0","37444","","717","","","68","63","","","2","63","training","adjacent","FG","6","7","O.jpg","Q.jpg","1","1","1","",""
"","feedback","","html-keyboard-response","412","497451","0.0-1.0-573.0-0.0","0","0","37444","","null","","","null","63","","","","","","","","","","","","","","","",""
"","ITI","","html-keyboard-response","413","498457","0.0-1.0-576.0","0","0","37444","","null","","","null","63","","","","","","","","","","","","","","","NaN",""
"","S1","","html-keyboard-response","414","498721","0.0-1.0-578.0","0","0","37444","","null","","","null","64","","","","","","","","","","","","","","","",""
"","ISI","","html-keyboard-response","415","500730","0.0-1.0-579.0","0","0","37444","","null","","","null","64","NaN","","","","","","","","","","","","","","",""
"","S2","","html-keyboard-response","416","500994","0.0-1.0-580.0","0","0","37444","","null","","","null","64","","NaN","","","","","","","","","","","","","",""
"","response","","html-keyboard-response","417","501567","0.0-1.0-581.0-0.0","0","0","37444","","570","","","68","64","","","2","64","training","adjacent","AB","1","2","N.jpg","L.jpg","1","1","1","",""
"","feedback","","html-keyboard-response","418","502573","0.0-1.0-582.0-0.0","0","0","37444","","null","","","null","64","","","","","","","","","","","","","","","",""
"","ITI","","html-keyboard-response","419","503593","0.0-1.0-585.0","0","0","37444","","null","","","null","64","","","","","","","","","","","","","","","NaN",""
"","S1","","html-keyboard-response","420","503857","0.0-1.0-587.0","0","0","37444","","null","","","null","65","","","","","","","","","","","","","","","",""
"","ISI","","html-keyboard-response","421","505864","0.0-1.0-588.0","0","0","37444","","null","","","null","65","NaN","","","","","","","","","","","","","","",""
"","S2","","html-keyboard-response","422","506126","0.0-1.0-589.0","0","0","37444","","null","","","null","65","","NaN","","","","","","","","","","","","","",""
"","response","","html-keyboard-response","423","507072","0.0-1.0-590.0-0.0","0","0","37444","","944","","","68","65","","","2","65","training","adjacent","FE","6","5","O.jpg","R.jpg","1","0","0","",""
"","feedback","","html-keyboard-response","424","508078","0.0-1.0-591.0-0.0","0","0","37444","","null","","","null","65","","","","","","","","","","","","","","","",""
"","time_out","","html-keyboard-response","425","510093","0.0-1.0-593.0-0.0","0","0","37444","","null","","","null","65","","","","","","","","","","","","","","","",""
"","ITI","","html-keyboard-response","426","511099","0.0-1.0-594.0","0","0","37444","","null","","","null","65","","","","","","","","","","","","","","","NaN",""
"","S1","","html-keyboard-response","427","511362","0.0-1.0-596.0","0","0","37444","","null","","","null","66","","","","","","","","","","","","","","","",""
"","ISI","","html-keyboard-response","428","513373","0.0-1.0-597.0","0","0","37444","","null","","","null","66","NaN","","","","","","","","","","","","","","",""
"","S2","","html-keyboard-response","429","513636","0.0-1.0-598.0","0","0","37444","","null","","","null","66","","NaN","","","","","","","","","","","","","",""
"","response","","html-keyboard-response","430","514362","0.0-1.0-599.0-0.0","0","0","37444","","721","","","75","66","","","2","66","training","adjacent","EF","5","6","R.jpg","O.jpg","0","1","0","",""
"","feedback","","html-keyboard-response","431","515369","0.0-1.0-600.0-0.0","0","0","37444","","null","","","null","66","","","","","","","","","","","","","","","",""
"","time_out","","html-keyboard-response","432","517384","0.0-1.0-602.0-0.0","0","0","37444","","null","","","null","66","","","","","","","","","","","","","","","",""
"","ITI","","html-keyboard-response","433","518391","0.0-1.0-603.0","0","0","37444","","null","","","null","66","","","","","","","","","","","","","","","NaN",""
"","S1","","html-keyboard-response","434","518656","0.0-1.0-605.0","0","0","37444","","null","","","null","67","","","","","","","","","","","","","","","",""
"","ISI","","html-keyboard-response","435","520666","0.0-1.0-606.0","0","0","37444","","null","","","null","67","NaN","","","","","","","","","","","","","","",""
"","S2","","html-keyboard-response","436","520931","0.0-1.0-607.0","0","0","37444","","null","","","null","67","","NaN","","","","","","","","","","","","","",""
"","response","","html-keyboard-response","437","521679","0.0-1.0-608.0-0.0","0","0","37444","","743","","","68","67","","","2","67","training","adjacent","DC","4","3","P.jpg","M.jpg","1","0","0","",""
"","feedback","","html-keyboard-response","438","522697","0.0-1.0-609.0-0.0","0","0","37444","","null","","","null","67","","","","","","","","","","","","","","","",""
"","time_out","","html-keyboard-response","439","524710","0.0-1.0-611.0-0.0","0","0","37444","","null","","","null","67","","","","","","","","","","","","","","","",""
"","ITI","","html-keyboard-response","440","525719","0.0-1.0-612.0","0","0","37444","","null","","","null","67","","","","","","","","","","","","","","","NaN",""
"","S1","","html-keyboard-response","441","525982","0.0-1.0-614.0","0","0","37444","","null","","","null","68","","","","","","","","","","","","","","","",""
"","ISI","","html-keyboard-response","442","527992","0.0-1.0-615.0","0","0","37444","","null","","","null","68","NaN","","","","","","","","","","","","","","",""
"","S2","","html-keyboard-response","443","528256","0.0-1.0-616.0","0","0","37444","","null","","","null","68","","NaN","","","","","","","","","","","","","",""
"","response","","html-keyboard-response","444","529197","0.0-1.0-617.0-0.0","0","0","37444","","938","","","75","68","","","2","68","training","adjacent","EF","5","6","R.jpg","O.jpg","0","1","0","",""
"","feedback","","html-keyboard-response","445","530209","0.0-1.0-618.0-0.0","0","0","37444","","null","","","null","68","","","","","","","","","","","","","","","",""
"","time_out","","html-keyboard-response","446","532224","0.0-1.0-620.0-0.0","0","0","37444","","null","","","null","68","","","","","","","","","","","","","","","",""
"","ITI","","html-keyboard-response","447","533231","0.0-1.0-621.0","0","0","37444","","null","","","null","68","","","","","","","","","","","","","","","NaN",""
"","S1","","html-keyboard-response","448","533492","0.0-1.0-623.0","0","0","37444","","null","","","null","69","","","","","","","","","","","","","","","",""
"","ISI","","html-keyboard-response","449","535506","0.0-1.0-624.0","0","0","37444","","null","","","null","69","NaN","","","","","","","","","","","","","","",""
"","S2","","html-keyboard-response","450","535771","0.0-1.0-625.0","0","0","37444","","null","","","null","69","","NaN","","","","","","","","","","","","","",""
"","response","","html-keyboard-response","451","536656","0.0-1.0-626.0-0.0","0","0","37444","","883","","","75","69","","","2","69","training","adjacent","ED","5","4","R.jpg","P.jpg","0","0","1","",""
"","feedback","","html-keyboard-response","452","537676","0.0-1.0-627.0-0.0","0","0","37444","","null","","","null","69","","","","","","","","","","","","","","","",""
"","ITI","","html-keyboard-response","453","538680","0.0-1.0-630.0","0","0","37444","","null","","","null","69","","","","","","","","","","","","","","","NaN",""
"","S1","","html-keyboard-response","454","538943","0.0-1.0-632.0","0","0","37444","","null","","","null","70","","","","","","","","","","","","","","","",""
"","ISI","","html-keyboard-response","455","540957","0.0-1.0-633.0","0","0","37444","","null","","","null","70","NaN","","","","","","","","","","","","","","",""
"","S2","","html-keyboard-response","456","541219","0.0-1.0-634.0","0","0","37444","","null","","","null","70","","NaN","","","","","","","","","","","","","",""
"","response","","html-keyboard-response","457","541828","0.0-1.0-635.0-0.0","0","0","37444","","605","","","68","70","","","2","70","training","adjacent","AB","1","2","N.jpg","L.jpg","1","1","1","",""
"","feedback","","html-keyboard-response","458","542843","0.0-1.0-636.0-0.0","0","0","37444","","null","","","null","70","","","","","","","","","","","","","","","",""
"","ITI","","html-keyboard-response","459","543861","0.0-1.0-639.0","0","0","37444","","null","","","null","70","","","","","","","","","","","","","","","NaN",""
"","S1","","html-keyboard-response","460","544123","0.0-1.0-641.0","0","0","37444","","null","","","null","71","","","","","","","","","","","","","","","",""
"","ISI","","html-keyboard-response","461","546139","0.0-1.0-642.0","0","0","37444","","null","","","null","71","NaN","","","","","","","","","","","","","","",""
"","S2","","html-keyboard-response","462","546400","0.0-1.0-643.0","0","0","37444","","null","","","null","71","","NaN","","","","","","","","","","","","","",""
"","response","","html-keyboard-response","463","547143","0.0-1.0-644.0-0.0","0","0","37444","","739","","","75","71","","","2","71","training","adjacent","CD","3","4","M.jpg","P.jpg","0","1","0","",""
"","feedback","","html-keyboard-response","464","548159","0.0-1.0-645.0-0.0","0","0","37444","","null","","","null","71","","","","","","","","","","","","","","","",""
"","time_out","","html-keyboard-response","465","550169","0.0-1.0-647.0-0.0","0","0","37444","","null","","","null","71","","","","","","","","","","","","","","","",""
"","ITI","","html-keyboard-response","466","551176","0.0-1.0-648.0","0","0","37444","","null","","","null","71","","","","","","","","","","","","","","","NaN",""
"","S1","","html-keyboard-response","467","551441","0.0-1.0-650.0","0","0","37444","","null","","","null","72","","","","","","","","","","","","","","","",""
"","ISI","","html-keyboard-response","468","553455","0.0-1.0-651.0","0","0","37444","","null","","","null","72","NaN","","","","","","","","","","","","","","",""
"","S2","","html-keyboard-response","469","553717","0.0-1.0-652.0","0","0","37444","","null","","","null","72","","NaN","","","","","","","","","","","","","",""
"","response","","html-keyboard-response","470","554291","0.0-1.0-653.0-0.0","0","0","37444","","570","","","75","72","","","2","72","training","adjacent","ED","5","4","R.jpg","P.jpg","0","0","1","",""
"","feedback","","html-keyboard-response","471","555300","0.0-1.0-654.0-0.0","0","0","37444","","null","","","null","72","","","","","","","","","","","","","","","",""
"","ITI","","html-keyboard-response","472","556309","0.0-1.0-657.0","0","0","37444","","null","","","null","72","","","","","","","","","","","","","","","NaN",""
"","S1","","html-keyboard-response","473","556572","0.0-1.0-659.0","0","0","37444","","null","","","null","73","","","","","","","","","","","","","","","",""
"","ISI","","html-keyboard-response","474","558583","0.0-1.0-660.0","0","0","37444","","null","","","null","73","NaN","","","","","","","","","","","","","","",""
"","S2","","html-keyboard-response","475","558846","0.0-1.0-661.0","0","0","37444","","null","","","null","73","","NaN","","","","","","","","","","","","","",""
"","response","","html-keyboard-response","476","559328","0.0-1.0-662.0-0.0","0","0","37444","","477","","","68","73","","","2","73","training","adjacent","BC","2","3","L.jpg","M.jpg","1","1","1","",""
"","feedback","","html-keyboard-response","477","560345","0.0-1.0-663.0-0.0","0","0","37444","","null","","","null","73","","","","","","","","","","","","","","","",""
"","ITI","","html-keyboard-response","478","561352","0.0-1.0-666.0","0","0","37444","","null","","","null","73","","","","","","","","","","","","","","","NaN",""
"","S1","","html-keyboard-response","479","561615","0.0-1.0-668.0","0","0","37444","","null","","","null","74","","","","","","","","","","","","","","","",""
"","ISI","","html-keyboard-response","480","563624","0.0-1.0-669.0","0","0","37444","","null","","","null","74","NaN","","","","","","","","","","","","","","",""
"","S2","","html-keyboard-response","481","563888","0.0-1.0-670.0","0","0","37444","","null","","","null","74","","NaN","","","","","","","","","","","","","",""
"","response","","html-keyboard-response","482","564921","0.0-1.0-671.0-0.0","0","0","37444","","1030","","","75","74","","","2","74","training","adjacent","FG","6","7","O.jpg","Q.jpg","0","1","0","",""
"","feedback","","html-keyboard-response","483","565927","0.0-1.0-672.0-0.0","0","0","37444","","null","","","null","74","","","","","","","","","","","","","","","",""
"","time_out","","html-keyboard-response","484","567945","0.0-1.0-674.0-0.0","0","0","37444","","null","","","null","74","","","","","","","","","","","","","","","",""
"","ITI","","html-keyboard-response","485","568948","0.0-1.0-675.0","0","0","37444","","null","","","null","74","","","","","","","","","","","","","","","NaN",""
"","S1","","html-keyboard-response","486","569214","0.0-1.0-677.0","0","0","37444","","null","","","null","75","","","","","","","","","","","","","","","",""
"","ISI","","html-keyboard-response","487","571225","0.0-1.0-678.0","0","0","37444","","null","","","null","75","NaN","","","","","","","","","","","","","","",""
"","S2","","html-keyboard-response","488","571486","0.0-1.0-679.0","0","0","37444","","null","","","null","75","","NaN","","","","","","","","","","","","","",""
"","response","","html-keyboard-response","489","571986","0.0-1.0-680.0-0.0","0","0","37444","","496","","","68","75","","","2","75","training","adjacent","EF","5","6","R.jpg","O.jpg","1","1","1","",""
"","feedback","","html-keyboard-response","490","573003","0.0-1.0-681.0-0.0","0","0","37444","","null","","","null","75","","","","","","","","","","","","","","","",""
"","ITI","","html-keyboard-response","491","574007","0.0-1.0-684.0","0","0","37444","","null","","","null","75","","","","","","","","","","","","","","","NaN",""
"","S1","","html-keyboard-response","492","574272","0.0-1.0-686.0","0","0","37444","","null","","","null","76","","","","","","","","","","","","","","","",""
"","ISI","","html-keyboard-response","493","576282","0.0-1.0-687.0","0","0","37444","","null","","","null","76","NaN","","","","","","","","","","","","","","",""
"","S2","","html-keyboard-response","494","576546","0.0-1.0-688.0","0","0","37444","","null","","","null","76","","NaN","","","","","","","","","","","","","",""
"","response","","html-keyboard-response","495","577234","0.0-1.0-689.0-0.0","0","0","37444","","683","","","75","76","","","2","76","training","adjacent","BA","2","1","L.jpg","N.jpg","0","0","1","",""
"","feedback","","html-keyboard-response","496","578247","0.0-1.0-690.0-0.0","0","0","37444","","null","","","null","76","","","","","","","","","","","","","","","",""
"","ITI","","html-keyboard-response","497","579267","0.0-1.0-693.0","0","0","37444","","null","","","null","76","","","","","","","","","","","","","","","NaN",""
"","S1","","html-keyboard-response","498","579531","0.0-1.0-695.0","0","0","37444","","null","","","null","77","","","","","","","","","","","","","","","",""
"","ISI","","html-keyboard-response","499","581542","0.0-1.0-696.0","0","0","37444","","null","","","null","77","NaN","","","","","","","","","","","","","","",""
"","S2","","html-keyboard-response","500","581805","0.0-1.0-697.0","0","0","37444","","null","","","null","77","","NaN","","","","","","","","","","","","","",""
"","response","","html-keyboard-response","501","582592","0.0-1.0-698.0-0.0","0","0","37444","","782","","","75","77","","","2","77","training","adjacent","CB","3","2","M.jpg","L.jpg","0","0","1","",""
"","feedback","","html-keyboard-response","502","583601","0.0-1.0-699.0-0.0","0","0","37444","","null","","","null","77","","","","","","","","","","","","","","","",""
"","ITI","","html-keyboard-response","503","584622","0.0-1.0-702.0","0","0","37444","","null","","","null","77","","","","","","","","","","","","","","","NaN",""
"","S1","","html-keyboard-response","504","584884","0.0-1.0-704.0","0","0","37444","","null","","","null","78","","","","","","","","","","","","","","","",""
"","ISI","","html-keyboard-response","505","586894","0.0-1.0-705.0","0","0","37444","","null","","","null","78","NaN","","","","","","","","","","","","","","",""
"","S2","","html-keyboard-response","506","587158","0.0-1.0-706.0","0","0","37444","","null","","","null","78","","NaN","","","","","","","","","","","","","",""
"","response","","html-keyboard-response","507","588152","0.0-1.0-707.0-0.0","0","0","37444","","992","","","75","78","","","2","78","training","adjacent","ED","5","4","R.jpg","P.jpg","0","0","1","",""
"","feedback","","html-keyboard-response","508","589167","0.0-1.0-708.0-0.0","0","0","37444","","null","","","null","78","","","","","","","","","","","","","","","",""
"","ITI","","html-keyboard-response","509","590174","0.0-1.0-711.0","0","0","37444","","null","","","null","78","","","","","","","","","","","","","","","NaN",""
"","S1","","html-keyboard-response","510","590439","0.0-1.0-713.0","0","0","37444","","null","","","null","79","","","","","","","","","","","","","","","",""
"","ISI","","html-keyboard-response","511","592452","0.0-1.0-714.0","0","0","37444","","null","","","null","79","NaN","","","","","","","","","","","","","","",""
"","S2","","html-keyboard-response","512","592716","0.0-1.0-715.0","0","0","37444","","null","","","null","79","","NaN","","","","","","","","","","","","","",""
"","response","","html-keyboard-response","513","593468","0.0-1.0-716.0-0.0","0","0","37444","","748","","","75","79","","","2","79","training","adjacent","FE","6","5","O.jpg","R.jpg","0","0","1","",""
"","feedback","","html-keyboard-response","514","594479","0.0-1.0-717.0-0.0","0","0","37444","","null","","","null","79","","","","","","","","","","","","","","","",""
"","ITI","","html-keyboard-response","515","595487","0.0-1.0-720.0","0","0","37444","","null","","","null","79","","","","","","","","","","","","","","","NaN",""
"","S1","","html-keyboard-response","516","595749","0.0-1.0-722.0","0","0","37444","","null","","","null","80","","","","","","","","","","","","","","","",""
"","ISI","","html-keyboard-response","517","597761","0.0-1.0-723.0","0","0","37444","","null","","","null","80","NaN","","","","","","","","","","","","","","",""
"","S2","","html-keyboard-response","518","598025","0.0-1.0-724.0","0","0","37444","","null","","","null","80","","NaN","","","","","","","","","","","","","",""
"","response","","html-keyboard-response","519","598932","0.0-1.0-725.0-0.0","0","0","37444","","901","","","75","80","","","2","80","training","adjacent","EF","5","6","R.jpg","O.jpg","0","1","0","",""
"","feedback","","html-keyboard-response","520","599940","0.0-1.0-726.0-0.0","0","0","37444","","null","","","null","80","","","","","","","","","","","","","","","",""
"","time_out","","html-keyboard-response","521","601958","0.0-1.0-728.0-0.0","0","0","37444","","null","","","null","80","","","","","","","","","","","","","","","",""
"","ITI","","html-keyboard-response","522","602977","0.0-1.0-729.0","0","0","37444","","null","","","null","80","","","","","","","","","","","","","","","NaN",""
"","S1","","html-keyboard-response","523","603240","0.0-1.0-731.0","0","0","37444","","null","","","null","81","","","","","","","","","","","","","","","",""
"","ISI","","html-keyboard-response","524","605250","0.0-1.0-732.0","0","0","37444","","null","","","null","81","NaN","","","","","","","","","","","","","","",""
"","S2","","html-keyboard-response","525","605514","0.0-1.0-733.0","0","0","37444","","null","","","null","81","","NaN","","","","","","","","","","","","","",""
"","response","","html-keyboard-response","526","606456","0.0-1.0-734.0-0.0","0","0","37444","","938","","","68","81","","","2","81","training","adjacent","GF","7","6","Q.jpg","O.jpg","1","0","0","",""
"","feedback","","html-keyboard-response","527","607462","0.0-1.0-735.0-0.0","0","0","37444","","null","","","null","81","","","","","","","","","","","","","","","",""
"","time_out","","html-keyboard-response","528","609473","0.0-1.0-737.0-0.0","0","0","37444","","null","","","null","81","","","","","","","","","","","","","","","",""
"","ITI","","html-keyboard-response","529","610480","0.0-1.0-738.0","0","0","37444","","null","","","null","81","","","","","","","","","","","","","","","NaN",""
"","S1","","html-keyboard-response","530","610743","0.0-1.0-740.0","0","0","37444","","null","","","null","82","","","","","","","","","","","","","","","",""
"","ISI","","html-keyboard-response","531","612758","0.0-1.0-741.0","0","0","37444","","null","","","null","82","NaN","","","","","","","","","","","","","","",""
"","S2","","html-keyboard-response","532","613021","0.0-1.0-742.0","0","0","37444","","null","","","null","82","","NaN","","","","","","","","","","","","","",""
"","response","","html-keyboard-response","533","613445","0.0-1.0-743.0-0.0","0","0","37444","","421","","","68","82","","","2","82","training","adjacent","DE","4","5","P.jpg","R.jpg","1","1","1","",""
"","feedback","","html-keyboard-response","534","614459","0.0-1.0-744.0-0.0","0","0","37444","","null","","","null","82","","","","","","","","","","","","","","","",""
"","ITI","","html-keyboard-response","535","615462","0.0-1.0-747.0","0","0","37444","","null","","","null","82","","","","","","","","","","","","","","","NaN",""
"","S1","","html-keyboard-response","536","615726","0.0-1.0-749.0","0","0","37444","","null","","","null","83","","","","","","","","","","","","","","","",""
"","ISI","","html-keyboard-response","537","617739","0.0-1.0-750.0","0","0","37444","","null","","","null","83","NaN","","","","","","","","","","","","","","",""
"","S2","","html-keyboard-response","538","618001","0.0-1.0-751.0","0","0","37444","","null","","","null","83","","NaN","","","","","","","","","","","","","",""
"","response","","html-keyboard-response","539","619288","0.0-1.0-752.0-0.0","0","0","37444","","1282","","","68","83","","","2","83","training","adjacent","FG","6","7","O.jpg","Q.jpg","1","1","1","",""
"","feedback","","html-keyboard-response","540","620309","0.0-1.0-753.0-0.0","0","0","37444","","null","","","null","83","","","","","","","","","","","","","","","",""
"","ITI","","html-keyboard-response","541","621318","0.0-1.0-756.0","0","0","37444","","null","","","null","83","","","","","","","","","","","","","","","NaN",""
"","S1","","html-keyboard-response","542","621579","0.0-1.0-758.0","0","0","37444","","null","","","null","84","","","","","","","","","","","","","","","",""
"","ISI","","html-keyboard-response","543","623587","0.0-1.0-759.0","0","0","37444","","null","","","null","84","NaN","","","","","","","","","","","","","","",""
"","S2","","html-keyboard-response","544","623854","0.0-1.0-760.0","0","0","37444","","null","","","null","84","","NaN","","","","","","","","","","","","","",""
"","response","","html-keyboard-response","545","624894","0.0-1.0-761.0-0.0","0","0","37444","","1035","","","75","84","","","2","84","training","adjacent","DC","4","3","P.jpg","M.jpg","0","0","1","",""
"","feedback","","html-keyboard-response","546","625911","0.0-1.0-762.0-0.0","0","0","37444","","null","","","null","84","","","","","","","","","","","","","","","",""
"","ITI","","html-keyboard-response","547","626914","0.0-1.0-765.0","0","0","37444","","null","","","null","84","","","","","","","","","","","","","","","NaN",""
"","S1","","html-keyboard-response","548","627179","0.0-1.0-767.0","0","0","37444","","null","","","null","85","","","","","","","","","","","","","","","",""
"","ISI","","html-keyboard-response","549","629186","0.0-1.0-768.0","0","0","37444","","null","","","null","85","NaN","","","","","","","","","","","","","","",""
"","S2","","html-keyboard-response","550","629449","0.0-1.0-769.0","0","0","37444","","null","","","null","85","","NaN","","","","","","","","","","","","","",""
"","response","","html-keyboard-response","551","630007","0.0-1.0-770.0-0.0","0","0","37444","","555","","","68","85","","","2","85","training","adjacent","CB","3","2","M.jpg","L.jpg","1","0","0","",""
"","feedback","","html-keyboard-response","552","631025","0.0-1.0-771.0-0.0","0","0","37444","","null","","","null","85","","","","","","","","","","","","","","","",""
"","time_out","","html-keyboard-response","553","633033","0.0-1.0-773.0-0.0","0","0","37444","","null","","","null","85","","","","","","","","","","","","","","","",""
"","ITI","","html-keyboard-response","554","634053","0.0-1.0-774.0","0","0","37444","","null","","","null","85","","","","","","","","","","","","","","","NaN",""
"","S1","","html-keyboard-response","555","634317","0.0-1.0-776.0","0","0","37444","","null","","","null","86","","","","","","","","","","","","","","","",""
"","ISI","","html-keyboard-response","556","636331","0.0-1.0-777.0","0","0","37444","","null","","","null","86","NaN","","","","","","","","","","","","","","",""
"","S2","","html-keyboard-response","557","636592","0.0-1.0-778.0","0","0","37444","","null","","","null","86","","NaN","","","","","","","","","","","","","",""
"","response","","html-keyboard-response","558","637564","0.0-1.0-779.0-0.0","0","0","37444","","969","","","75","86","","","2","86","training","adjacent","BA","2","1","L.jpg","N.jpg","0","0","1","",""
"","feedback","","html-keyboard-response","559","638582","0.0-1.0-780.0-0.0","0","0","37444","","null","","","null","86","","","","","","","","","","","","","","","",""
"","ITI","","html-keyboard-response","560","639598","0.0-1.0-783.0","0","0","37444","","null","","","null","86","","","","","","","","","","","","","","","NaN",""
"","S1","","html-keyboard-response","561","639860","0.0-1.0-785.0","0","0","37444","","null","","","null","87","","","","","","","","","","","","","","","",""
"","ISI","","html-keyboard-response","562","641875","0.0-1.0-786.0","0","0","37444","","null","","","null","87","NaN","","","","","","","","","","","","","","",""
"","S2","","html-keyboard-response","563","642138","0.0-1.0-787.0","0","0","37444","","null","","","null","87","","NaN","","","","","","","","","","","","","",""
"","response","","html-keyboard-response","564","642590","0.0-1.0-788.0-0.0","0","0","37444","","448","","","75","87","","","2","87","training","adjacent","CD","3","4","M.jpg","P.jpg","0","1","0","",""
"","feedback","","html-keyboard-response","565","643608","0.0-1.0-789.0-0.0","0","0","37444","","null","","","null","87","","","","","","","","","","","","","","","",""
"","time_out","","html-keyboard-response","566","645616","0.0-1.0-791.0-0.0","0","0","37444","","null","","","null","87","","","","","","","","","","","","","","","",""
"","ITI","","html-keyboard-response","567","646624","0.0-1.0-792.0","0","0","37444","","null","","","null","87","","","","","","","","","","","","","","","NaN",""
"","S1","","html-keyboard-response","568","646885","0.0-1.0-794.0","0","0","37444","","null","","","null","88","","","","","","","","","","","","","","","",""
"","ISI","","html-keyboard-response","569","648896","0.0-1.0-795.0","0","0","37444","","null","","","null","88","NaN","","","","","","","","","","","","","","",""
"","S2","","html-keyboard-response","570","649161","0.0-1.0-796.0","0","0","37444","","null","","","null","88","","NaN","","","","","","","","","","","","","",""
"","response","","html-keyboard-response","571","650647","0.0-1.0-797.0-0.0","0","0","37444","","1483","","","75","88","","","2","88","training","adjacent","DC","4","3","P.jpg","M.jpg","0","0","1","",""
"","feedback","","html-keyboard-response","572","651661","0.0-1.0-798.0-0.0","0","0","37444","","null","","","null","88","","","","","","","","","","","","","","","",""
"","ITI","","html-keyboard-response","573","652671","0.0-1.0-801.0","0","0","37444","","null","","","null","88","","","","","","","","","","","","","","","NaN",""
"","S1","","html-keyboard-response","574","652923","0.0-1.0-803.0","0","0","37444","","null","","","null","89","","","","","","","","","","","","","","","",""
"","ISI","","html-keyboard-response","575","654931","0.0-1.0-804.0","0","0","37444","","null","","","null","89","NaN","","","","","","","","","","","","","","",""
"","S2","","html-keyboard-response","576","655193","0.0-1.0-805.0","0","0","37444","","null","","","null","89","","NaN","","","","","","","","","","","","","",""
"","response","","html-keyboard-response","577","655776","0.0-1.0-806.0-0.0","0","0","37444","","581","","","68","89","","","2","89","training","adjacent","GF","7","6","Q.jpg","O.jpg","1","0","0","",""
"","feedback","","html-keyboard-response","578","656787","0.0-1.0-807.0-0.0","0","0","37444","","null","","","null","89","","","","","","","","","","","","","","","",""
"","time_out","","html-keyboard-response","579","658794","0.0-1.0-809.0-0.0","0","0","37444","","null","","","null","89","","","","","","","","","","","","","","","",""
"","ITI","","html-keyboard-response","580","659800","0.0-1.0-810.0","0","0","37444","","null","","","null","89","","","","","","","","","","","","","","","NaN",""
