"success","ttype","start_time","trial_type","trial_index","time_elapsed","internal_node_id","warning","missed_checkup","PID","view_history","rt","responses","repeat_instructions","key_press","index","keypress_isi","keypress_S2","block","trial_num","phase","group_type","pair_type","S1_stim","S2_stim","S1_img","S2_img","S1_chosen","S1_higher","accuracy","keypress_iti","total_bonus_tally"
"true","full_screen","d04132023hr2045","fullscreen","0","9220","0.0-0.0","0","0","97954","","","","","","","","","","","","","","","","","","","","","",""
"","instructions","","instructions","1","73996","0.0-1.0-0.0-0.0","0","0","97954","[{""page_index"":0,""viewing_time"":6428},{""page_index"":1,""viewing_time"":24400},{""page_index"":2,""viewing_time"":15521},{""page_index"":3,""viewing_time"":18425}]","64774","","","","","","","","","","","","","","","","","","","",""
"","comprehension_check","","survey-multi-choice","2","103358","0.0-1.0-0.0-1.0","0","0","97954","","29361","{""Q0"":""True"",""Q1"":""D"",""Q2"":""Only when the screen 'MAKE A CHOICE' is shown"",""Q3"":""Green mark"",""Q4"":""either D or K""}","1","","","","","","","","","","","","","","","","","",""
"","missed_instruction_checkup","","html-keyboard-response","3","105945","0.0-1.0-0.0-2.0-0.0","0","1","97954","","2586","","","32","","","","","","","","","","","","","","","","",""
"","instructions","","instructions","4","116740","0.0-1.0-0.1-0.1","0","0","97954","[{""page_index"":0,""viewing_time"":2768},{""page_index"":1,""viewing_time"":6636},{""page_index"":2,""viewing_time"":650},{""page_index"":3,""viewing_time"":740}]","10794","","","","","","","","","","","","","","","","","","","",""
"","comprehension_check","","survey-multi-choice","5","128923","0.0-1.0-0.1-1.1","0","0","97954","","12181","{""Q0"":""True"",""Q1"":""D"",""Q2"":""Once the second image appears and while the screen 'MAKE A CHOICE' is shown"",""Q3"":""Green mark"",""Q4"":""either D or K""}","0","","","","","","","","","","","","","","","","","",""
"","start_exp","","html-keyboard-response","6","131780","0.0-1.0-1.0","0","0","97954","","2857","","","32","","","","","","","","","","","","","","","","",""
"","S1","","html-keyboard-response","7","132032","0.0-1.0-2.0","0","0","97954","","null","","","null","0","","","","","","","","","","","","","","","",""
"","ISI","","html-keyboard-response","8","133033","0.0-1.0-3.0","0","0","97954","","null","","","null","0","NaN","","","","","","","","","","","","","","",""
"","S2","","html-keyboard-response","9","133285","0.0-1.0-4.0","0","0","97954","","null","","","null","0","","NaN","","","","","","","","","","","","","",""
"","response","","html-keyboard-response","10","135036","0.0-1.0-5.0-0.0","0","0","97954","","null","","","null","0","","","1","0","training","adjacent","FE","6","5","R.jpg","N.jpg","NaN","0","0","",""
"","too_slow_prompt","","html-keyboard-response","11","136038","0.0-1.0-7.0-0.0","1","0","97954","","null","","","null","","","","","","","","","","","","","","","","",""
"","time_out","","html-keyboard-response","12","138039","0.0-1.0-8.0-0.0","0","0","97954","","null","","","null","0","","","","","","","","","","","","","","","",""
"","ITI","","html-keyboard-response","13","139041","0.0-1.0-9.0","0","0","97954","","null","","","null","0","","","","","","","","","","","","","","","NaN",""
"","S1","","html-keyboard-response","14","139292","0.0-1.0-11.0","0","0","97954","","null","","","null","1","","","","","","","","","","","","","","","",""
"","ISI","","html-keyboard-response","15","140292","0.0-1.0-12.0","0","0","97954","","null","","","null","1","NaN","","","","","","","","","","","","","","",""
"","S2","","html-keyboard-response","16","140544","0.0-1.0-13.0","0","0","97954","","null","","","null","1","","NaN","","","","","","","","","","","","","",""
"","response","","html-keyboard-response","17","140748","0.0-1.0-14.0-0.0","0","0","97954","","204","","","75","1","","","1","1","training","adjacent","ED","5","4","N.jpg","M.jpg","0","0","1","",""
"","feedback","","html-keyboard-response","18","141749","0.0-1.0-15.0-0.0","0","0","97954","","null","","","null","1","","","","","","","","","","","","","","","",""
"","ITI","","html-keyboard-response","19","142750","0.0-1.0-18.0","0","0","97954","","null","","","null","1","","","","","","","","","","","","","","","NaN",""
"","S1","","html-keyboard-response","20","143002","0.0-1.0-20.0","0","0","97954","","null","","","null","2","","","","","","","","","","","","","","","",""
"","ISI","","html-keyboard-response","21","144003","0.0-1.0-21.0","0","0","97954","","null","","","null","2","NaN","","","","","","","","","","","","","","",""
"","S2","","html-keyboard-response","22","144254","0.0-1.0-22.0","0","0","97954","","null","","","null","2","","NaN","","","","","","","","","","","","","",""
"","response","","html-keyboard-response","23","144384","0.0-1.0-23.0-0.0","0","0","97954","","129","","","68","2","","","1","2","training","adjacent","CD","3","4","O.jpg","M.jpg","1","1","1","",""
"","feedback","","html-keyboard-response","24","145385","0.0-1.0-24.0-0.0","0","0","97954","","null","","","null","2","","","","","","","","","","","","","","","",""
"","ITI","","html-keyboard-response","25","146387","0.0-1.0-27.0","0","0","97954","","null","","","null","2","","","","","","","","","","","","","","","NaN",""
"","S1","","html-keyboard-response","26","146638","0.0-1.0-29.0","0","0","97954","","null","","","null","3","","","","","","","","","","","","","","","",""
"","ISI","","html-keyboard-response","27","147640","0.0-1.0-30.0","0","0","97954","","null","","","null","3","NaN","","","","","","","","","","","","","","",""
"","S2","","html-keyboard-response","28","147891","0.0-1.0-31.0","0","0","97954","","null","","","null","3","","NaN","","","","","","","","","","","","","",""
"","response","","html-keyboard-response","29","148036","0.0-1.0-32.0-0.0","0","0","97954","","144","","","68","3","","","1","3","training","adjacent","FG","6","7","R.jpg","Q.jpg","1","1","1","",""
"","feedback","","html-keyboard-response","30","149038","0.0-1.0-33.0-0.0","0","0","97954","","null","","","null","3","","","","","","","","","","","","","","","",""
"","ITI","","html-keyboard-response","31","150039","0.0-1.0-36.0","0","0","97954","","null","","","null","3","","","","","","","","","","","","","","","NaN",""
"","S1","","html-keyboard-response","32","150291","0.0-1.0-38.0","0","0","97954","","null","","","null","4","","","","","","","","","","","","","","","",""
"","ISI","","html-keyboard-response","33","151292","0.0-1.0-39.0","0","0","97954","","null","","","null","4","NaN","","","","","","","","","","","","","","",""
"","S2","","html-keyboard-response","34","151543","0.0-1.0-40.0","0","0","97954","","null","","","null","4","","NaN","","","","","","","","","","","","","",""
"","response","","html-keyboard-response","35","151672","0.0-1.0-41.0-0.0","0","0","97954","","129","","","75","4","","","1","4","training","adjacent","CB","3","2","O.jpg","L.jpg","0","0","1","",""
"","feedback","","html-keyboard-response","36","152673","0.0-1.0-42.0-0.0","0","0","97954","","null","","","null","4","","","","","","","","","","","","","","","",""
"","ITI","","html-keyboard-response","37","153674","0.0-1.0-45.0","0","0","97954","","null","","","null","4","","","","","","","","","","","","","","","NaN",""
"","S1","","html-keyboard-response","38","153925","0.0-1.0-47.0","0","0","97954","","null","","","null","5","","","","","","","","","","","","","","","",""
"","ISI","","html-keyboard-response","39","154926","0.0-1.0-48.0","0","0","97954","","null","","","null","5","NaN","","","","","","","","","","","","","","",""
"","S2","","html-keyboard-response","40","155178","0.0-1.0-49.0","0","0","97954","","null","","","null","5","","NaN","","","","","","","","","","","","","",""
"","response","","html-keyboard-response","41","155344","0.0-1.0-50.0-0.0","0","0","97954","","165","","","68","5","","","1","5","training","adjacent","CB","3","2","O.jpg","L.jpg","1","0","0","",""
"","feedback","","html-keyboard-response","42","156345","0.0-1.0-51.0-0.0","0","0","97954","","null","","","null","5","","","","","","","","","","","","","","","",""
"","time_out","","html-keyboard-response","43","158346","0.0-1.0-53.0-0.0","0","0","97954","","null","","","null","5","","","","","","","","","","","","","","","",""
"","ITI","","html-keyboard-response","44","159347","0.0-1.0-54.0","0","0","97954","","null","","","null","5","","","","","","","","","","","","","","","NaN",""
"","S1","","html-keyboard-response","45","159598","0.0-1.0-56.0","0","0","97954","","null","","","null","6","","","","","","","","","","","","","","","",""
"","ISI","","html-keyboard-response","46","160599","0.0-1.0-57.0","0","0","97954","","null","","","null","6","NaN","","","","","","","","","","","","","","",""
"","S2","","html-keyboard-response","47","160851","0.0-1.0-58.0","0","0","97954","","null","","","null","6","","NaN","","","","","","","","","","","","","",""
"","response","","html-keyboard-response","48","161044","0.0-1.0-59.0-0.0","0","0","97954","","192","","","75","6","","","1","6","training","adjacent","GF","7","6","Q.jpg","R.jpg","0","0","1","",""
"","feedback","","html-keyboard-response","49","162045","0.0-1.0-60.0-0.0","0","0","97954","","null","","","null","6","","","","","","","","","","","","","","","",""
"","ITI","","html-keyboard-response","50","163047","0.0-1.0-63.0","0","0","97954","","null","","","null","6","","","","","","","","","","","","","","","NaN",""
"","S1","","html-keyboard-response","51","163299","0.0-1.0-65.0","0","0","97954","","null","","","null","7","","","","","","","","","","","","","","","",""
"","ISI","","html-keyboard-response","52","164300","0.0-1.0-66.0","0","0","97954","","null","","","null","7","NaN","","","","","","","","","","","","","","",""
"","S2","","html-keyboard-response","53","164552","0.0-1.0-67.0","0","0","97954","","null","","","null","7","","NaN","","","","","","","","","","","","","",""
"","response","","html-keyboard-response","54","164676","0.0-1.0-68.0-0.0","0","0","97954","","123","","","68","7","","","1","7","training","adjacent","DC","4","3","M.jpg","O.jpg","1","0","0","",""
"","feedback","","html-keyboard-response","55","165677","0.0-1.0-69.0-0.0","0","0","97954","","null","","","null","7","","","","","","","","","","","","","","","",""
"","time_out","","html-keyboard-response","56","167679","0.0-1.0-71.0-0.0","0","0","97954","","null","","","null","7","","","","","","","","","","","","","","","",""
"","ITI","","html-keyboard-response","57","168680","0.0-1.0-72.0","0","0","97954","","null","","","null","7","","","","","","","","","","","","","","","NaN",""
"","S1","","html-keyboard-response","58","168932","0.0-1.0-74.0","0","0","97954","","null","","","null","8","","","","","","","","","","","","","","","",""
"","ISI","","html-keyboard-response","59","169933","0.0-1.0-75.0","0","0","97954","","null","","","null","8","NaN","","","","","","","","","","","","","","",""
"","S2","","html-keyboard-response","60","170184","0.0-1.0-76.0","0","0","97954","","null","","","null","8","","NaN","","","","","","","","","","","","","",""
"","response","","html-keyboard-response","61","170451","0.0-1.0-77.0-0.0","0","0","97954","","267","","","68","8","","","1","8","training","adjacent","BA","2","1","L.jpg","P.jpg","1","0","0","",""
"","feedback","","html-keyboard-response","62","171453","0.0-1.0-78.0-0.0","0","0","97954","","null","","","null","8","","","","","","","","","","","","","","","",""
"","time_out","","html-keyboard-response","63","173455","0.0-1.0-80.0-0.0","0","0","97954","","null","","","null","8","","","","","","","","","","","","","","","",""
"","ITI","","html-keyboard-response","64","174456","0.0-1.0-81.0","0","0","97954","","null","","","null","8","","","","","","","","","","","","","","","NaN",""
"","S1","","html-keyboard-response","65","174707","0.0-1.0-83.0","0","0","97954","","null","","","null","9","","","","","","","","","","","","","","","",""
"","ISI","","html-keyboard-response","66","175708","0.0-1.0-84.0","0","0","97954","","null","","","null","9","NaN","","","","","","","","","","","","","","",""
"","S2","","html-keyboard-response","67","175960","0.0-1.0-85.0","0","0","97954","","null","","","null","9","","NaN","","","","","","","","","","","","","",""
"","response","","html-keyboard-response","68","176491","0.0-1.0-86.0-0.0","0","0","97954","","531","","","68","9","","","1","9","training","adjacent","AB","1","2","P.jpg","L.jpg","1","1","1","",""
"","feedback","","html-keyboard-response","69","177492","0.0-1.0-87.0-0.0","0","0","97954","","null","","","null","9","","","","","","","","","","","","","","","",""
"","ITI","","html-keyboard-response","70","178501","0.0-1.0-90.0","0","0","97954","","null","","","null","9","","","","","","","","","","","","","","","NaN",""
"","S1","","html-keyboard-response","71","178753","0.0-1.0-92.0","0","0","97954","","null","","","null","10","","","","","","","","","","","","","","","",""
"","ISI","","html-keyboard-response","72","179754","0.0-1.0-93.0","0","0","97954","","null","","","null","10","NaN","","","","","","","","","","","","","","",""
"","S2","","html-keyboard-response","73","180005","0.0-1.0-94.0","0","0","97954","","null","","","null","10","","NaN","","","","","","","","","","","","","",""
"","response","","html-keyboard-response","74","180391","0.0-1.0-95.0-0.0","0","0","97954","","385","","","75","10","","","1","10","training","adjacent","EF","5","6","N.jpg","R.jpg","0","1","0","",""
"","feedback","","html-keyboard-response","75","181392","0.0-1.0-96.0-0.0","0","0","97954","","null","","","null","10","","","","","","","","","","","","","","","",""
"","time_out","","html-keyboard-response","76","183393","0.0-1.0-98.0-0.0","0","0","97954","","null","","","null","10","","","","","","","","","","","","","","","",""
"","ITI","","html-keyboard-response","77","184395","0.0-1.0-99.0","0","0","97954","","null","","","null","10","","","","","","","","","","","","","","","NaN",""
"","S1","","html-keyboard-response","78","184646","0.0-1.0-101.0","0","0","97954","","null","","","null","11","","","","","","","","","","","","","","","",""
"","ISI","","html-keyboard-response","79","185647","0.0-1.0-102.0","0","0","97954","","null","","","null","11","NaN","","","","","","","","","","","","","","",""
"","S2","","html-keyboard-response","80","185899","0.0-1.0-103.0","0","0","97954","","null","","","null","11","","NaN","","","","","","","","","","","","","",""
"","response","","html-keyboard-response","81","186403","0.0-1.0-104.0-0.0","0","0","97954","","503","","","75","11","","","1","11","training","adjacent","EF","5","6","N.jpg","R.jpg","0","1","0","",""
"","feedback","","html-keyboard-response","82","187404","0.0-1.0-105.0-0.0","0","0","97954","","null","","","null","11","","","","","","","","","","","","","","","",""
"","time_out","","html-keyboard-response","83","189405","0.0-1.0-107.0-0.0","0","0","97954","","null","","","null","11","","","","","","","","","","","","","","","",""
"","ITI","","html-keyboard-response","84","190407","0.0-1.0-108.0","0","0","97954","","null","","","null","11","","","","","","","","","","","","","","","NaN",""
"","S1","","html-keyboard-response","85","190659","0.0-1.0-110.0","0","0","97954","","null","","","null","12","","","","","","","","","","","","","","","",""
"","ISI","","html-keyboard-response","86","191660","0.0-1.0-111.0","0","0","97954","","null","","","null","12","NaN","","","","","","","","","","","","","","",""
"","S2","","html-keyboard-response","87","191912","0.0-1.0-112.0","0","0","97954","","null","","","null","12","","NaN","","","","","","","","","","","","","",""
"","response","","html-keyboard-response","88","192011","0.0-1.0-113.0-0.0","0","0","97954","","98","","","68","12","","","1","12","training","adjacent","DC","4","3","M.jpg","O.jpg","1","0","0","",""
"","feedback","","html-keyboard-response","89","193013","0.0-1.0-114.0-0.0","0","0","97954","","null","","","null","12","","","","","","","","","","","","","","","",""
"","time_out","","html-keyboard-response","90","195014","0.0-1.0-116.0-0.0","0","0","97954","","null","","","null","12","","","","","","","","","","","","","","","",""
"","ITI","","html-keyboard-response","91","196016","0.0-1.0-117.0","0","0","97954","","null","","","null","12","","","","","","","","","","","","","","","NaN",""
"","S1","","html-keyboard-response","92","196279","0.0-1.0-119.0","0","0","97954","","null","","","null","13","","","","","","","","","","","","","","","",""
"","ISI","","html-keyboard-response","93","197280","0.0-1.0-120.0","0","0","97954","","null","","","null","13","NaN","","","","","","","","","","","","","","",""
"","S2","","html-keyboard-response","94","197531","0.0-1.0-121.0","0","0","97954","","null","","","null","13","","NaN","","","","","","","","","","","","","",""
"","response","","html-keyboard-response","95","197990","0.0-1.0-122.0-0.0","0","0","97954","","459","","","75","13","","","1","13","training","adjacent","ED","5","4","N.jpg","M.jpg","0","0","1","",""
"","feedback","","html-keyboard-response","96","198991","0.0-1.0-123.0-0.0","0","0","97954","","null","","","null","13","","","","","","","","","","","","","","","",""
"","ITI","","html-keyboard-response","97","199993","0.0-1.0-126.0","0","0","97954","","null","","","null","13","","","","","","","","","","","","","","","NaN",""
"","S1","","html-keyboard-response","98","200245","0.0-1.0-128.0","0","0","97954","","null","","","null","14","","","","","","","","","","","","","","","",""
"","ISI","","html-keyboard-response","99","201247","0.0-1.0-129.0","0","0","97954","","null","","","null","14","NaN","","","","","","","","","","","","","","",""
"","S2","","html-keyboard-response","100","201498","0.0-1.0-130.0","0","0","97954","","null","","","null","14","","NaN","","","","","","","","","","","","","",""
"","response","","html-keyboard-response","101","202118","0.0-1.0-131.0-0.0","0","0","97954","","620","","","68","14","","","1","14","training","adjacent","DE","4","5","M.jpg","N.jpg","1","1","1","",""
"","feedback","","html-keyboard-response","102","203120","0.0-1.0-132.0-0.0","0","0","97954","","null","","","null","14","","","","","","","","","","","","","","","",""
"","ITI","","html-keyboard-response","103","204122","0.0-1.0-135.0","0","0","97954","","null","","","null","14","","","","","","","","","","","","","","","NaN",""
"","S1","","html-keyboard-response","104","204373","0.0-1.0-137.0","0","0","97954","","null","","","null","15","","","","","","","","","","","","","","","",""
"","ISI","","html-keyboard-response","105","205374","0.0-1.0-138.0","0","0","97954","","null","","","null","15","NaN","","","","","","","","","","","","","","",""
"","S2","","html-keyboard-response","106","205626","0.0-1.0-139.0","0","0","97954","","null","","","null","15","","NaN","","","","","","","","","","","","","",""
"","response","","html-keyboard-response","107","206118","0.0-1.0-140.0-0.0","0","0","97954","","492","","","75","15","","","1","15","training","adjacent","BA","2","1","L.jpg","P.jpg","0","0","1","",""
"","feedback","","html-keyboard-response","108","207120","0.0-1.0-141.0-0.0","0","0","97954","","null","","","null","15","","","","","","","","","","","","","","","",""
"","ITI","","html-keyboard-response","109","208122","0.0-1.0-144.0","0","0","97954","","null","","","null","15","","","","","","","","","","","","","","","NaN",""
"","S1","","html-keyboard-response","110","208374","0.0-1.0-146.0","0","0","97954","","null","","","null","16","","","","","","","","","","","","","","","",""
"","ISI","","html-keyboard-response","111","209375","0.0-1.0-147.0","0","0","97954","","null","","","null","16","NaN","","","","","","","","","","","","","","",""
"","S2","","html-keyboard-response","112","209626","0.0-1.0-148.0","0","0","97954","","null","","","null","16","","NaN","","","","","","","","","","","","","",""
"","response","","html-keyboard-response","113","209982","0.0-1.0-149.0-0.0","0","0","97954","","355","","","68","16","","","1","16","training","adjacent","FG","6","7","R.jpg","Q.jpg","1","1","1","",""
"","feedback","","html-keyboard-response","114","210983","0.0-1.0-150.0-0.0","0","0","97954","","null","","","null","16","","","","","","","","","","","","","","","",""
"","ITI","","html-keyboard-response","115","211985","0.0-1.0-153.0","0","0","97954","","null","","","null","16","","","","","","","","","","","","","","","NaN",""
"","S1","","html-keyboard-response","116","212236","0.0-1.0-155.0","0","0","97954","","null","","","null","17","","","","","","","","","","","","","","","",""
"","ISI","","html-keyboard-response","117","213238","0.0-1.0-156.0","0","0","97954","","null","","","null","17","NaN","","","","","","","","","","","","","","",""
"","S2","","html-keyboard-response","118","213489","0.0-1.0-157.0","0","0","97954","","null","","","null","17","","NaN","","","","","","","","","","","","","",""
"","response","","html-keyboard-response","119","213898","0.0-1.0-158.0-0.0","0","0","97954","","409","","","68","17","","","1","17","training","adjacent","DE","4","5","M.jpg","N.jpg","1","1","1","",""
"","feedback","","html-keyboard-response","120","214915","0.0-1.0-159.0-0.0","0","0","97954","","null","","","null","17","","","","","","","","","","","","","","","",""
"","ITI","","html-keyboard-response","121","215917","0.0-1.0-162.0","0","0","97954","","null","","","null","17","","","","","","","","","","","","","","","NaN",""
"","S1","","html-keyboard-response","122","216169","0.0-1.0-164.0","0","0","97954","","null","","","null","18","","","","","","","","","","","","","","","",""
"","ISI","","html-keyboard-response","123","217171","0.0-1.0-165.0","0","0","97954","","null","","","null","18","NaN","","","","","","","","","","","","","","",""
"","S2","","html-keyboard-response","124","217422","0.0-1.0-166.0","0","0","97954","","null","","","null","18","","NaN","","","","","","","","","","","","","",""
"","response","","html-keyboard-response","125","217926","0.0-1.0-167.0-0.0","0","0","97954","","503","","","75","18","","","1","18","training","adjacent","DE","4","5","M.jpg","N.jpg","0","1","0","",""
"","feedback","","html-keyboard-response","126","218927","0.0-1.0-168.0-0.0","0","0","97954","","null","","","null","18","","","","","","","","","","","","","","","",""
"","time_out","","html-keyboard-response","127","220929","0.0-1.0-170.0-0.0","0","0","97954","","null","","","null","18","","","","","","","","","","","","","","","",""
"","ITI","","html-keyboard-response","128","221930","0.0-1.0-171.0","0","0","97954","","null","","","null","18","","","","","","","","","","","","","","","NaN",""
"","S1","","html-keyboard-response","129","222181","0.0-1.0-173.0","0","0","97954","","null","","","null","19","","","","","","","","","","","","","","","",""
"","ISI","","html-keyboard-response","130","223182","0.0-1.0-174.0","0","0","97954","","null","","","null","19","NaN","","","","","","","","","","","","","","",""
"","S2","","html-keyboard-response","131","223433","0.0-1.0-175.0","0","0","97954","","null","","","null","19","","NaN","","","","","","","","","","","","","",""
"","response","","html-keyboard-response","132","223722","0.0-1.0-176.0-0.0","0","0","97954","","288","","","68","19","","","1","19","training","adjacent","DC","4","3","M.jpg","O.jpg","1","0","0","",""
"","feedback","","html-keyboard-response","133","224723","0.0-1.0-177.0-0.0","0","0","97954","","null","","","null","19","","","","","","","","","","","","","","","",""
"","time_out","","html-keyboard-response","134","226724","0.0-1.0-179.0-0.0","0","0","97954","","null","","","null","19","","","","","","","","","","","","","","","",""
"","ITI","","html-keyboard-response","135","227726","0.0-1.0-180.0","0","0","97954","","null","","","null","19","","","","","","","","","","","","","","","NaN",""
"","S1","","html-keyboard-response","136","227977","0.0-1.0-182.0","0","0","97954","","null","","","null","20","","","","","","","","","","","","","","","",""
"","ISI","","html-keyboard-response","137","228979","0.0-1.0-183.0","0","0","97954","","null","","","null","20","NaN","","","","","","","","","","","","","","",""
"","S2","","html-keyboard-response","138","229231","0.0-1.0-184.0","0","0","97954","","null","","","null","20","","NaN","","","","","","","","","","","","","",""
"","response","","html-keyboard-response","139","229525","0.0-1.0-185.0-0.0","0","0","97954","","294","","","75","20","","","1","20","training","adjacent","CD","3","4","O.jpg","M.jpg","0","1","0","",""
"","feedback","","html-keyboard-response","140","230527","0.0-1.0-186.0-0.0","0","0","97954","","null","","","null","20","","","","","","","","","","","","","","","",""
"","time_out","","html-keyboard-response","141","232529","0.0-1.0-188.0-0.0","0","0","97954","","null","","","null","20","","","","","","","","","","","","","","","",""
"","ITI","","html-keyboard-response","142","233530","0.0-1.0-189.0","0","0","97954","","null","","","null","20","","","","","","","","","","","","","","","NaN",""
"","S1","","html-keyboard-response","143","233781","0.0-1.0-191.0","0","0","97954","","null","","","null","21","","","","","","","","","","","","","","","",""
"","ISI","","html-keyboard-response","144","234783","0.0-1.0-192.0","0","0","97954","","null","","","null","21","NaN","","","","","","","","","","","","","","",""
"","S2","","html-keyboard-response","145","235034","0.0-1.0-193.0","0","0","97954","","null","","","null","21","","NaN","","","","","","","","","","","","","",""
"","response","","html-keyboard-response","146","235337","0.0-1.0-194.0-0.0","0","0","97954","","303","","","68","21","","","1","21","training","adjacent","AB","1","2","P.jpg","L.jpg","1","1","1","",""
"","feedback","","html-keyboard-response","147","236339","0.0-1.0-195.0-0.0","0","0","97954","","null","","","null","21","","","","","","","","","","","","","","","",""
"","ITI","","html-keyboard-response","148","237340","0.0-1.0-198.0","0","0","97954","","null","","","null","21","","","","","","","","","","","","","","","NaN",""
"","S1","","html-keyboard-response","149","237592","0.0-1.0-200.0","0","0","97954","","null","","","null","22","","","","","","","","","","","","","","","",""
"","ISI","","html-keyboard-response","150","238593","0.0-1.0-201.0","0","0","97954","","null","","","null","22","NaN","","","","","","","","","","","","","","",""
"","S2","","html-keyboard-response","151","238844","0.0-1.0-202.0","0","0","97954","","null","","","null","22","","NaN","","","","","","","","","","","","","",""
"","response","","html-keyboard-response","152","238989","0.0-1.0-203.0-0.0","0","0","97954","","144","","","68","22","","","1","22","training","adjacent","FG","6","7","R.jpg","Q.jpg","1","1","1","",""
"","feedback","","html-keyboard-response","153","239990","0.0-1.0-204.0-0.0","0","0","97954","","null","","","null","22","","","","","","","","","","","","","","","",""
"","ITI","","html-keyboard-response","154","240991","0.0-1.0-207.0","0","0","97954","","null","","","null","22","","","","","","","","","","","","","","","NaN",""
"","S1","","html-keyboard-response","155","241242","0.0-1.0-209.0","0","0","97954","","null","","","null","23","","","","","","","","","","","","","","","",""
"","ISI","","html-keyboard-response","156","242244","0.0-1.0-210.0","0","0","97954","","null","","","null","23","NaN","","","","","","","","","","","","","","",""
"","S2","","html-keyboard-response","157","242495","0.0-1.0-211.0","0","0","97954","","null","","","null","23","","NaN","","","","","","","","","","","","","",""
"","response","","html-keyboard-response","158","242881","0.0-1.0-212.0-0.0","0","0","97954","","385","","","75","23","","","1","23","training","adjacent","BA","2","1","L.jpg","P.jpg","0","0","1","",""
"","feedback","","html-keyboard-response","159","243883","0.0-1.0-213.0-0.0","0","0","97954","","null","","","null","23","","","","","","","","","","","","","","","",""
"","ITI","","html-keyboard-response","160","244884","0.0-1.0-216.0","0","0","97954","","null","","","null","23","","","","","","","","","","","","","","","NaN",""
"","S1","","html-keyboard-response","161","245135","0.0-1.0-218.0","0","0","97954","","null","","","null","24","","","","","","","","","","","","","","","",""
"","ISI","","html-keyboard-response","162","246138","0.0-1.0-219.0","0","0","97954","","null","","","null","24","NaN","","","","","","","","","","","","","","",""
"","S2","","html-keyboard-response","163","246390","0.0-1.0-220.0","0","0","97954","","null","","","null","24","","NaN","","","","","","","","","","","","","",""
"","response","","html-keyboard-response","164","246549","0.0-1.0-221.0-0.0","0","0","97954","","158","","","68","24","","","1","24","training","adjacent","BC","2","3","L.jpg","O.jpg","1","1","1","",""
"","feedback","","html-keyboard-response","165","247551","0.0-1.0-222.0-0.0","0","0","97954","","null","","","null","24","","","","","","","","","","","","","","","",""
"","ITI","","html-keyboard-response","166","248552","0.0-1.0-225.0","0","0","97954","","null","","","null","24","","","","","","","","","","","","","","","NaN",""
"","S1","","html-keyboard-response","167","248804","0.0-1.0-227.0","0","0","97954","","null","","","null","25","","","","","","","","","","","","","","","",""
"","ISI","","html-keyboard-response","168","249806","0.0-1.0-228.0","0","0","97954","","null","","","null","25","NaN","","","","","","","","","","","","","","",""
"","S2","","html-keyboard-response","169","250063","0.0-1.0-229.0","0","0","97954","","null","","","null","25","","NaN","","","","","","","","","","","","","",""
"","response","","html-keyboard-response","170","250072","0.0-1.0-230.0-0.0","0","0","97954","","9","","","68","25","","","1","25","training","adjacent","DC","4","3","M.jpg","O.jpg","1","0","0","",""
"","feedback","","html-keyboard-response","171","251074","0.0-1.0-231.0-0.0","0","0","97954","","null","","","null","25","","","","","","","","","","","","","","","",""
"","time_out","","html-keyboard-response","172","253075","0.0-1.0-233.0-0.0","0","0","97954","","null","","","null","25","","","","","","","","","","","","","","","",""
"","ITI","","html-keyboard-response","173","254076","0.0-1.0-234.0","0","0","97954","","null","","","null","25","","","","","","","","","","","","","","","NaN",""
"","S1","","html-keyboard-response","174","254328","0.0-1.0-236.0","0","0","97954","","null","","","null","26","","","","","","","","","","","","","","","",""
"","ISI","","html-keyboard-response","175","255329","0.0-1.0-237.0","0","0","97954","","null","","","null","26","NaN","","","","","","","","","","","","","","",""
"","S2","","html-keyboard-response","176","255580","0.0-1.0-238.0","0","0","97954","","null","","","null","26","","NaN","","","","","","","","","","","","","",""
"","response","","html-keyboard-response","177","255672","0.0-1.0-239.0-0.0","0","0","97954","","92","","","75","26","","","1","26","training","adjacent","GF","7","6","Q.jpg","R.jpg","0","0","1","",""
"","feedback","","html-keyboard-response","178","256674","0.0-1.0-240.0-0.0","0","0","97954","","null","","","null","26","","","","","","","","","","","","","","","",""
"","ITI","","html-keyboard-response","179","257675","0.0-1.0-243.0","0","0","97954","","null","","","null","26","","","","","","","","","","","","","","","NaN",""
"","S1","","html-keyboard-response","180","257926","0.0-1.0-245.0","0","0","97954","","null","","","null","27","","","","","","","","","","","","","","","",""
"","ISI","","html-keyboard-response","181","258928","0.0-1.0-246.0","0","0","97954","","null","","","null","27","NaN","","","","","","","","","","","","","","",""
"","S2","","html-keyboard-response","182","259179","0.0-1.0-247.0","0","0","97954","","null","","","null","27","","NaN","","","","","","","","","","","","","",""
"","response","","html-keyboard-response","183","259368","0.0-1.0-248.0-0.0","0","0","97954","","189","","","68","27","","","1","27","training","adjacent","FE","6","5","R.jpg","N.jpg","1","0","0","",""
"","feedback","","html-keyboard-response","184","260370","0.0-1.0-249.0-0.0","0","0","97954","","null","","","null","27","","","","","","","","","","","","","","","",""
"","time_out","","html-keyboard-response","185","262371","0.0-1.0-251.0-0.0","0","0","97954","","null","","","null","27","","","","","","","","","","","","","","","",""
"","ITI","","html-keyboard-response","186","263373","0.0-1.0-252.0","0","0","97954","","null","","","null","27","","","","","","","","","","","","","","","NaN",""
"","S1","","html-keyboard-response","187","263625","0.0-1.0-254.0","0","0","97954","","null","","","null","28","","","","","","","","","","","","","","","",""
"","ISI","","html-keyboard-response","188","264626","0.0-1.0-255.0","0","0","97954","","null","","","null","28","NaN","","","","","","","","","","","","","","",""
"","S2","","html-keyboard-response","189","264879","0.0-1.0-256.0","0","0","97954","","null","","","null","28","","NaN","","","","","","","","","","","","","",""
"","response","","html-keyboard-response","190","265152","0.0-1.0-257.0-0.0","0","0","97954","","273","","","75","28","","","1","28","training","adjacent","EF","5","6","N.jpg","R.jpg","0","1","0","",""
"","feedback","","html-keyboard-response","191","266154","0.0-1.0-258.0-0.0","0","0","97954","","null","","","null","28","","","","","","","","","","","","","","","",""
"","time_out","","html-keyboard-response","192","268156","0.0-1.0-260.0-0.0","0","0","97954","","null","","","null","28","","","","","","","","","","","","","","","",""
"","ITI","","html-keyboard-response","193","269157","0.0-1.0-261.0","0","0","97954","","null","","","null","28","","","","","","","","","","","","","","","NaN",""
"","S1","","html-keyboard-response","194","269409","0.0-1.0-263.0","0","0","97954","","null","","","null","29","","","","","","","","","","","","","","","",""
"","ISI","","html-keyboard-response","195","270411","0.0-1.0-264.0","0","0","97954","","null","","","null","29","NaN","","","","","","","","","","","","","","",""
"","S2","","html-keyboard-response","196","270662","0.0-1.0-265.0","0","0","97954","","null","","","null","29","","NaN","","","","","","","","","","","","","",""
"","response","","html-keyboard-response","197","270988","0.0-1.0-266.0-0.0","0","0","97954","","326","","","68","29","","","1","29","training","adjacent","BC","2","3","L.jpg","O.jpg","1","1","1","",""
"","feedback","","html-keyboard-response","198","271999","0.0-1.0-267.0-0.0","0","0","97954","","null","","","null","29","","","","","","","","","","","","","","","",""
"","ITI","","html-keyboard-response","199","273000","0.0-1.0-270.0","0","0","97954","","null","","","null","29","","","","","","","","","","","","","","","NaN",""
"","S1","","html-keyboard-response","200","273252","0.0-1.0-272.0","0","0","97954","","null","","","null","30","","","","","","","","","","","","","","","",""
"","ISI","","html-keyboard-response","201","274253","0.0-1.0-273.0","0","0","97954","","null","","","null","30","NaN","","","","","","","","","","","","","","",""
"","S2","","html-keyboard-response","202","274505","0.0-1.0-274.0","0","0","97954","","null","","","null","30","","NaN","","","","","","","","","","","","","",""
"","response","","html-keyboard-response","203","274628","0.0-1.0-275.0-0.0","0","0","97954","","122","","","68","30","","","1","30","training","adjacent","FG","6","7","R.jpg","Q.jpg","1","1","1","",""
"","feedback","","html-keyboard-response","204","275629","0.0-1.0-276.0-0.0","0","0","97954","","null","","","null","30","","","","","","","","","","","","","","","",""
"","ITI","","html-keyboard-response","205","276631","0.0-1.0-279.0","0","0","97954","","null","","","null","30","","","","","","","","","","","","","","","NaN",""
"","S1","","html-keyboard-response","206","276882","0.0-1.0-281.0","0","0","97954","","null","","","null","31","","","","","","","","","","","","","","","",""
"","ISI","","html-keyboard-response","207","277883","0.0-1.0-282.0","0","0","97954","","null","","","null","31","NaN","","","","","","","","","","","","","","",""
"","S2","","html-keyboard-response","208","278134","0.0-1.0-283.0","0","0","97954","","null","","","null","31","","NaN","","","","","","","","","","","","","",""
"","response","","html-keyboard-response","209","278436","0.0-1.0-284.0-0.0","0","0","97954","","301","","","75","31","","","1","31","training","adjacent","CD","3","4","O.jpg","M.jpg","0","1","0","",""
"","feedback","","html-keyboard-response","210","279438","0.0-1.0-285.0-0.0","0","0","97954","","null","","","null","31","","","","","","","","","","","","","","","",""
"","time_out","","html-keyboard-response","211","281440","0.0-1.0-287.0-0.0","0","0","97954","","null","","","null","31","","","","","","","","","","","","","","","",""
"","ITI","","html-keyboard-response","212","282441","0.0-1.0-288.0","0","0","97954","","null","","","null","31","","","","","","","","","","","","","","","NaN",""
"","S1","","html-keyboard-response","213","282693","0.0-1.0-290.0","0","0","97954","","null","","","null","32","","","","","","","","","","","","","","","",""
"","ISI","","html-keyboard-response","214","283694","0.0-1.0-291.0","0","0","97954","","null","","","null","32","NaN","","","","","","","","","","","","","","",""
"","S2","","html-keyboard-response","215","283945","0.0-1.0-292.0","0","0","97954","","null","","","null","32","","NaN","","","","","","","","","","","","","",""
"","response","","html-keyboard-response","216","284316","0.0-1.0-293.0-0.0","0","0","97954","","370","","","68","32","","","1","32","training","adjacent","AB","1","2","P.jpg","L.jpg","1","1","1","",""
"","feedback","","html-keyboard-response","217","285317","0.0-1.0-294.0-0.0","0","0","97954","","null","","","null","32","","","","","","","","","","","","","","","",""
"","ITI","","html-keyboard-response","218","286319","0.0-1.0-297.0","0","0","97954","","null","","","null","32","","","","","","","","","","","","","","","NaN",""
"","S1","","html-keyboard-response","219","286570","0.0-1.0-299.0","0","0","97954","","null","","","null","33","","","","","","","","","","","","","","","",""
"","ISI","","html-keyboard-response","220","287571","0.0-1.0-300.0","0","0","97954","","null","","","null","33","NaN","","","","","","","","","","","","","","",""
"","S2","","html-keyboard-response","221","287822","0.0-1.0-301.0","0","0","97954","","null","","","null","33","","NaN","","","","","","","","","","","","","",""
"","response","","html-keyboard-response","222","288023","0.0-1.0-302.0-0.0","0","0","97954","","201","","","75","33","","","1","33","training","adjacent","FE","6","5","R.jpg","N.jpg","0","0","1","",""
"","feedback","","html-keyboard-response","223","289025","0.0-1.0-303.0-0.0","0","0","97954","","null","","","null","33","","","","","","","","","","","","","","","",""
"","ITI","","html-keyboard-response","224","290026","0.0-1.0-306.0","0","0","97954","","null","","","null","33","","","","","","","","","","","","","","","NaN",""
"","S1","","html-keyboard-response","225","290277","0.0-1.0-308.0","0","0","97954","","null","","","null","34","","","","","","","","","","","","","","","",""
"","ISI","","html-keyboard-response","226","291279","0.0-1.0-309.0","0","0","97954","","null","","","null","34","NaN","","","","","","","","","","","","","","",""
"","S2","","html-keyboard-response","227","291531","0.0-1.0-310.0","0","0","97954","","null","","","null","34","","NaN","","","","","","","","","","","","","",""
"","response","","html-keyboard-response","228","291855","0.0-1.0-311.0-0.0","0","0","97954","","324","","","68","34","","","1","34","training","adjacent","CB","3","2","O.jpg","L.jpg","1","0","0","",""
"","feedback","","html-keyboard-response","229","292856","0.0-1.0-312.0-0.0","0","0","97954","","null","","","null","34","","","","","","","","","","","","","","","",""
"","time_out","","html-keyboard-response","230","294858","0.0-1.0-314.0-0.0","0","0","97954","","null","","","null","34","","","","","","","","","","","","","","","",""
"","ITI","","html-keyboard-response","231","295860","0.0-1.0-315.0","0","0","97954","","null","","","null","34","","","","","","","","","","","","","","","NaN",""
"","S1","","html-keyboard-response","232","296112","0.0-1.0-317.0","0","0","97954","","null","","","null","35","","","","","","","","","","","","","","","",""
"","ISI","","html-keyboard-response","233","297113","0.0-1.0-318.0","0","0","97954","","null","","","null","35","NaN","","","","","","","","","","","","","","",""
"","S2","","html-keyboard-response","234","297365","0.0-1.0-319.0","0","0","97954","","null","","","null","35","","NaN","","","","","","","","","","","","","",""
"","response","","html-keyboard-response","235","297619","0.0-1.0-320.0-0.0","0","0","97954","","254","","","68","35","","","1","35","training","adjacent","ED","5","4","N.jpg","M.jpg","1","0","0","",""
"","feedback","","html-keyboard-response","236","298621","0.0-1.0-321.0-0.0","0","0","97954","","null","","","null","35","","","","","","","","","","","","","","","",""
"","time_out","","html-keyboard-response","237","300623","0.0-1.0-323.0-0.0","0","0","97954","","null","","","null","35","","","","","","","","","","","","","","","",""
"","ITI","","html-keyboard-response","238","301624","0.0-1.0-324.0","0","0","97954","","null","","","null","35","","","","","","","","","","","","","","","NaN",""
"","S1","","html-keyboard-response","239","301876","0.0-1.0-326.0","0","0","97954","","null","","","null","36","","","","","","","","","","","","","","","",""
"","ISI","","html-keyboard-response","240","302877","0.0-1.0-327.0","0","0","97954","","null","","","null","36","NaN","","","","","","","","","","","","","","",""
"","S2","","html-keyboard-response","241","303129","0.0-1.0-328.0","0","0","97954","","null","","","null","36","","NaN","","","","","","","","","","","","","",""
"","response","","html-keyboard-response","242","303235","0.0-1.0-329.0-0.0","0","0","97954","","105","","","75","36","","","1","36","training","adjacent","ED","5","4","N.jpg","M.jpg","0","0","1","",""
"","feedback","","html-keyboard-response","243","304236","0.0-1.0-330.0-0.0","0","0","97954","","null","","","null","36","","","","","","","","","","","","","","","",""
"","ITI","","html-keyboard-response","244","305237","0.0-1.0-333.0","0","0","97954","","null","","","null","36","","","","","","","","","","","","","","","NaN",""
"","S1","","html-keyboard-response","245","305489","0.0-1.0-335.0","0","0","97954","","null","","","null","37","","","","","","","","","","","","","","","",""
"","ISI","","html-keyboard-response","246","306490","0.0-1.0-336.0","0","0","97954","","null","","","null","37","NaN","","","","","","","","","","","","","","",""
"","S2","","html-keyboard-response","247","306741","0.0-1.0-337.0","0","0","97954","","null","","","null","37","","NaN","","","","","","","","","","","","","",""
"","response","","html-keyboard-response","248","307075","0.0-1.0-338.0-0.0","0","0","97954","","332","","","68","37","","","1","37","training","adjacent","AB","1","2","P.jpg","L.jpg","1","1","1","",""
"","feedback","","html-keyboard-response","249","308076","0.0-1.0-339.0-0.0","0","0","97954","","null","","","null","37","","","","","","","","","","","","","","","",""
"","ITI","","html-keyboard-response","250","309078","0.0-1.0-342.0","0","0","97954","","null","","","null","37","","","","","","","","","","","","","","","NaN",""
"","S1","","html-keyboard-response","251","309330","0.0-1.0-344.0","0","0","97954","","null","","","null","38","","","","","","","","","","","","","","","",""
"","ISI","","html-keyboard-response","252","310331","0.0-1.0-345.0","0","0","97954","","null","","","null","38","NaN","","","","","","","","","","","","","","",""
"","S2","","html-keyboard-response","253","310582","0.0-1.0-346.0","0","0","97954","","null","","","null","38","","NaN","","","","","","","","","","","","","",""
"","response","","html-keyboard-response","254","310967","0.0-1.0-347.0-0.0","0","0","97954","","384","","","75","38","","","1","38","training","adjacent","EF","5","6","N.jpg","R.jpg","0","1","0","",""
"","feedback","","html-keyboard-response","255","311968","0.0-1.0-348.0-0.0","0","0","97954","","null","","","null","38","","","","","","","","","","","","","","","",""
"","time_out","","html-keyboard-response","256","313970","0.0-1.0-350.0-0.0","0","0","97954","","null","","","null","38","","","","","","","","","","","","","","","",""
"","ITI","","html-keyboard-response","257","314971","0.0-1.0-351.0","0","0","97954","","null","","","null","38","","","","","","","","","","","","","","","NaN",""
"","S1","","html-keyboard-response","258","315223","0.0-1.0-353.0","0","0","97954","","null","","","null","39","","","","","","","","","","","","","","","",""
"","ISI","","html-keyboard-response","259","316224","0.0-1.0-354.0","0","0","97954","","null","","","null","39","NaN","","","","","","","","","","","","","","",""
"","S2","","html-keyboard-response","260","316475","0.0-1.0-355.0","0","0","97954","","null","","","null","39","","NaN","","","","","","","","","","","","","",""
"","response","","html-keyboard-response","261","316558","0.0-1.0-356.0-0.0","0","0","97954","","82","","","68","39","","","1","39","training","adjacent","CD","3","4","O.jpg","M.jpg","1","1","1","",""
"","feedback","","html-keyboard-response","262","317560","0.0-1.0-357.0-0.0","0","0","97954","","null","","","null","39","","","","","","","","","","","","","","","",""
"","ITI","","html-keyboard-response","263","318562","0.0-1.0-360.0","0","0","97954","","null","","","null","39","","","","","","","","","","","","","","","NaN",""
"","S1","","html-keyboard-response","264","318814","0.0-1.0-362.0","0","0","97954","","null","","","null","40","","","","","","","","","","","","","","","",""
"","ISI","","html-keyboard-response","265","319816","0.0-1.0-363.0","0","0","97954","","null","","","null","40","NaN","","","","","","","","","","","","","","",""
"","S2","","html-keyboard-response","266","320067","0.0-1.0-364.0","0","0","97954","","null","","","null","40","","NaN","","","","","","","","","","","","","",""
"","response","","html-keyboard-response","267","320138","0.0-1.0-365.0-0.0","0","0","97954","","71","","","68","40","","","1","40","training","adjacent","DE","4","5","M.jpg","N.jpg","1","1","1","",""
"","feedback","","html-keyboard-response","268","321139","0.0-1.0-366.0-0.0","0","0","97954","","null","","","null","40","","","","","","","","","","","","","","","",""
"","ITI","","html-keyboard-response","269","322141","0.0-1.0-369.0","0","0","97954","","null","","","null","40","","","","","","","","","","","","","","","NaN",""
"","S1","","html-keyboard-response","270","322393","0.0-1.0-371.0","0","0","97954","","null","","","null","41","","","","","","","","","","","","","","","",""
"","ISI","","html-keyboard-response","271","323393","0.0-1.0-372.0","0","0","97954","","null","","","null","41","NaN","","","","","","","","","","","","","","",""
"","S2","","html-keyboard-response","272","323645","0.0-1.0-373.0","0","0","97954","","null","","","null","41","","NaN","","","","","","","","","","","","","",""
"","response","","html-keyboard-response","273","323862","0.0-1.0-374.0-0.0","0","0","97954","","217","","","75","41","","","1","41","training","adjacent","BA","2","1","L.jpg","P.jpg","0","0","1","",""
"","feedback","","html-keyboard-response","274","324864","0.0-1.0-375.0-0.0","0","0","97954","","null","","","null","41","","","","","","","","","","","","","","","",""
"","ITI","","html-keyboard-response","275","325865","0.0-1.0-378.0","0","0","97954","","null","","","null","41","","","","","","","","","","","","","","","NaN",""
"","S1","","html-keyboard-response","276","326116","0.0-1.0-380.0","0","0","97954","","null","","","null","42","","","","","","","","","","","","","","","",""
"","ISI","","html-keyboard-response","277","327118","0.0-1.0-381.0","0","0","97954","","null","","","null","42","NaN","","","","","","","","","","","","","","",""
"","S2","","html-keyboard-response","278","327369","0.0-1.0-382.0","0","0","97954","","null","","","null","42","","NaN","","","","","","","","","","","","","",""
"","response","","html-keyboard-response","279","327630","0.0-1.0-383.0-0.0","0","0","97954","","260","","","68","42","","","1","42","training","adjacent","CB","3","2","O.jpg","L.jpg","1","0","0","",""
"","feedback","","html-keyboard-response","280","328631","0.0-1.0-384.0-0.0","0","0","97954","","null","","","null","42","","","","","","","","","","","","","","","",""
"","time_out","","html-keyboard-response","281","330633","0.0-1.0-386.0-0.0","0","0","97954","","null","","","null","42","","","","","","","","","","","","","","","",""
"","ITI","","html-keyboard-response","282","331635","0.0-1.0-387.0","0","0","97954","","null","","","null","42","","","","","","","","","","","","","","","NaN",""
"","S1","","html-keyboard-response","283","331886","0.0-1.0-389.0","0","0","97954","","null","","","null","43","","","","","","","","","","","","","","","",""
"","ISI","","html-keyboard-response","284","332888","0.0-1.0-390.0","0","0","97954","","null","","","null","43","NaN","","","","","","","","","","","","","","",""
"","S2","","html-keyboard-response","285","333140","0.0-1.0-391.0","0","0","97954","","null","","","null","43","","NaN","","","","","","","","","","","","","",""
"","response","","html-keyboard-response","286","333394","0.0-1.0-392.0-0.0","0","0","97954","","253","","","68","43","","","1","43","training","adjacent","BC","2","3","L.jpg","O.jpg","1","1","1","",""
"","feedback","","html-keyboard-response","287","334395","0.0-1.0-393.0-0.0","0","0","97954","","null","","","null","43","","","","","","","","","","","","","","","",""
"","ITI","","html-keyboard-response","288","335397","0.0-1.0-396.0","0","0","97954","","null","","","null","43","","","","","","","","","","","","","","","NaN",""
"","S1","","html-keyboard-response","289","335652","0.0-1.0-398.0","0","0","97954","","null","","","null","44","","","","","","","","","","","","","","","",""
"","ISI","","html-keyboard-response","290","336654","0.0-1.0-399.0","0","0","97954","","null","","","null","44","NaN","","","","","","","","","","","","","","",""
"","S2","","html-keyboard-response","291","336905","0.0-1.0-400.0","0","0","97954","","null","","","null","44","","NaN","","","","","","","","","","","","","",""
"","response","","html-keyboard-response","292","337090","0.0-1.0-401.0-0.0","0","0","97954","","184","","","75","44","","","1","44","training","adjacent","GF","7","6","Q.jpg","R.jpg","0","0","1","",""
"","feedback","","html-keyboard-response","293","338092","0.0-1.0-402.0-0.0","0","0","97954","","null","","","null","44","","","","","","","","","","","","","","","",""
"","ITI","","html-keyboard-response","294","339094","0.0-1.0-405.0","0","0","97954","","null","","","null","44","","","","","","","","","","","","","","","NaN",""
"","S1","","html-keyboard-response","295","339345","0.0-1.0-407.0","0","0","97954","","null","","","null","45","","","","","","","","","","","","","","","",""
"","ISI","","html-keyboard-response","296","340347","0.0-1.0-408.0","0","0","97954","","null","","","null","45","NaN","","","","","","","","","","","","","","",""
"","S2","","html-keyboard-response","297","340599","0.0-1.0-409.0","0","0","97954","","null","","","null","45","","NaN","","","","","","","","","","","","","",""
"","response","","html-keyboard-response","298","340910","0.0-1.0-410.0-0.0","0","0","97954","","310","","","68","45","","","1","45","training","adjacent","FE","6","5","R.jpg","N.jpg","1","0","0","",""
"","feedback","","html-keyboard-response","299","341910","0.0-1.0-411.0-0.0","0","0","97954","","null","","","null","45","","","","","","","","","","","","","","","",""
"","time_out","","html-keyboard-response","300","343911","0.0-1.0-413.0-0.0","0","0","97954","","null","","","null","45","","","","","","","","","","","","","","","",""
"","ITI","","html-keyboard-response","301","344913","0.0-1.0-414.0","0","0","97954","","null","","","null","45","","","","","","","","","","","","","","","NaN",""
"","S1","","html-keyboard-response","302","345164","0.0-1.0-416.0","0","0","97954","","null","","","null","46","","","","","","","","","","","","","","","",""
"","ISI","","html-keyboard-response","303","346166","0.0-1.0-417.0","0","0","97954","","null","","","null","46","NaN","","","","","","","","","","","","","","",""
"","S2","","html-keyboard-response","304","346417","0.0-1.0-418.0","0","0","97954","","null","","","null","46","","NaN","","","","","","","","","","","","","",""
"","response","","html-keyboard-response","305","346578","0.0-1.0-419.0-0.0","0","0","97954","","160","","","75","46","","","1","46","training","adjacent","GF","7","6","Q.jpg","R.jpg","0","0","1","",""
"","feedback","","html-keyboard-response","306","347580","0.0-1.0-420.0-0.0","0","0","97954","","null","","","null","46","","","","","","","","","","","","","","","",""
"","ITI","","html-keyboard-response","307","348581","0.0-1.0-423.0","0","0","97954","","null","","","null","46","","","","","","","","","","","","","","","NaN",""
"","S1","","html-keyboard-response","308","348832","0.0-1.0-425.0","0","0","97954","","null","","","null","47","","","","","","","","","","","","","","","",""
"","ISI","","html-keyboard-response","309","349834","0.0-1.0-426.0","0","0","97954","","null","","","null","47","NaN","","","","","","","","","","","","","","",""
"","S2","","html-keyboard-response","310","350085","0.0-1.0-427.0","0","0","97954","","null","","","null","47","","NaN","","","","","","","","","","","","","",""
"","response","","html-keyboard-response","311","350381","0.0-1.0-428.0-0.0","0","0","97954","","296","","","68","47","","","1","47","training","adjacent","BC","2","3","L.jpg","O.jpg","1","1","1","",""
"","feedback","","html-keyboard-response","312","351383","0.0-1.0-429.0-0.0","0","0","97954","","null","","","null","47","","","","","","","","","","","","","","","",""
"","ITI","","html-keyboard-response","313","352384","0.0-1.0-432.0","0","0","97954","","null","","","null","47","","","","","","","","","","","","","","","NaN",""
"","block_over","","html-keyboard-response","314","386233","0.0-1.0-433.0-0.0","0","0","97954","","33848","","","32","47","","","","","","","","","","","","","","","",""
"","S1","","html-keyboard-response","315","386484","0.0-1.0-434.0","0","0","97954","","null","","","null","48","","","","","","","","","","","","","","","",""
"","ISI","","html-keyboard-response","316","387485","0.0-1.0-435.0","0","0","97954","","null","","","null","48","NaN","","","","","","","","","","","","","","",""
"","S2","","html-keyboard-response","317","387737","0.0-1.0-436.0","0","0","97954","","null","","","null","48","","NaN","","","","","","","","","","","","","",""
"","response","","html-keyboard-response","318","387904","0.0-1.0-437.0-0.0","0","0","97954","","166","","","75","48","","","2","48","training","adjacent","CB","3","2","O.jpg","L.jpg","0","0","1","",""
"","feedback","","html-keyboard-response","319","388906","0.0-1.0-438.0-0.0","0","0","97954","","null","","","null","48","","","","","","","","","","","","","","","",""
"","ITI","","html-keyboard-response","320","389908","0.0-1.0-441.0","0","0","97954","","null","","","null","48","","","","","","","","","","","","","","","NaN",""
"","S1","","html-keyboard-response","321","390160","0.0-1.0-443.0","0","0","97954","","null","","","null","49","","","","","","","","","","","","","","","",""
"","ISI","","html-keyboard-response","322","391161","0.0-1.0-444.0","0","0","97954","","null","","","null","49","NaN","","","","","","","","","","","","","","",""
"","S2","","html-keyboard-response","323","391412","0.0-1.0-445.0","0","0","97954","","null","","","null","49","","NaN","","","","","","","","","","","","","",""
"","response","","html-keyboard-response","324","391556","0.0-1.0-446.0-0.0","0","0","97954","","143","","","68","49","","","2","49","training","adjacent","FG","6","7","R.jpg","Q.jpg","1","1","1","",""
"","feedback","","html-keyboard-response","325","392557","0.0-1.0-447.0-0.0","0","0","97954","","null","","","null","49","","","","","","","","","","","","","","","",""
"","ITI","","html-keyboard-response","326","393560","0.0-1.0-450.0","0","0","97954","","null","","","null","49","","","","","","","","","","","","","","","NaN",""
"","S1","","html-keyboard-response","327","393811","0.0-1.0-452.0","0","0","97954","","null","","","null","50","","","","","","","","","","","","","","","",""
"","ISI","","html-keyboard-response","328","394812","0.0-1.0-453.0","0","0","97954","","null","","","null","50","NaN","","","","","","","","","","","","","","",""
"","S2","","html-keyboard-response","329","395064","0.0-1.0-454.0","0","0","97954","","null","","","null","50","","NaN","","","","","","","","","","","","","",""
"","response","","html-keyboard-response","330","395292","0.0-1.0-455.0-0.0","0","0","97954","","227","","","68","50","","","2","50","training","adjacent","DE","4","5","M.jpg","N.jpg","1","1","1","",""
"","feedback","","html-keyboard-response","331","396293","0.0-1.0-456.0-0.0","0","0","97954","","null","","","null","50","","","","","","","","","","","","","","","",""
"","ITI","","html-keyboard-response","332","397294","0.0-1.0-459.0","0","0","97954","","null","","","null","50","","","","","","","","","","","","","","","NaN",""
"","S1","","html-keyboard-response","333","397546","0.0-1.0-461.0","0","0","97954","","null","","","null","51","","","","","","","","","","","","","","","",""
"","ISI","","html-keyboard-response","334","398548","0.0-1.0-462.0","0","0","97954","","null","","","null","51","NaN","","","","","","","","","","","","","","",""
"","S2","","html-keyboard-response","335","398799","0.0-1.0-463.0","0","0","97954","","null","","","null","51","","NaN","","","","","","","","","","","","","",""
"","response","","html-keyboard-response","336","399252","0.0-1.0-464.0-0.0","0","0","97954","","452","","","68","51","","","2","51","training","adjacent","BC","2","3","L.jpg","O.jpg","1","1","1","",""
"","feedback","","html-keyboard-response","337","400253","0.0-1.0-465.0-0.0","0","0","97954","","null","","","null","51","","","","","","","","","","","","","","","",""
"","ITI","","html-keyboard-response","338","401254","0.0-1.0-468.0","0","0","97954","","null","","","null","51","","","","","","","","","","","","","","","NaN",""
"","S1","","html-keyboard-response","339","401506","0.0-1.0-470.0","0","0","97954","","null","","","null","52","","","","","","","","","","","","","","","",""
"","ISI","","html-keyboard-response","340","402507","0.0-1.0-471.0","0","0","97954","","null","","","null","52","NaN","","","","","","","","","","","","","","",""
"","S2","","html-keyboard-response","341","402772","0.0-1.0-472.0","0","0","97954","","null","","","null","52","","NaN","","","","","","","","","","","","","",""
"","response","","html-keyboard-response","342","403211","0.0-1.0-473.0-0.0","0","0","97954","","439","","","75","52","","","2","52","training","adjacent","CB","3","2","O.jpg","L.jpg","0","0","1","",""
"","feedback","","html-keyboard-response","343","404212","0.0-1.0-474.0-0.0","0","0","97954","","null","","","null","52","","","","","","","","","","","","","","","",""
"","ITI","","html-keyboard-response","344","405213","0.0-1.0-477.0","0","0","97954","","null","","","null","52","","","","","","","","","","","","","","","NaN",""
"","S1","","html-keyboard-response","345","405465","0.0-1.0-479.0","0","0","97954","","null","","","null","53","","","","","","","","","","","","","","","",""
"","ISI","","html-keyboard-response","346","406466","0.0-1.0-480.0","0","0","97954","","null","","","null","53","NaN","","","","","","","","","","","","","","",""
"","S2","","html-keyboard-response","347","406718","0.0-1.0-481.0","0","0","97954","","null","","","null","53","","NaN","","","","","","","","","","","","","",""
"","response","","html-keyboard-response","348","406935","0.0-1.0-482.0-0.0","0","0","97954","","217","","","68","53","","","2","53","training","adjacent","ED","5","4","N.jpg","M.jpg","1","0","0","",""
"","feedback","","html-keyboard-response","349","407938","0.0-1.0-483.0-0.0","0","0","97954","","null","","","null","53","","","","","","","","","","","","","","","",""
"","time_out","","html-keyboard-response","350","409939","0.0-1.0-485.0-0.0","0","0","97954","","null","","","null","53","","","","","","","","","","","","","","","",""
"","ITI","","html-keyboard-response","351","410941","0.0-1.0-486.0","0","0","97954","","null","","","null","53","","","","","","","","","","","","","","","NaN",""
"","S1","","html-keyboard-response","352","411193","0.0-1.0-488.0","0","0","97954","","null","","","null","54","","","","","","","","","","","","","","","",""
"","ISI","","html-keyboard-response","353","412194","0.0-1.0-489.0","0","0","97954","","null","","","null","54","NaN","","","","","","","","","","","","","","",""
"","S2","","html-keyboard-response","354","412445","0.0-1.0-490.0","0","0","97954","","null","","","null","54","","NaN","","","","","","","","","","","","","",""
"","response","","html-keyboard-response","355","412571","0.0-1.0-491.0-0.0","0","0","97954","","126","","","75","54","","","2","54","training","adjacent","AB","1","2","P.jpg","L.jpg","0","1","0","",""
"","feedback","","html-keyboard-response","356","413573","0.0-1.0-492.0-0.0","0","0","97954","","null","","","null","54","","","","","","","","","","","","","","","",""
"","time_out","","html-keyboard-response","357","415574","0.0-1.0-494.0-0.0","0","0","97954","","null","","","null","54","","","","","","","","","","","","","","","",""
"","ITI","","html-keyboard-response","358","416576","0.0-1.0-495.0","0","0","97954","","null","","","null","54","","","","","","","","","","","","","","","NaN",""
"","S1","","html-keyboard-response","359","416827","0.0-1.0-497.0","0","0","97954","","null","","","null","55","","","","","","","","","","","","","","","",""
"","ISI","","html-keyboard-response","360","417828","0.0-1.0-498.0","0","0","97954","","null","","","null","55","NaN","","","","","","","","","","","","","","",""
"","S2","","html-keyboard-response","361","418079","0.0-1.0-499.0","0","0","97954","","null","","","null","55","","NaN","","","","","","","","","","","","","",""
"","response","","html-keyboard-response","362","418331","0.0-1.0-500.0-0.0","0","0","97954","","251","","","68","55","","","2","55","training","adjacent","CB","3","2","O.jpg","L.jpg","1","0","0","",""
"","feedback","","html-keyboard-response","363","419332","0.0-1.0-501.0-0.0","0","0","97954","","null","","","null","55","","","","","","","","","","","","","","","",""
"","time_out","","html-keyboard-response","364","421333","0.0-1.0-503.0-0.0","0","0","97954","","null","","","null","55","","","","","","","","","","","","","","","",""
"","ITI","","html-keyboard-response","365","422334","0.0-1.0-504.0","0","0","97954","","null","","","null","55","","","","","","","","","","","","","","","NaN",""
"","S1","","html-keyboard-response","366","422586","0.0-1.0-506.0","0","0","97954","","null","","","null","56","","","","","","","","","","","","","","","",""
"","ISI","","html-keyboard-response","367","423588","0.0-1.0-507.0","0","0","97954","","null","","","null","56","NaN","","","","","","","","","","","","","","",""
"","S2","","html-keyboard-response","368","423839","0.0-1.0-508.0","0","0","97954","","null","","","null","56","","NaN","","","","","","","","","","","","","",""
"","response","","html-keyboard-response","369","423966","0.0-1.0-509.0-0.0","0","0","97954","","126","","","75","56","","","2","56","training","adjacent","BC","2","3","L.jpg","O.jpg","0","1","0","",""
"","feedback","","html-keyboard-response","370","424971","0.0-1.0-510.0-0.0","0","0","97954","","null","","","null","56","","","","","","","","","","","","","","","",""
"","time_out","","html-keyboard-response","371","426973","0.0-1.0-512.0-0.0","0","0","97954","","null","","","null","56","","","","","","","","","","","","","","","",""
"","ITI","","html-keyboard-response","372","427975","0.0-1.0-513.0","0","0","97954","","null","","","null","56","","","","","","","","","","","","","","","NaN",""
"","S1","","html-keyboard-response","373","428226","0.0-1.0-515.0","0","0","97954","","null","","","null","57","","","","","","","","","","","","","","","",""
"","ISI","","html-keyboard-response","374","429228","0.0-1.0-516.0","0","0","97954","","null","","","null","57","NaN","","","","","","","","","","","","","","",""
"","S2","","html-keyboard-response","375","429479","0.0-1.0-517.0","0","0","97954","","null","","","null","57","","NaN","","","","","","","","","","","","","",""
"","response","","html-keyboard-response","376","429558","0.0-1.0-518.0-0.0","0","0","97954","","78","","","75","57","","","2","57","training","adjacent","GF","7","6","Q.jpg","R.jpg","0","0","1","",""
"","feedback","","html-keyboard-response","377","430559","0.0-1.0-519.0-0.0","0","0","97954","","null","","","null","57","","","","","","","","","","","","","","","",""
"","ITI","","html-keyboard-response","378","431563","0.0-1.0-522.0","0","0","97954","","null","","","null","57","","","","","","","","","","","","","","","NaN",""
"","S1","","html-keyboard-response","379","431814","0.0-1.0-524.0","0","0","97954","","null","","","null","58","","","","","","","","","","","","","","","",""
"","ISI","","html-keyboard-response","380","432815","0.0-1.0-525.0","0","0","97954","","null","","","null","58","NaN","","","","","","","","","","","","","","",""
"","S2","","html-keyboard-response","381","433067","0.0-1.0-526.0","0","0","97954","","null","","","null","58","","NaN","","","","","","","","","","","","","",""
"","response","","html-keyboard-response","382","433322","0.0-1.0-527.0-0.0","0","0","97954","","255","","","68","58","","","2","58","training","adjacent","ED","5","4","N.jpg","M.jpg","1","0","0","",""
"","feedback","","html-keyboard-response","383","434324","0.0-1.0-528.0-0.0","0","0","97954","","null","","","null","58","","","","","","","","","","","","","","","",""
"","time_out","","html-keyboard-response","384","436326","0.0-1.0-530.0-0.0","0","0","97954","","null","","","null","58","","","","","","","","","","","","","","","",""
"","ITI","","html-keyboard-response","385","437328","0.0-1.0-531.0","0","0","97954","","null","","","null","58","","","","","","","","","","","","","","","NaN",""
"","S1","","html-keyboard-response","386","437580","0.0-1.0-533.0","0","0","97954","","null","","","null","59","","","","","","","","","","","","","","","",""
"","ISI","","html-keyboard-response","387","438581","0.0-1.0-534.0","0","0","97954","","null","","","null","59","NaN","","","","","","","","","","","","","","",""
"","S2","","html-keyboard-response","388","438832","0.0-1.0-535.0","0","0","97954","","null","","","null","59","","NaN","","","","","","","","","","","","","",""
"","response","","html-keyboard-response","389","439202","0.0-1.0-536.0-0.0","0","0","97954","","370","","","68","59","","","2","59","training","adjacent","BA","2","1","L.jpg","P.jpg","1","0","0","",""
"","feedback","","html-keyboard-response","390","440203","0.0-1.0-537.0-0.0","0","0","97954","","null","","","null","59","","","","","","","","","","","","","","","",""
"","time_out","","html-keyboard-response","391","442204","0.0-1.0-539.0-0.0","0","0","97954","","null","","","null","59","","","","","","","","","","","","","","","",""
"","ITI","","html-keyboard-response","392","443205","0.0-1.0-540.0","0","0","97954","","null","","","null","59","","","","","","","","","","","","","","","NaN",""
"","S1","","html-keyboard-response","393","443458","0.0-1.0-542.0","0","0","97954","","null","","","null","60","","","","","","","","","","","","","","","",""
"","ISI","","html-keyboard-response","394","444459","0.0-1.0-543.0","0","0","97954","","null","","","null","60","NaN","","","","","","","","","","","","","","",""
"","S2","","html-keyboard-response","395","444711","0.0-1.0-544.0","0","0","97954","","null","","","null","60","","NaN","","","","","","","","","","","","","",""
"","response","","html-keyboard-response","396","444805","0.0-1.0-545.0-0.0","0","0","97954","","94","","","75","60","","","2","60","training","adjacent","CD","3","4","O.jpg","M.jpg","0","1","0","",""
"","feedback","","html-keyboard-response","397","445807","0.0-1.0-546.0-0.0","0","0","97954","","null","","","null","60","","","","","","","","","","","","","","","",""
"","time_out","","html-keyboard-response","398","447809","0.0-1.0-548.0-0.0","0","0","97954","","null","","","null","60","","","","","","","","","","","","","","","",""
"","ITI","","html-keyboard-response","399","448811","0.0-1.0-549.0","0","0","97954","","null","","","null","60","","","","","","","","","","","","","","","NaN",""
"","S1","","html-keyboard-response","400","449062","0.0-1.0-551.0","0","0","97954","","null","","","null","61","","","","","","","","","","","","","","","",""
"","ISI","","html-keyboard-response","401","450064","0.0-1.0-552.0","0","0","97954","","null","","","null","61","NaN","","","","","","","","","","","","","","",""
"","S2","","html-keyboard-response","402","450315","0.0-1.0-553.0","0","0","97954","","null","","","null","61","","NaN","","","","","","","","","","","","","",""
"","response","","html-keyboard-response","403","450454","0.0-1.0-554.0-0.0","0","0","97954","","138","","","75","61","","","2","61","training","adjacent","GF","7","6","Q.jpg","R.jpg","0","0","1","",""
"","feedback","","html-keyboard-response","404","451456","0.0-1.0-555.0-0.0","0","0","97954","","null","","","null","61","","","","","","","","","","","","","","","",""
"","ITI","","html-keyboard-response","405","452458","0.0-1.0-558.0","0","0","97954","","null","","","null","61","","","","","","","","","","","","","","","NaN",""
"","S1","","html-keyboard-response","406","452710","0.0-1.0-560.0","0","0","97954","","null","","","null","62","","","","","","","","","","","","","","","",""
"","ISI","","html-keyboard-response","407","453712","0.0-1.0-561.0","0","0","97954","","null","","","null","62","NaN","","","","","","","","","","","","","","",""
"","S2","","html-keyboard-response","408","453962","0.0-1.0-562.0","0","0","97954","","null","","","null","62","","NaN","","","","","","","","","","","","","",""
"","response","","html-keyboard-response","409","454297","0.0-1.0-563.0-0.0","0","0","97954","","334","","","68","62","","","2","62","training","adjacent","ED","5","4","N.jpg","M.jpg","1","0","0","",""
"","feedback","","html-keyboard-response","410","455298","0.0-1.0-564.0-0.0","0","0","97954","","null","","","null","62","","","","","","","","","","","","","","","",""
"","time_out","","html-keyboard-response","411","457300","0.0-1.0-566.0-0.0","0","0","97954","","null","","","null","62","","","","","","","","","","","","","","","",""
"","ITI","","html-keyboard-response","412","458301","0.0-1.0-567.0","0","0","97954","","null","","","null","62","","","","","","","","","","","","","","","NaN",""
"","S1","","html-keyboard-response","413","458552","0.0-1.0-569.0","0","0","97954","","null","","","null","63","","","","","","","","","","","","","","","",""
"","ISI","","html-keyboard-response","414","459553","0.0-1.0-570.0","0","0","97954","","null","","","null","63","NaN","","","","","","","","","","","","","","",""
"","S2","","html-keyboard-response","415","459805","0.0-1.0-571.0","0","0","97954","","null","","","null","63","","NaN","","","","","","","","","","","","","",""
"","response","","html-keyboard-response","416","460273","0.0-1.0-572.0-0.0","0","0","97954","","468","","","75","63","","","2","63","training","adjacent","FE","6","5","R.jpg","N.jpg","0","0","1","",""
"","feedback","","html-keyboard-response","417","461275","0.0-1.0-573.0-0.0","0","0","97954","","null","","","null","63","","","","","","","","","","","","","","","",""
"","ITI","","html-keyboard-response","418","462277","0.0-1.0-576.0","0","0","97954","","null","","","null","63","","","","","","","","","","","","","","","NaN",""
"","S1","","html-keyboard-response","419","462543","0.0-1.0-578.0","0","0","97954","","null","","","null","64","","","","","","","","","","","","","","","",""
"","ISI","","html-keyboard-response","420","463544","0.0-1.0-579.0","0","0","97954","","null","","","null","64","NaN","","","","","","","","","","","","","","",""
"","S2","","html-keyboard-response","421","463794","0.0-1.0-580.0","0","0","97954","","null","","","null","64","","NaN","","","","","","","","","","","","","",""
"","response","","html-keyboard-response","422","464009","0.0-1.0-581.0-0.0","0","0","97954","","214","","","75","64","","","2","64","training","adjacent","DE","4","5","M.jpg","N.jpg","0","1","0","",""
"","feedback","","html-keyboard-response","423","465011","0.0-1.0-582.0-0.0","0","0","97954","","null","","","null","64","","","","","","","","","","","","","","","",""
"","time_out","","html-keyboard-response","424","467013","0.0-1.0-584.0-0.0","0","0","97954","","null","","","null","64","","","","","","","","","","","","","","","",""
"","ITI","","html-keyboard-response","425","468015","0.0-1.0-585.0","0","0","97954","","null","","","null","64","","","","","","","","","","","","","","","NaN",""
"","S1","","html-keyboard-response","426","468266","0.0-1.0-587.0","0","0","97954","","null","","","null","65","","","","","","","","","","","","","","","",""
"","ISI","","html-keyboard-response","427","469268","0.0-1.0-588.0","0","0","97954","","null","","","null","65","NaN","","","","","","","","","","","","","","",""
"","S2","","html-keyboard-response","428","469520","0.0-1.0-589.0","0","0","97954","","null","","","null","65","","NaN","","","","","","","","","","","","","",""
"","response","","html-keyboard-response","429","469669","0.0-1.0-590.0-0.0","0","0","97954","","148","","","68","65","","","2","65","training","adjacent","EF","5","6","N.jpg","R.jpg","1","1","1","",""
"","feedback","","html-keyboard-response","430","470671","0.0-1.0-591.0-0.0","0","0","97954","","null","","","null","65","","","","","","","","","","","","","","","",""
"","ITI","","html-keyboard-response","431","471673","0.0-1.0-594.0","0","0","97954","","null","","","null","65","","","","","","","","","","","","","","","NaN",""
"","S1","","html-keyboard-response","432","471924","0.0-1.0-596.0","0","0","97954","","null","","","null","66","","","","","","","","","","","","","","","",""
"","ISI","","html-keyboard-response","433","472925","0.0-1.0-597.0","0","0","97954","","null","","","null","66","NaN","","","","","","","","","","","","","","",""
"","S2","","html-keyboard-response","434","473176","0.0-1.0-598.0","0","0","97954","","null","","","null","66","","NaN","","","","","","","","","","","","","",""
"","response","","html-keyboard-response","435","473385","0.0-1.0-599.0-0.0","0","0","97954","","208","","","75","66","","","2","66","training","adjacent","DC","4","3","M.jpg","O.jpg","0","0","1","",""
"","feedback","","html-keyboard-response","436","474386","0.0-1.0-600.0-0.0","0","0","97954","","null","","","null","66","","","","","","","","","","","","","","","",""
"","ITI","","html-keyboard-response","437","475388","0.0-1.0-603.0","0","0","97954","","null","","","null","66","","","","","","","","","","","","","","","NaN",""
"","S1","","html-keyboard-response","438","475640","0.0-1.0-605.0","0","0","97954","","null","","","null","67","","","","","","","","","","","","","","","",""
"","ISI","","html-keyboard-response","439","476641","0.0-1.0-606.0","0","0","97954","","null","","","null","67","NaN","","","","","","","","","","","","","","",""
"","S2","","html-keyboard-response","440","476892","0.0-1.0-607.0","0","0","97954","","null","","","null","67","","NaN","","","","","","","","","","","","","",""
"","response","","html-keyboard-response","441","477189","0.0-1.0-608.0-0.0","0","0","97954","","295","","","68","67","","","2","67","training","adjacent","BA","2","1","L.jpg","P.jpg","1","0","0","",""
"","feedback","","html-keyboard-response","442","478191","0.0-1.0-609.0-0.0","0","0","97954","","null","","","null","67","","","","","","","","","","","","","","","",""
"","time_out","","html-keyboard-response","443","480192","0.0-1.0-611.0-0.0","0","0","97954","","null","","","null","67","","","","","","","","","","","","","","","",""
"","ITI","","html-keyboard-response","444","481194","0.0-1.0-612.0","0","0","97954","","null","","","null","67","","","","","","","","","","","","","","","NaN",""
"","S1","","html-keyboard-response","445","481446","0.0-1.0-614.0","0","0","97954","","null","","","null","68","","","","","","","","","","","","","","","",""
"","ISI","","html-keyboard-response","446","482448","0.0-1.0-615.0","0","0","97954","","null","","","null","68","NaN","","","","","","","","","","","","","","",""
"","S2","","html-keyboard-response","447","482699","0.0-1.0-616.0","0","0","97954","","null","","","null","68","","NaN","","","","","","","","","","","","","",""
"","response","","html-keyboard-response","448","482845","0.0-1.0-617.0-0.0","0","0","97954","","144","","","68","68","","","2","68","training","adjacent","EF","5","6","N.jpg","R.jpg","1","1","1","",""
"","feedback","","html-keyboard-response","449","483846","0.0-1.0-618.0-0.0","0","0","97954","","null","","","null","68","","","","","","","","","","","","","","","",""
"","ITI","","html-keyboard-response","450","484848","0.0-1.0-621.0","0","0","97954","","null","","","null","68","","","","","","","","","","","","","","","NaN",""
"","S1","","html-keyboard-response","451","485100","0.0-1.0-623.0","0","0","97954","","null","","","null","69","","","","","","","","","","","","","","","",""
"","ISI","","html-keyboard-response","452","486101","0.0-1.0-624.0","0","0","97954","","null","","","null","69","NaN","","","","","","","","","","","","","","",""
"","S2","","html-keyboard-response","453","486352","0.0-1.0-625.0","0","0","97954","","null","","","null","69","","NaN","","","","","","","","","","","","","",""
"","response","","html-keyboard-response","454","486821","0.0-1.0-626.0-0.0","0","0","97954","","467","","","68","69","","","2","69","training","adjacent","FG","6","7","R.jpg","Q.jpg","1","1","1","",""
"","feedback","","html-keyboard-response","455","487823","0.0-1.0-627.0-0.0","0","0","97954","","null","","","null","69","","","","","","","","","","","","","","","",""
"","ITI","","html-keyboard-response","456","488824","0.0-1.0-630.0","0","0","97954","","null","","","null","69","","","","","","","","","","","","","","","NaN",""
"","S1","","html-keyboard-response","457","489075","0.0-1.0-632.0","0","0","97954","","null","","","null","70","","","","","","","","","","","","","","","",""
"","ISI","","html-keyboard-response","458","490077","0.0-1.0-633.0","0","0","97954","","null","","","null","70","NaN","","","","","","","","","","","","","","",""
"","S2","","html-keyboard-response","459","490327","0.0-1.0-634.0","0","0","97954","","null","","","null","70","","NaN","","","","","","","","","","","","","",""
"","response","","html-keyboard-response","460","490773","0.0-1.0-635.0-0.0","0","0","97954","","444","","","68","70","","","2","70","training","adjacent","DC","4","3","M.jpg","O.jpg","1","0","0","",""
"","feedback","","html-keyboard-response","461","491774","0.0-1.0-636.0-0.0","0","0","97954","","null","","","null","70","","","","","","","","","","","","","","","",""
"","time_out","","html-keyboard-response","462","493775","0.0-1.0-638.0-0.0","0","0","97954","","null","","","null","70","","","","","","","","","","","","","","","",""
"","ITI","","html-keyboard-response","463","494776","0.0-1.0-639.0","0","0","97954","","null","","","null","70","","","","","","","","","","","","","","","NaN",""
"","S1","","html-keyboard-response","464","495032","0.0-1.0-641.0","0","0","97954","","null","","","null","71","","","","","","","","","","","","","","","",""
"","ISI","","html-keyboard-response","465","496033","0.0-1.0-642.0","0","0","97954","","null","","","null","71","NaN","","","","","","","","","","","","","","",""
"","S2","","html-keyboard-response","466","496285","0.0-1.0-643.0","0","0","97954","","null","","","null","71","","NaN","","","","","","","","","","","","","",""
"","response","","html-keyboard-response","467","496448","0.0-1.0-644.0-0.0","0","0","97954","","163","","","75","71","","","2","71","training","adjacent","AB","1","2","P.jpg","L.jpg","0","1","0","",""
"","feedback","","html-keyboard-response","468","497450","0.0-1.0-645.0-0.0","0","0","97954","","null","","","null","71","","","","","","","","","","","","","","","",""
"","time_out","","html-keyboard-response","469","499452","0.0-1.0-647.0-0.0","0","0","97954","","null","","","null","71","","","","","","","","","","","","","","","",""
"","ITI","","html-keyboard-response","470","500454","0.0-1.0-648.0","0","0","97954","","null","","","null","71","","","","","","","","","","","","","","","NaN",""
"","S1","","html-keyboard-response","471","500705","0.0-1.0-650.0","0","0","97954","","null","","","null","72","","","","","","","","","","","","","","","",""
"","ISI","","html-keyboard-response","472","501706","0.0-1.0-651.0","0","0","97954","","null","","","null","72","NaN","","","","","","","","","","","","","","",""
"","S2","","html-keyboard-response","473","501957","0.0-1.0-652.0","0","0","97954","","null","","","null","72","","NaN","","","","","","","","","","","","","",""
"","response","","html-keyboard-response","474","502144","0.0-1.0-653.0-0.0","0","0","97954","","186","","","68","72","","","2","72","training","adjacent","CD","3","4","O.jpg","M.jpg","1","1","1","",""
"","feedback","","html-keyboard-response","475","503146","0.0-1.0-654.0-0.0","0","0","97954","","null","","","null","72","","","","","","","","","","","","","","","",""
"","ITI","","html-keyboard-response","476","504147","0.0-1.0-657.0","0","0","97954","","null","","","null","72","","","","","","","","","","","","","","","NaN",""
"","S1","","html-keyboard-response","477","504398","0.0-1.0-659.0","0","0","97954","","null","","","null","73","","","","","","","","","","","","","","","",""
"","ISI","","html-keyboard-response","478","505400","0.0-1.0-660.0","0","0","97954","","null","","","null","73","NaN","","","","","","","","","","","","","","",""
"","S2","","html-keyboard-response","479","505652","0.0-1.0-661.0","0","0","97954","","null","","","null","73","","NaN","","","","","","","","","","","","","",""
"","response","","html-keyboard-response","480","505892","0.0-1.0-662.0-0.0","0","0","97954","","240","","","75","73","","","2","73","training","adjacent","DE","4","5","M.jpg","N.jpg","0","1","0","",""
"","feedback","","html-keyboard-response","481","506894","0.0-1.0-663.0-0.0","0","0","97954","","null","","","null","73","","","","","","","","","","","","","","","",""
"","time_out","","html-keyboard-response","482","508895","0.0-1.0-665.0-0.0","0","0","97954","","null","","","null","73","","","","","","","","","","","","","","","",""
"","ITI","","html-keyboard-response","483","509897","0.0-1.0-666.0","0","0","97954","","null","","","null","73","","","","","","","","","","","","","","","NaN",""
"","S1","","html-keyboard-response","484","510149","0.0-1.0-668.0","0","0","97954","","null","","","null","74","","","","","","","","","","","","","","","",""
"","ISI","","html-keyboard-response","485","511150","0.0-1.0-669.0","0","0","97954","","null","","","null","74","NaN","","","","","","","","","","","","","","",""
"","S2","","html-keyboard-response","486","511401","0.0-1.0-670.0","0","0","97954","","null","","","null","74","","NaN","","","","","","","","","","","","","",""
"","response","","html-keyboard-response","487","511788","0.0-1.0-671.0-0.0","0","0","97954","","385","","","68","74","","","2","74","training","adjacent","FE","6","5","R.jpg","N.jpg","1","0","0","",""
"","feedback","","html-keyboard-response","488","512790","0.0-1.0-672.0-0.0","0","0","97954","","null","","","null","74","","","","","","","","","","","","","","","",""
"","time_out","","html-keyboard-response","489","514791","0.0-1.0-674.0-0.0","0","0","97954","","null","","","null","74","","","","","","","","","","","","","","","",""
"","ITI","","html-keyboard-response","490","515792","0.0-1.0-675.0","0","0","97954","","null","","","null","74","","","","","","","","","","","","","","","NaN",""
"","S1","","html-keyboard-response","491","516043","0.0-1.0-677.0","0","0","97954","","null","","","null","75","","","","","","","","","","","","","","","",""
"","ISI","","html-keyboard-response","492","517045","0.0-1.0-678.0","0","0","97954","","null","","","null","75","NaN","","","","","","","","","","","","","","",""
"","S2","","html-keyboard-response","493","517297","0.0-1.0-679.0","0","0","97954","","null","","","null","75","","NaN","","","","","","","","","","","","","",""
"","response","","html-keyboard-response","494","517468","0.0-1.0-680.0-0.0","0","0","97954","","170","","","75","75","","","2","75","training","adjacent","FE","6","5","R.jpg","N.jpg","0","0","1","",""
"","feedback","","html-keyboard-response","495","518469","0.0-1.0-681.0-0.0","0","0","97954","","null","","","null","75","","","","","","","","","","","","","","","",""
"","ITI","","html-keyboard-response","496","519471","0.0-1.0-684.0","0","0","97954","","null","","","null","75","","","","","","","","","","","","","","","NaN",""
"","S1","","html-keyboard-response","497","519722","0.0-1.0-686.0","0","0","97954","","null","","","null","76","","","","","","","","","","","","","","","",""
"","ISI","","html-keyboard-response","498","520724","0.0-1.0-687.0","0","0","97954","","null","","","null","76","NaN","","","","","","","","","","","","","","",""
"","S2","","html-keyboard-response","499","520791","0.0-1.0-688.0","0","0","97954","","67","","","68","76","","d","2","76","training","adjacent","GF","7","6","Q.jpg","R.jpg","1","0","0","",""
"","feedback","","html-keyboard-response","500","521793","0.0-1.0-690.0-0.0","0","0","97954","","null","","","null","76","","","","","","","","","","","","","","","",""
"","time_out","","html-keyboard-response","501","523794","0.0-1.0-692.0-0.0","0","0","97954","","null","","","null","76","","","","","","","","","","","","","","","",""
"","ITI","","html-keyboard-response","502","524795","0.0-1.0-693.0","0","0","97954","","null","","","null","76","","","","","","","","","","","","","","","NaN",""
"","S1","","html-keyboard-response","503","525046","0.0-1.0-695.0","0","0","97954","","null","","","null","77","","","","","","","","","","","","","","","",""
"","ISI","","html-keyboard-response","504","526047","0.0-1.0-696.0","0","0","97954","","null","","","null","77","NaN","","","","","","","","","","","","","","",""
"","S2","","html-keyboard-response","505","526298","0.0-1.0-697.0","0","0","97954","","null","","","null","77","","NaN","","","","","","","","","","","","","",""
"","response","","html-keyboard-response","506","526395","0.0-1.0-698.0-0.0","0","0","97954","","97","","","75","77","","","2","77","training","adjacent","FG","6","7","R.jpg","Q.jpg","0","1","0","",""
"","feedback","","html-keyboard-response","507","527398","0.0-1.0-699.0-0.0","0","0","97954","","null","","","null","77","","","","","","","","","","","","","","","",""
"","time_out","","html-keyboard-response","508","529400","0.0-1.0-701.0-0.0","0","0","97954","","null","","","null","77","","","","","","","","","","","","","","","",""
"","ITI","","html-keyboard-response","509","530401","0.0-1.0-702.0","0","0","97954","","null","","","null","77","","","","","","","","","","","","","","","NaN",""
"","S1","","html-keyboard-response","510","530652","0.0-1.0-704.0","0","0","97954","","null","","","null","78","","","","","","","","","","","","","","","",""
"","ISI","","html-keyboard-response","511","531653","0.0-1.0-705.0","0","0","97954","","115","","","68","78","d","","","","","","","","","","","","","","",""
"","S2","","html-keyboard-response","512","531905","0.0-1.0-706.0","0","0","97954","","null","","","null","78","","NaN","","","","","","","","","","","","","",""
"","response","","html-keyboard-response","513","532323","0.0-1.0-707.0-0.0","0","0","97954","","418","","","68","78","","","2","78","training","adjacent","DC","4","3","M.jpg","O.jpg","1","0","0","",""
"","feedback","","html-keyboard-response","514","533325","0.0-1.0-708.0-0.0","0","0","97954","","null","","","null","78","","","","","","","","","","","","","","","",""
"","time_out","","html-keyboard-response","515","535327","0.0-1.0-710.0-0.0","0","0","97954","","null","","","null","78","","","","","","","","","","","","","","","",""
"","ITI","","html-keyboard-response","516","536329","0.0-1.0-711.0","0","0","97954","","null","","","null","78","","","","","","","","","","","","","","","NaN",""
"","S1","","html-keyboard-response","517","536580","0.0-1.0-713.0","0","0","97954","","null","","","null","79","","","","","","","","","","","","","","","",""
"","ISI","","html-keyboard-response","518","537581","0.0-1.0-714.0","0","0","97954","","111","","","68","79","d","","","","","","","","","","","","","","",""
"","S2","","html-keyboard-response","519","537831","0.0-1.0-715.0","0","0","97954","","250","","","68","79","","d","2","79","training","adjacent","AB","1","2","P.jpg","L.jpg","1","1","1","",""
"","feedback","","html-keyboard-response","520","538833","0.0-1.0-717.0-0.0","0","0","97954","","null","","","null","79","","","","","","","","","","","","","","","",""
"","ITI","","html-keyboard-response","521","539834","0.0-1.0-720.0","0","0","97954","","null","","","null","79","","","","","","","","","","","","","","","NaN",""
"","S1","","html-keyboard-response","522","540085","0.0-1.0-722.0","0","0","97954","","null","","","null","80","","","","","","","","","","","","","","","",""
"","ISI","","html-keyboard-response","523","541087","0.0-1.0-723.0","0","0","97954","","null","","","null","80","NaN","","","","","","","","","","","","","","",""
"","S2","","html-keyboard-response","524","541338","0.0-1.0-724.0","0","0","97954","","null","","","null","80","","NaN","","","","","","","","","","","","","",""
"","response","","html-keyboard-response","525","541383","0.0-1.0-725.0-0.0","0","0","97954","","44","","","75","80","","","2","80","training","adjacent","GF","7","6","Q.jpg","R.jpg","0","0","1","",""
"","feedback","","html-keyboard-response","526","542384","0.0-1.0-726.0-0.0","0","0","97954","","null","","","null","80","","","","","","","","","","","","","","","",""
"","ITI","","html-keyboard-response","527","543386","0.0-1.0-729.0","0","0","97954","","null","","","null","80","","","","","","","","","","","","","","","NaN",""
"","S1","","html-keyboard-response","528","543638","0.0-1.0-731.0","0","0","97954","","null","","","null","81","","","","","","","","","","","","","","","",""
"","ISI","","html-keyboard-response","529","544640","0.0-1.0-732.0","0","0","97954","","null","","","null","81","NaN","","","","","","","","","","","","","","",""
"","S2","","html-keyboard-response","530","544891","0.0-1.0-733.0","0","0","97954","","null","","","null","81","","NaN","","","","","","","","","","","","","",""
"","response","","html-keyboard-response","531","545227","0.0-1.0-734.0-0.0","0","0","97954","","335","","","68","81","","","2","81","training","adjacent","BC","2","3","L.jpg","O.jpg","1","1","1","",""
"","feedback","","html-keyboard-response","532","546241","0.0-1.0-735.0-0.0","0","0","97954","","null","","","null","81","","","","","","","","","","","","","","","",""
"","ITI","","html-keyboard-response","533","547243","0.0-1.0-738.0","0","0","97954","","null","","","null","81","","","","","","","","","","","","","","","NaN",""
"","S1","","html-keyboard-response","534","547495","0.0-1.0-740.0","0","0","97954","","null","","","null","82","","","","","","","","","","","","","","","",""
"","ISI","","html-keyboard-response","535","548496","0.0-1.0-741.0","0","0","97954","","null","","","null","82","NaN","","","","","","","","","","","","","","",""
"","S2","","html-keyboard-response","536","548747","0.0-1.0-742.0","0","0","97954","","null","","","null","82","","NaN","","","","","","","","","","","","","",""
"","response","","html-keyboard-response","537","548871","0.0-1.0-743.0-0.0","0","0","97954","","123","","","75","82","","","2","82","training","adjacent","CD","3","4","O.jpg","M.jpg","0","1","0","",""
"","feedback","","html-keyboard-response","538","549872","0.0-1.0-744.0-0.0","0","0","97954","","null","","","null","82","","","","","","","","","","","","","","","",""
"","time_out","","html-keyboard-response","539","551874","0.0-1.0-746.0-0.0","0","0","97954","","null","","","null","82","","","","","","","","","","","","","","","",""
"","ITI","","html-keyboard-response","540","552875","0.0-1.0-747.0","0","0","97954","","null","","","null","82","","","","","","","","","","","","","","","NaN",""
"","S1","","html-keyboard-response","541","553127","0.0-1.0-749.0","0","0","97954","","null","","","null","83","","","","","","","","","","","","","","","",""
"","ISI","","html-keyboard-response","542","554128","0.0-1.0-750.0","0","0","97954","","null","","","null","83","NaN","","","","","","","","","","","","","","",""
"","S2","","html-keyboard-response","543","554380","0.0-1.0-751.0","0","0","97954","","null","","","null","83","","NaN","","","","","","","","","","","","","",""
"","response","","html-keyboard-response","544","554807","0.0-1.0-752.0-0.0","0","0","97954","","426","","","68","83","","","2","83","training","adjacent","BA","2","1","L.jpg","P.jpg","1","0","0","",""
"","feedback","","html-keyboard-response","545","555809","0.0-1.0-753.0-0.0","0","0","97954","","null","","","null","83","","","","","","","","","","","","","","","",""
"","time_out","","html-keyboard-response","546","557810","0.0-1.0-755.0-0.0","0","0","97954","","null","","","null","83","","","","","","","","","","","","","","","",""
"","ITI","","html-keyboard-response","547","558812","0.0-1.0-756.0","0","0","97954","","null","","","null","83","","","","","","","","","","","","","","","NaN",""
"","S1","","html-keyboard-response","548","559063","0.0-1.0-758.0","0","0","97954","","null","","","null","84","","","","","","","","","","","","","","","",""
"","ISI","","html-keyboard-response","549","560065","0.0-1.0-759.0","0","0","97954","","null","","","null","84","NaN","","","","","","","","","","","","","","",""
"","S2","","html-keyboard-response","550","560317","0.0-1.0-760.0","0","0","97954","","null","","","null","84","","NaN","","","","","","","","","","","","","",""
"","response","","html-keyboard-response","551","560370","0.0-1.0-761.0-0.0","0","0","97954","","53","","","75","84","","","2","84","training","adjacent","EF","5","6","N.jpg","R.jpg","0","1","0","",""
"","feedback","","html-keyboard-response","552","561372","0.0-1.0-762.0-0.0","0","0","97954","","null","","","null","84","","","","","","","","","","","","","","","",""
"","time_out","","html-keyboard-response","553","563374","0.0-1.0-764.0-0.0","0","0","97954","","null","","","null","84","","","","","","","","","","","","","","","",""
"","ITI","","html-keyboard-response","554","564375","0.0-1.0-765.0","0","0","97954","","null","","","null","84","","","","","","","","","","","","","","","NaN",""
"","S1","","html-keyboard-response","555","564627","0.0-1.0-767.0","0","0","97954","","null","","","null","85","","","","","","","","","","","","","","","",""
"","ISI","","html-keyboard-response","556","565628","0.0-1.0-768.0","0","0","97954","","null","","","null","85","NaN","","","","","","","","","","","","","","",""
"","S2","","html-keyboard-response","557","565880","0.0-1.0-769.0","0","0","97954","","null","","","null","85","","NaN","","","","","","","","","","","","","",""
"","response","","html-keyboard-response","558","566134","0.0-1.0-770.0-0.0","0","0","97954","","254","","","68","85","","","2","85","training","adjacent","CD","3","4","O.jpg","M.jpg","1","1","1","",""
"","feedback","","html-keyboard-response","559","567136","0.0-1.0-771.0-0.0","0","0","97954","","null","","","null","85","","","","","","","","","","","","","","","",""
"","ITI","","html-keyboard-response","560","568150","0.0-1.0-774.0","0","0","97954","","null","","","null","85","","","","","","","","","","","","","","","NaN",""
"","S1","","html-keyboard-response","561","568402","0.0-1.0-776.0","0","0","97954","","null","","","null","86","","","","","","","","","","","","","","","",""
"","ISI","","html-keyboard-response","562","569403","0.0-1.0-777.0","0","0","97954","","null","","","null","86","NaN","","","","","","","","","","","","","","",""
"","S2","","html-keyboard-response","563","569654","0.0-1.0-778.0","0","0","97954","","null","","","null","86","","NaN","","","","","","","","","","","","","",""
"","response","","html-keyboard-response","564","570026","0.0-1.0-779.0-0.0","0","0","97954","","372","","","75","86","","","2","86","training","adjacent","BA","2","1","L.jpg","P.jpg","0","0","1","",""
"","feedback","","html-keyboard-response","565","571027","0.0-1.0-780.0-0.0","0","0","97954","","null","","","null","86","","","","","","","","","","","","","","","",""
"","ITI","","html-keyboard-response","566","572029","0.0-1.0-783.0","0","0","97954","","null","","","null","86","","","","","","","","","","","","","","","NaN",""
"","S1","","html-keyboard-response","567","572280","0.0-1.0-785.0","0","0","97954","","null","","","null","87","","","","","","","","","","","","","","","",""
"","ISI","","html-keyboard-response","568","573287","0.0-1.0-786.0","0","0","97954","","null","","","null","87","NaN","","","","","","","","","","","","","","",""
"","S2","","html-keyboard-response","569","573539","0.0-1.0-787.0","0","0","97954","","null","","","null","87","","NaN","","","","","","","","","","","","","",""
"","response","","html-keyboard-response","570","574010","0.0-1.0-788.0-0.0","0","0","97954","","470","","","68","87","","","2","87","training","adjacent","CB","3","2","O.jpg","L.jpg","1","0","0","",""
"","feedback","","html-keyboard-response","571","575011","0.0-1.0-789.0-0.0","0","0","97954","","null","","","null","87","","","","","","","","","","","","","","","",""
"","time_out","","html-keyboard-response","572","577013","0.0-1.0-791.0-0.0","0","0","97954","","null","","","null","87","","","","","","","","","","","","","","","",""
"","ITI","","html-keyboard-response","573","578015","0.0-1.0-792.0","0","0","97954","","null","","","null","87","","","","","","","","","","","","","","","NaN",""
"","S1","","html-keyboard-response","574","578266","0.0-1.0-794.0","0","0","97954","","null","","","null","88","","","","","","","","","","","","","","","",""
"","ISI","","html-keyboard-response","575","579275","0.0-1.0-795.0","0","0","97954","","null","","","null","88","NaN","","","","","","","","","","","","","","",""
"","S2","","html-keyboard-response","576","579527","0.0-1.0-796.0","0","0","97954","","null","","","null","88","","NaN","","","","","","","","","","","","","",""
"","response","","html-keyboard-response","577","579662","0.0-1.0-797.0-0.0","0","0","97954","","135","","","75","88","","","2","88","training","adjacent","DC","4","3","M.jpg","O.jpg","0","0","1","",""
"","feedback","","html-keyboard-response","578","580664","0.0-1.0-798.0-0.0","0","0","97954","","null","","","null","88","","","","","","","","","","","","","","","",""
"","ITI","","html-keyboard-response","579","581665","0.0-1.0-801.0","0","0","97954","","null","","","null","88","","","","","","","","","","","","","","","NaN",""
"","S1","","html-keyboard-response","580","581916","0.0-1.0-803.0","0","0","97954","","null","","","null","89","","","","","","","","","","","","","","","",""
"","ISI","","html-keyboard-response","581","582918","0.0-1.0-804.0","0","0","97954","","null","","","null","89","NaN","","","","","","","","","","","","","","",""
