"success","ttype","start_time","trial_type","trial_index","time_elapsed","internal_node_id","warning","missed_checkup","PID","view_history","rt","responses","repeat_instructions","key_press","index","keypress_isi","keypress_S2","block","trial_num","phase","group_type","pair_type","S1_stim","S2_stim","S1_img","S2_img","S1_chosen","S1_higher","accuracy","keypress_iti","total_bonus_tally"
"true","full_screen","d03072023hr1742","fullscreen","0","10825","0.0-0.0","0","0","99858","","","","","","","","","","","","","","","","","","","","","",""
"","instructions","","instructions","1","32072","0.0-1.0-0.0-0.0","0","0","99858","[{""page_index"":0,""viewing_time"":3007},{""page_index"":1,""viewing_time"":10467},{""page_index"":2,""viewing_time"":5883},{""page_index"":3,""viewing_time"":1883}]","21241","","","","","","","","","","","","","","","","","","","",""
"","comprehension_check","","survey-multi-choice","2","48105","0.0-1.0-0.0-1.0","0","0","99858","","16025","{""Q0"":""True"",""Q1"":""D"",""Q2"":""Once the second image appears and while the screen 'MAKE A CHOICE' is shown"",""Q3"":""Green mark"",""Q4"":""either D or K""}","0","","","","","","","","","","","","","","","","","",""
"","start_exp","","html-keyboard-response","3","50123","0.0-1.0-1.0","0","0","99858","","2015","","","32","","","","","","","","","","","","","","","","",""
"","S1","","html-keyboard-response","4","50387","0.0-1.0-2.0","0","0","99858","","null","","","null","0","","","","","","","","","","","","","","","",""
"","ISI","","html-keyboard-response","5","51395","0.0-1.0-3.0","0","0","99858","","null","","","null","0","NaN","","","","","","","","","","","","","","",""
"","S2","","html-keyboard-response","6","51663","0.0-1.0-4.0","0","0","99858","","null","","","null","0","","NaN","","","","","","","","","","","","","",""
"","response","","html-keyboard-response","7","51754","0.0-1.0-5.0-0.0","0","0","99858","","86","","","68","0","","","1","0","training","adjacent","EF","5","6","N.jpg","P.jpg","1","1","1","",""
"","feedback","","html-keyboard-response","8","52765","0.0-1.0-6.0-0.0","0","0","99858","","null","","","null","0","","","","","","","","","","","","","","","",""
"","ITI","","html-keyboard-response","9","53779","0.0-1.0-9.0","0","0","99858","","null","","","null","0","","","","","","","","","","","","","","","NaN",""
"","S1","","html-keyboard-response","10","54046","0.0-1.0-11.0","0","0","99858","","null","","","null","1","","","","","","","","","","","","","","","",""
"","ISI","","html-keyboard-response","11","55061","0.0-1.0-12.0","0","0","99858","","null","","","null","1","NaN","","","","","","","","","","","","","","",""
"","S2","","html-keyboard-response","12","55324","0.0-1.0-13.0","0","0","99858","","null","","","null","1","","NaN","","","","","","","","","","","","","",""
"","response","","html-keyboard-response","13","55338","0.0-1.0-14.0-0.0","0","0","99858","","12","","","68","1","","","1","1","training","adjacent","ED","5","4","N.jpg","Q.jpg","1","0","0","",""
"","feedback","","html-keyboard-response","14","56349","0.0-1.0-15.0-0.0","0","0","99858","","null","","","null","1","","","","","","","","","","","","","","","",""
"","time_out","","html-keyboard-response","15","58354","0.0-1.0-17.0-0.0","0","0","99858","","null","","","null","1","","","","","","","","","","","","","","","",""
"","ITI","","html-keyboard-response","16","59363","0.0-1.0-18.0","0","0","99858","","null","","","null","1","","","","","","","","","","","","","","","NaN",""
"","S1","","html-keyboard-response","17","59629","0.0-1.0-20.0","0","0","99858","","null","","","null","2","","","","","","","","","","","","","","","",""
"","ISI","","html-keyboard-response","18","60643","0.0-1.0-21.0","0","0","99858","","null","","","null","2","NaN","","","","","","","","","","","","","","",""
"","S2","","html-keyboard-response","19","60909","0.0-1.0-22.0","0","0","99858","","null","","","null","2","","NaN","","","","","","","","","","","","","",""
"","response","","html-keyboard-response","20","60940","0.0-1.0-23.0-0.0","0","0","99858","","26","","","68","2","","","1","2","training","adjacent","EF","5","6","N.jpg","P.jpg","1","1","1","",""
"","feedback","","html-keyboard-response","21","61949","0.0-1.0-24.0-0.0","0","0","99858","","null","","","null","2","","","","","","","","","","","","","","","",""
"","ITI","","html-keyboard-response","22","62962","0.0-1.0-27.0","0","0","99858","","null","","","null","2","","","","","","","","","","","","","","","NaN",""
"","S1","","html-keyboard-response","23","63218","0.0-1.0-29.0","0","0","99858","","null","","","null","3","","","","","","","","","","","","","","","",""
"","ISI","","html-keyboard-response","24","64226","0.0-1.0-30.0","0","0","99858","","null","","","null","3","NaN","","","","","","","","","","","","","","",""
"","S2","","html-keyboard-response","25","64482","0.0-1.0-31.0","0","0","99858","","null","","","null","3","","NaN","","","","","","","","","","","","","",""
"","response","","html-keyboard-response","26","64487","0.0-1.0-32.0-0.0","0","0","99858","","1","","","75","3","","","1","3","training","adjacent","DC","4","3","Q.jpg","L.jpg","0","0","1","",""
"","feedback","","html-keyboard-response","27","65500","0.0-1.0-33.0-0.0","0","0","99858","","null","","","null","3","","","","","","","","","","","","","","","",""
"","ITI","","html-keyboard-response","28","66509","0.0-1.0-36.0","0","0","99858","","null","","","null","3","","","","","","","","","","","","","","","NaN",""
"","S1","","html-keyboard-response","29","66771","0.0-1.0-38.0","0","0","99858","","null","","","null","4","","","","","","","","","","","","","","","",""
"","ISI","","html-keyboard-response","30","67778","0.0-1.0-39.0","0","0","99858","","null","","","null","4","NaN","","","","","","","","","","","","","","",""
"","S2","","html-keyboard-response","31","68033","0.0-1.0-40.0","0","0","99858","","250","","","75","4","","k","1","4","training","adjacent","FE","6","5","P.jpg","N.jpg","0","0","1","",""
"","feedback","","html-keyboard-response","32","69043","0.0-1.0-42.0-0.0","0","0","99858","","null","","","null","4","","","","","","","","","","","","","","","",""
"","ITI","","html-keyboard-response","33","70050","0.0-1.0-45.0","0","0","99858","","null","","","null","4","","","","","","","","","","","","","","","NaN",""
"","S1","","html-keyboard-response","34","70306","0.0-1.0-47.0","0","0","99858","","null","","","null","5","","","","","","","","","","","","","","","",""
"","ISI","","html-keyboard-response","35","71314","0.0-1.0-48.0","0","0","99858","","519","","","68","5","d","","","","","","","","","","","","","","",""
"","S2","","html-keyboard-response","36","71571","0.0-1.0-49.0","0","0","99858","","null","","","null","5","","NaN","","","","","","","","","","","","","",""
"","response","","html-keyboard-response","37","71711","0.0-1.0-50.0-0.0","0","0","99858","","136","","","68","5","","","1","5","training","adjacent","DC","4","3","Q.jpg","L.jpg","1","0","0","",""
"","feedback","","html-keyboard-response","38","72724","0.0-1.0-51.0-0.0","0","0","99858","","null","","","null","5","","","","","","","","","","","","","","","",""
"","time_out","","html-keyboard-response","39","74734","0.0-1.0-53.0-0.0","0","0","99858","","null","","","null","5","","","","","","","","","","","","","","","",""
"","ITI","","html-keyboard-response","40","75746","0.0-1.0-54.0","0","0","99858","","null","","","null","5","","","","","","","","","","","","","","","NaN",""
"","S1","","html-keyboard-response","41","76002","0.0-1.0-56.0","0","0","99858","","null","","","null","6","","","","","","","","","","","","","","","",""
"","ISI","","html-keyboard-response","42","77010","0.0-1.0-57.0","0","0","99858","","162","","","75","6","k","","","","","","","","","","","","","","",""
"","S2","","html-keyboard-response","43","77268","0.0-1.0-58.0","0","0","99858","","null","","","null","6","","NaN","","","","","","","","","","","","","",""
"","response","","html-keyboard-response","44","77287","0.0-1.0-59.0-0.0","0","0","99858","","16","","","75","6","","","1","6","training","adjacent","CB","3","2","L.jpg","M.jpg","0","0","1","",""
"","feedback","","html-keyboard-response","45","78297","0.0-1.0-60.0-0.0","0","0","99858","","null","","","null","6","","","","","","","","","","","","","","","",""
"","ITI","","html-keyboard-response","46","79308","0.0-1.0-63.0","0","0","99858","","null","","","null","6","","","","","","","","","","","","","","","NaN",""
"","S1","","html-keyboard-response","47","79569","0.0-1.0-65.0","0","0","99858","","null","","","null","7","","","","","","","","","","","","","","","",""
"","ISI","","html-keyboard-response","48","80578","0.0-1.0-66.0","0","0","99858","","null","","","null","7","NaN","","","","","","","","","","","","","","",""
"","S2","","html-keyboard-response","49","80823","0.0-1.0-67.0","0","0","99858","","240","","","68","7","","d","1","7","training","adjacent","DE","4","5","Q.jpg","N.jpg","1","1","1","",""
"","feedback","","html-keyboard-response","50","81836","0.0-1.0-69.0-0.0","0","0","99858","","null","","","null","7","","","","","","","","","","","","","","","",""
"","ITI","","html-keyboard-response","51","82851","0.0-1.0-72.0","0","0","99858","","null","","","null","7","","","","","","","","","","","","","","","NaN",""
"","S1","","html-keyboard-response","52","83115","0.0-1.0-74.0","0","0","99858","","null","","","null","8","","","","","","","","","","","","","","","",""
"","ISI","","html-keyboard-response","53","84123","0.0-1.0-75.0","0","0","99858","","null","","","null","8","NaN","","","","","","","","","","","","","","",""
"","S2","","html-keyboard-response","54","84386","0.0-1.0-76.0","0","0","99858","","null","","","null","8","","NaN","","","","","","","","","","","","","",""
"","response","","html-keyboard-response","55","84426","0.0-1.0-77.0-0.0","0","0","99858","","35","","","68","8","","","1","8","training","adjacent","FG","6","7","P.jpg","O.jpg","1","1","1","",""
"","feedback","","html-keyboard-response","56","85436","0.0-1.0-78.0-0.0","0","0","99858","","null","","","null","8","","","","","","","","","","","","","","","",""
"","ITI","","html-keyboard-response","57","86451","0.0-1.0-81.0","0","0","99858","","null","","","null","8","","","","","","","","","","","","","","","NaN",""
"","S1","","html-keyboard-response","58","86715","0.0-1.0-83.0","0","0","99858","","null","","","null","9","","","","","","","","","","","","","","","",""
"","ISI","","html-keyboard-response","59","87724","0.0-1.0-84.0","0","0","99858","","null","","","null","9","NaN","","","","","","","","","","","","","","",""
"","S2","","html-keyboard-response","60","87735","0.0-1.0-85.0","0","0","99858","","9","","","68","9","","d","1","9","training","adjacent","BA","2","1","M.jpg","R.jpg","1","0","0","",""
"","feedback","","html-keyboard-response","61","88749","0.0-1.0-87.0-0.0","0","0","99858","","null","","","null","9","","","","","","","","","","","","","","","",""
"","time_out","","html-keyboard-response","62","90764","0.0-1.0-89.0-0.0","0","0","99858","","null","","","null","9","","","","","","","","","","","","","","","",""
"","ITI","","html-keyboard-response","63","91774","0.0-1.0-90.0","0","0","99858","","null","","","null","9","","","","","","","","","","","","","","","NaN",""
"","S1","","html-keyboard-response","64","92033","0.0-1.0-92.0","0","0","99858","","null","","","null","10","","","","","","","","","","","","","","","",""
"","ISI","","html-keyboard-response","65","93043","0.0-1.0-93.0","0","0","99858","","null","","","null","10","NaN","","","","","","","","","","","","","","",""
"","S2","","html-keyboard-response","66","93308","0.0-1.0-94.0","0","0","99858","","null","","","null","10","","NaN","","","","","","","","","","","","","",""
"","response","","html-keyboard-response","67","93321","0.0-1.0-95.0-0.0","0","0","99858","","10","","","75","10","","","1","10","training","adjacent","FE","6","5","P.jpg","N.jpg","0","0","1","",""
"","feedback","","html-keyboard-response","68","94331","0.0-1.0-96.0-0.0","0","0","99858","","null","","","null","10","","","","","","","","","","","","","","","",""
"","ITI","","html-keyboard-response","69","95341","0.0-1.0-99.0","0","0","99858","","null","","","null","10","","","","","","","","","","","","","","","NaN",""
"","S1","","html-keyboard-response","70","95601","0.0-1.0-101.0","0","0","99858","","null","","","null","11","","","","","","","","","","","","","","","",""
"","ISI","","html-keyboard-response","71","96612","0.0-1.0-102.0","0","0","99858","","null","","","null","11","NaN","","","","","","","","","","","","","","",""
"","S2","","html-keyboard-response","72","96877","0.0-1.0-103.0","0","0","99858","","null","","","null","11","","NaN","","","","","","","","","","","","","",""
"","response","","html-keyboard-response","73","96909","0.0-1.0-104.0-0.0","0","0","99858","","28","","","75","11","","","1","11","training","adjacent","GF","7","6","O.jpg","P.jpg","0","0","1","",""
"","feedback","","html-keyboard-response","74","97923","0.0-1.0-105.0-0.0","0","0","99858","","null","","","null","11","","","","","","","","","","","","","","","",""
"","ITI","","html-keyboard-response","75","98931","0.0-1.0-108.0","0","0","99858","","null","","","null","11","","","","","","","","","","","","","","","NaN",""
"","S1","","html-keyboard-response","76","99196","0.0-1.0-110.0","0","0","99858","","null","","","null","12","","","","","","","","","","","","","","","",""
"","ISI","","html-keyboard-response","77","100211","0.0-1.0-111.0","0","0","99858","","null","","","null","12","NaN","","","","","","","","","","","","","","",""
"","S2","","html-keyboard-response","78","100467","0.0-1.0-112.0","0","0","99858","","251","","","75","12","","k","1","12","training","adjacent","GF","7","6","O.jpg","P.jpg","0","0","1","",""
"","feedback","","html-keyboard-response","79","101485","0.0-1.0-114.0-0.0","0","0","99858","","null","","","null","12","","","","","","","","","","","","","","","",""
"","ITI","","html-keyboard-response","80","102497","0.0-1.0-117.0","0","0","99858","","null","","","null","12","","","","","","","","","","","","","","","NaN",""
"","S1","","html-keyboard-response","81","102753","0.0-1.0-119.0","0","0","99858","","null","","","null","13","","","","","","","","","","","","","","","",""
"","ISI","","html-keyboard-response","82","103761","0.0-1.0-120.0","0","0","99858","","null","","","null","13","NaN","","","","","","","","","","","","","","",""
"","S2","","html-keyboard-response","83","104027","0.0-1.0-121.0","0","0","99858","","null","","","null","13","","NaN","","","","","","","","","","","","","",""
"","response","","html-keyboard-response","84","104060","0.0-1.0-122.0-0.0","0","0","99858","","28","","","68","13","","","1","13","training","adjacent","ED","5","4","N.jpg","Q.jpg","1","0","0","",""
"","feedback","","html-keyboard-response","85","105073","0.0-1.0-123.0-0.0","0","0","99858","","null","","","null","13","","","","","","","","","","","","","","","",""
"","time_out","","html-keyboard-response","86","107086","0.0-1.0-125.0-0.0","0","0","99858","","null","","","null","13","","","","","","","","","","","","","","","",""
"","ITI","","html-keyboard-response","87","108097","0.0-1.0-126.0","0","0","99858","","null","","","null","13","","","","","","","","","","","","","","","NaN",""
"","S1","","html-keyboard-response","88","108364","0.0-1.0-128.0","0","0","99858","","null","","","null","14","","","","","","","","","","","","","","","",""
"","ISI","","html-keyboard-response","89","109377","0.0-1.0-129.0","0","0","99858","","null","","","null","14","NaN","","","","","","","","","","","","","","",""
"","S2","","html-keyboard-response","90","109635","0.0-1.0-130.0","0","0","99858","","null","","","null","14","","NaN","","","","","","","","","","","","","",""
"","response","","html-keyboard-response","91","109639","0.0-1.0-131.0-0.0","0","0","99858","","3","","","68","14","","","1","14","training","adjacent","EF","5","6","N.jpg","P.jpg","1","1","1","",""
"","feedback","","html-keyboard-response","92","110650","0.0-1.0-132.0-0.0","0","0","99858","","null","","","null","14","","","","","","","","","","","","","","","",""
"","ITI","","html-keyboard-response","93","111660","0.0-1.0-135.0","0","0","99858","","null","","","null","14","","","","","","","","","","","","","","","NaN",""
"","S1","","html-keyboard-response","94","111922","0.0-1.0-137.0","0","0","99858","","null","","","null","15","","","","","","","","","","","","","","","",""
"","ISI","","html-keyboard-response","95","112933","0.0-1.0-138.0","0","0","99858","","null","","","null","15","NaN","","","","","","","","","","","","","","",""
"","S2","","html-keyboard-response","96","113195","0.0-1.0-139.0","0","0","99858","","null","","","null","15","","NaN","","","","","","","","","","","","","",""
"","response","","html-keyboard-response","97","113276","0.0-1.0-140.0-0.0","0","0","99858","","77","","","68","15","","","1","15","training","adjacent","CB","3","2","L.jpg","M.jpg","1","0","0","",""
"","feedback","","html-keyboard-response","98","114292","0.0-1.0-141.0-0.0","0","0","99858","","null","","","null","15","","","","","","","","","","","","","","","",""
"","time_out","","html-keyboard-response","99","116305","0.0-1.0-143.0-0.0","0","0","99858","","null","","","null","15","","","","","","","","","","","","","","","",""
"","ITI","","html-keyboard-response","100","117314","0.0-1.0-144.0","0","0","99858","","null","","","null","15","","","","","","","","","","","","","","","NaN",""
"","S1","","html-keyboard-response","101","117578","0.0-1.0-146.0","0","0","99858","","null","","","null","16","","","","","","","","","","","","","","","",""
"","ISI","","html-keyboard-response","102","118588","0.0-1.0-147.0","0","0","99858","","null","","","null","16","NaN","","","","","","","","","","","","","","",""
"","S2","","html-keyboard-response","103","118850","0.0-1.0-148.0","0","0","99858","","null","","","null","16","","NaN","","","","","","","","","","","","","",""
"","response","","html-keyboard-response","104","118876","0.0-1.0-149.0-0.0","0","0","99858","","22","","","75","16","","","1","16","training","adjacent","GF","7","6","O.jpg","P.jpg","0","0","1","",""
"","feedback","","html-keyboard-response","105","119888","0.0-1.0-150.0-0.0","0","0","99858","","null","","","null","16","","","","","","","","","","","","","","","",""
"","ITI","","html-keyboard-response","106","120899","0.0-1.0-153.0","0","0","99858","","null","","","null","16","","","","","","","","","","","","","","","NaN",""
"","S1","","html-keyboard-response","107","121162","0.0-1.0-155.0","0","0","99858","","null","","","null","17","","","","","","","","","","","","","","","",""
"","ISI","","html-keyboard-response","108","122171","0.0-1.0-156.0","0","0","99858","","null","","","null","17","NaN","","","","","","","","","","","","","","",""
"","S2","","html-keyboard-response","109","122432","0.0-1.0-157.0","0","0","99858","","null","","","null","17","","NaN","","","","","","","","","","","","","",""
"","response","","html-keyboard-response","110","122732","0.0-1.0-158.0-0.0","0","0","99858","","297","","","68","17","","","1","17","training","adjacent","CB","3","2","L.jpg","M.jpg","1","0","0","",""
"","feedback","","html-keyboard-response","111","123745","0.0-1.0-159.0-0.0","0","0","99858","","null","","","null","17","","","","","","","","","","","","","","","",""
"","time_out","","html-keyboard-response","112","125756","0.0-1.0-161.0-0.0","0","0","99858","","null","","","null","17","","","","","","","","","","","","","","","",""
"","ITI","","html-keyboard-response","113","126768","0.0-1.0-162.0","0","0","99858","","null","","","null","17","","","","","","","","","","","","","","","NaN",""
"","S1","","html-keyboard-response","114","127026","0.0-1.0-164.0","0","0","99858","","null","","","null","18","","","","","","","","","","","","","","","",""
"","ISI","","html-keyboard-response","115","128032","0.0-1.0-165.0","0","0","99858","","null","","","null","18","NaN","","","","","","","","","","","","","","",""
"","S2","","html-keyboard-response","116","128291","0.0-1.0-166.0","0","0","99858","","null","","","null","18","","NaN","","","","","","","","","","","","","",""
"","response","","html-keyboard-response","117","128408","0.0-1.0-167.0-0.0","0","0","99858","","112","","","68","18","","","1","18","training","adjacent","DC","4","3","Q.jpg","L.jpg","1","0","0","",""
"","feedback","","html-keyboard-response","118","129419","0.0-1.0-168.0-0.0","0","0","99858","","null","","","null","18","","","","","","","","","","","","","","","",""
"","time_out","","html-keyboard-response","119","131434","0.0-1.0-170.0-0.0","0","0","99858","","null","","","null","18","","","","","","","","","","","","","","","",""
"","ITI","","html-keyboard-response","120","132444","0.0-1.0-171.0","0","0","99858","","null","","","null","18","","","","","","","","","","","","","","","NaN",""
"","S1","","html-keyboard-response","121","132708","0.0-1.0-173.0","0","0","99858","","null","","","null","19","","","","","","","","","","","","","","","",""
"","ISI","","html-keyboard-response","122","133722","0.0-1.0-174.0","0","0","99858","","null","","","null","19","NaN","","","","","","","","","","","","","","",""
"","S2","","html-keyboard-response","123","133985","0.0-1.0-175.0","0","0","99858","","null","","","null","19","","NaN","","","","","","","","","","","","","",""
"","response","","html-keyboard-response","124","134143","0.0-1.0-176.0-0.0","0","0","99858","","154","","","68","19","","","1","19","training","adjacent","FG","6","7","P.jpg","O.jpg","1","1","1","",""
"","feedback","","html-keyboard-response","125","135152","0.0-1.0-177.0-0.0","0","0","99858","","null","","","null","19","","","","","","","","","","","","","","","",""
"","ITI","","html-keyboard-response","126","136160","0.0-1.0-180.0","0","0","99858","","null","","","null","19","","","","","","","","","","","","","","","NaN",""
"","S1","","html-keyboard-response","127","136416","0.0-1.0-182.0","0","0","99858","","null","","","null","20","","","","","","","","","","","","","","","",""
"","ISI","","html-keyboard-response","128","137424","0.0-1.0-183.0","0","0","99858","","null","","","null","20","NaN","","","","","","","","","","","","","","",""
"","S2","","html-keyboard-response","129","137680","0.0-1.0-184.0","0","0","99858","","null","","","null","20","","NaN","","","","","","","","","","","","","",""
"","response","","html-keyboard-response","130","137689","0.0-1.0-185.0-0.0","0","0","99858","","5","","","75","20","","","1","20","training","adjacent","CD","3","4","L.jpg","Q.jpg","0","1","0","",""
"","feedback","","html-keyboard-response","131","138697","0.0-1.0-186.0-0.0","0","0","99858","","null","","","null","20","","","","","","","","","","","","","","","",""
"","time_out","","html-keyboard-response","132","140704","0.0-1.0-188.0-0.0","0","0","99858","","null","","","null","20","","","","","","","","","","","","","","","",""
"","ITI","","html-keyboard-response","133","141716","0.0-1.0-189.0","0","0","99858","","null","","","null","20","","","","","","","","","","","","","","","NaN",""
"","S1","","html-keyboard-response","134","141977","0.0-1.0-191.0","0","0","99858","","null","","","null","21","","","","","","","","","","","","","","","",""
"","ISI","","html-keyboard-response","135","142986","0.0-1.0-192.0","0","0","99858","","null","","","null","21","NaN","","","","","","","","","","","","","","",""
"","S2","","html-keyboard-response","136","143247","0.0-1.0-193.0","0","0","99858","","null","","","null","21","","NaN","","","","","","","","","","","","","",""
"","response","","html-keyboard-response","137","143292","0.0-1.0-194.0-0.0","0","0","99858","","40","","","68","21","","","1","21","training","adjacent","AB","1","2","R.jpg","M.jpg","1","1","1","",""
"","feedback","","html-keyboard-response","138","144304","0.0-1.0-195.0-0.0","0","0","99858","","null","","","null","21","","","","","","","","","","","","","","","",""
"","ITI","","html-keyboard-response","139","145311","0.0-1.0-198.0","0","0","99858","","null","","","null","21","","","","","","","","","","","","","","","NaN",""
"","S1","","html-keyboard-response","140","145568","0.0-1.0-200.0","0","0","99858","","null","","","null","22","","","","","","","","","","","","","","","",""
"","ISI","","html-keyboard-response","141","146575","0.0-1.0-201.0","0","0","99858","","null","","","null","22","NaN","","","","","","","","","","","","","","",""
"","S2","","html-keyboard-response","142","146833","0.0-1.0-202.0","0","0","99858","","null","","","null","22","","NaN","","","","","","","","","","","","","",""
"","response","","html-keyboard-response","143","146860","0.0-1.0-203.0-0.0","0","0","99858","","24","","","75","22","","","1","22","training","adjacent","CD","3","4","L.jpg","Q.jpg","0","1","0","",""
"","feedback","","html-keyboard-response","144","147871","0.0-1.0-204.0-0.0","0","0","99858","","null","","","null","22","","","","","","","","","","","","","","","",""
"","time_out","","html-keyboard-response","145","149883","0.0-1.0-206.0-0.0","0","0","99858","","null","","","null","22","","","","","","","","","","","","","","","",""
"","ITI","","html-keyboard-response","146","150895","0.0-1.0-207.0","0","0","99858","","null","","","null","22","","","","","","","","","","","","","","","NaN",""
"","S1","","html-keyboard-response","147","151151","0.0-1.0-209.0","0","0","99858","","null","","","null","23","","","","","","","","","","","","","","","",""
"","ISI","","html-keyboard-response","148","152159","0.0-1.0-210.0","0","0","99858","","null","","","null","23","NaN","","","","","","","","","","","","","","",""
"","S2","","html-keyboard-response","149","152415","0.0-1.0-211.0","0","0","99858","","null","","","null","23","","NaN","","","","","","","","","","","","","",""
"","response","","html-keyboard-response","150","152968","0.0-1.0-212.0-0.0","0","0","99858","","548","","","68","23","","","1","23","training","adjacent","DE","4","5","Q.jpg","N.jpg","1","1","1","",""
"","feedback","","html-keyboard-response","151","153977","0.0-1.0-213.0-0.0","0","0","99858","","null","","","null","23","","","","","","","","","","","","","","","",""
"","ITI","","html-keyboard-response","152","154986","0.0-1.0-216.0","0","0","99858","","null","","","null","23","","","","","","","","","","","","","","","NaN",""
"","S1","","html-keyboard-response","153","155247","0.0-1.0-218.0","0","0","99858","","null","","","null","24","","","","","","","","","","","","","","","",""
"","ISI","","html-keyboard-response","154","156256","0.0-1.0-219.0","0","0","99858","","null","","","null","24","NaN","","","","","","","","","","","","","","",""
"","S2","","html-keyboard-response","155","156521","0.0-1.0-220.0","0","0","99858","","null","","","null","24","","NaN","","","","","","","","","","","","","",""
"","response","","html-keyboard-response","156","156635","0.0-1.0-221.0-0.0","0","0","99858","","109","","","68","24","","","1","24","training","adjacent","FE","6","5","P.jpg","N.jpg","1","0","0","",""
"","feedback","","html-keyboard-response","157","157647","0.0-1.0-222.0-0.0","0","0","99858","","null","","","null","24","","","","","","","","","","","","","","","",""
"","time_out","","html-keyboard-response","158","159659","0.0-1.0-224.0-0.0","0","0","99858","","null","","","null","24","","","","","","","","","","","","","","","",""
"","ITI","","html-keyboard-response","159","160672","0.0-1.0-225.0","0","0","99858","","null","","","null","24","","","","","","","","","","","","","","","NaN",""
"","S1","","html-keyboard-response","160","160937","0.0-1.0-227.0","0","0","99858","","null","","","null","25","","","","","","","","","","","","","","","",""
"","ISI","","html-keyboard-response","161","161947","0.0-1.0-228.0","0","0","99858","","null","","","null","25","NaN","","","","","","","","","","","","","","",""
"","S2","","html-keyboard-response","162","162207","0.0-1.0-229.0","0","0","99858","","null","","","null","25","","NaN","","","","","","","","","","","","","",""
"","response","","html-keyboard-response","163","162343","0.0-1.0-230.0-0.0","0","0","99858","","131","","","75","25","","","1","25","training","adjacent","BC","2","3","M.jpg","L.jpg","0","1","0","",""
"","feedback","","html-keyboard-response","164","163353","0.0-1.0-231.0-0.0","0","0","99858","","null","","","null","25","","","","","","","","","","","","","","","",""
"","time_out","","html-keyboard-response","165","165359","0.0-1.0-233.0-0.0","0","0","99858","","null","","","null","25","","","","","","","","","","","","","","","",""
"","ITI","","html-keyboard-response","166","166368","0.0-1.0-234.0","0","0","99858","","null","","","null","25","","","","","","","","","","","","","","","NaN",""
"","S1","","html-keyboard-response","167","166633","0.0-1.0-236.0","0","0","99858","","null","","","null","26","","","","","","","","","","","","","","","",""
"","ISI","","html-keyboard-response","168","167642","0.0-1.0-237.0","0","0","99858","","99","","","68","26","d","","","","","","","","","","","","","","",""
"","S2","","html-keyboard-response","169","167904","0.0-1.0-238.0","0","0","99858","","null","","","null","26","","NaN","","","","","","","","","","","","","",""
"","response","","html-keyboard-response","170","167943","0.0-1.0-239.0-0.0","0","0","99858","","34","","","68","26","","","1","26","training","adjacent","BA","2","1","M.jpg","R.jpg","1","0","0","",""
"","feedback","","html-keyboard-response","171","168955","0.0-1.0-240.0-0.0","0","0","99858","","null","","","null","26","","","","","","","","","","","","","","","",""
"","time_out","","html-keyboard-response","172","170971","0.0-1.0-242.0-0.0","0","0","99858","","null","","","null","26","","","","","","","","","","","","","","","",""
"","ITI","","html-keyboard-response","173","171983","0.0-1.0-243.0","0","0","99858","","null","","","null","26","","","","","","","","","","","","","","","NaN",""
"","S1","","html-keyboard-response","174","172240","0.0-1.0-245.0","0","0","99858","","null","","","null","27","","","","","","","","","","","","","","","",""
"","ISI","","html-keyboard-response","175","173246","0.0-1.0-246.0","0","0","99858","","null","","","null","27","NaN","","","","","","","","","","","","","","",""
"","S2","","html-keyboard-response","176","173503","0.0-1.0-247.0","0","0","99858","","null","","","null","27","","NaN","","","","","","","","","","","","","",""
"","response","","html-keyboard-response","177","173576","0.0-1.0-248.0-0.0","0","0","99858","","68","","","68","27","","","1","27","training","adjacent","FG","6","7","P.jpg","O.jpg","1","1","1","",""
"","feedback","","html-keyboard-response","178","174585","0.0-1.0-249.0-0.0","0","0","99858","","null","","","null","27","","","","","","","","","","","","","","","",""
"","ITI","","html-keyboard-response","179","175593","0.0-1.0-252.0","0","0","99858","","null","","","null","27","","","","","","","","","","","","","","","NaN",""
"","S1","","html-keyboard-response","180","175855","0.0-1.0-254.0","0","0","99858","","null","","","null","28","","","","","","","","","","","","","","","",""
"","ISI","","html-keyboard-response","181","176865","0.0-1.0-255.0","0","0","99858","","null","","","null","28","NaN","","","","","","","","","","","","","","",""
"","S2","","html-keyboard-response","182","177129","0.0-1.0-256.0","0","0","99858","","null","","","null","28","","NaN","","","","","","","","","","","","","",""
"","response","","html-keyboard-response","183","177428","0.0-1.0-257.0-0.0","0","0","99858","","294","","","75","28","","","1","28","training","adjacent","BA","2","1","M.jpg","R.jpg","0","0","1","",""
"","feedback","","html-keyboard-response","184","178442","0.0-1.0-258.0-0.0","0","0","99858","","null","","","null","28","","","","","","","","","","","","","","","",""
"","ITI","","html-keyboard-response","185","179455","0.0-1.0-261.0","0","0","99858","","null","","","null","28","","","","","","","","","","","","","","","NaN",""
"","S1","","html-keyboard-response","186","179722","0.0-1.0-263.0","0","0","99858","","null","","","null","29","","","","","","","","","","","","","","","",""
"","ISI","","html-keyboard-response","187","180736","0.0-1.0-264.0","0","0","99858","","null","","","null","29","NaN","","","","","","","","","","","","","","",""
"","S2","","html-keyboard-response","188","181001","0.0-1.0-265.0","0","0","99858","","null","","","null","29","","NaN","","","","","","","","","","","","","",""
"","response","","html-keyboard-response","189","181307","0.0-1.0-266.0-0.0","0","0","99858","","301","","","68","29","","","1","29","training","adjacent","DC","4","3","Q.jpg","L.jpg","1","0","0","",""
"","feedback","","html-keyboard-response","190","182321","0.0-1.0-267.0-0.0","0","0","99858","","null","","","null","29","","","","","","","","","","","","","","","",""
"","time_out","","html-keyboard-response","191","184329","0.0-1.0-269.0-0.0","0","0","99858","","null","","","null","29","","","","","","","","","","","","","","","",""
"","ITI","","html-keyboard-response","192","185339","0.0-1.0-270.0","0","0","99858","","null","","","null","29","","","","","","","","","","","","","","","NaN",""
"","S1","","html-keyboard-response","193","185600","0.0-1.0-272.0","0","0","99858","","null","","","null","30","","","","","","","","","","","","","","","",""
"","ISI","","html-keyboard-response","194","186611","0.0-1.0-273.0","0","0","99858","","null","","","null","30","NaN","","","","","","","","","","","","","","",""
"","S2","","html-keyboard-response","195","186875","0.0-1.0-274.0","0","0","99858","","null","","","null","30","","NaN","","","","","","","","","","","","","",""
"","response","","html-keyboard-response","196","187169","0.0-1.0-275.0-0.0","0","0","99858","","289","","","75","30","","","1","30","training","adjacent","DE","4","5","Q.jpg","N.jpg","0","1","0","",""
"","feedback","","html-keyboard-response","197","188186","0.0-1.0-276.0-0.0","0","0","99858","","null","","","null","30","","","","","","","","","","","","","","","",""
"","time_out","","html-keyboard-response","198","190201","0.0-1.0-278.0-0.0","0","0","99858","","null","","","null","30","","","","","","","","","","","","","","","",""
"","ITI","","html-keyboard-response","199","191209","0.0-1.0-279.0","0","0","99858","","null","","","null","30","","","","","","","","","","","","","","","NaN",""
"","S1","","html-keyboard-response","200","191471","0.0-1.0-281.0","0","0","99858","","null","","","null","31","","","","","","","","","","","","","","","",""
"","ISI","","html-keyboard-response","201","192480","0.0-1.0-282.0","0","0","99858","","null","","","null","31","NaN","","","","","","","","","","","","","","",""
"","S2","","html-keyboard-response","202","192745","0.0-1.0-283.0","0","0","99858","","null","","","null","31","","NaN","","","","","","","","","","","","","",""
"","response","","html-keyboard-response","203","192883","0.0-1.0-284.0-0.0","0","0","99858","","133","","","68","31","","","1","31","training","adjacent","AB","1","2","R.jpg","M.jpg","1","1","1","",""
"","feedback","","html-keyboard-response","204","193897","0.0-1.0-285.0-0.0","0","0","99858","","null","","","null","31","","","","","","","","","","","","","","","",""
"","ITI","","html-keyboard-response","205","194905","0.0-1.0-288.0","0","0","99858","","null","","","null","31","","","","","","","","","","","","","","","NaN",""
"","S1","","html-keyboard-response","206","195167","0.0-1.0-290.0","0","0","99858","","null","","","null","32","","","","","","","","","","","","","","","",""
"","ISI","","html-keyboard-response","207","196174","0.0-1.0-291.0","0","0","99858","","null","","","null","32","NaN","","","","","","","","","","","","","","",""
"","S2","","html-keyboard-response","208","196442","0.0-1.0-292.0","0","0","99858","","null","","","null","32","","NaN","","","","","","","","","","","","","",""
"","response","","html-keyboard-response","209","196563","0.0-1.0-293.0-0.0","0","0","99858","","117","","","68","32","","","1","32","training","adjacent","FG","6","7","P.jpg","O.jpg","1","1","1","",""
"","feedback","","html-keyboard-response","210","197577","0.0-1.0-294.0-0.0","0","0","99858","","null","","","null","32","","","","","","","","","","","","","","","",""
"","ITI","","html-keyboard-response","211","198591","0.0-1.0-297.0","0","0","99858","","null","","","null","32","","","","","","","","","","","","","","","NaN",""
"","S1","","html-keyboard-response","212","198856","0.0-1.0-299.0","0","0","99858","","null","","","null","33","","","","","","","","","","","","","","","",""
"","ISI","","html-keyboard-response","213","199866","0.0-1.0-300.0","0","0","99858","","null","","","null","33","NaN","","","","","","","","","","","","","","",""
"","S2","","html-keyboard-response","214","200127","0.0-1.0-301.0","0","0","99858","","null","","","null","33","","NaN","","","","","","","","","","","","","",""
"","response","","html-keyboard-response","215","200204","0.0-1.0-302.0-0.0","0","0","99858","","72","","","75","33","","","1","33","training","adjacent","GF","7","6","O.jpg","P.jpg","0","0","1","",""
"","feedback","","html-keyboard-response","216","201214","0.0-1.0-303.0-0.0","0","0","99858","","null","","","null","33","","","","","","","","","","","","","","","",""
"","ITI","","html-keyboard-response","217","202222","0.0-1.0-306.0","0","0","99858","","null","","","null","33","","","","","","","","","","","","","","","NaN",""
"","S1","","html-keyboard-response","218","202478","0.0-1.0-308.0","0","0","99858","","null","","","null","34","","","","","","","","","","","","","","","",""
"","ISI","","html-keyboard-response","219","203486","0.0-1.0-309.0","0","0","99858","","null","","","null","34","NaN","","","","","","","","","","","","","","",""
"","S2","","html-keyboard-response","220","203742","0.0-1.0-310.0","0","0","99858","","null","","","null","34","","NaN","","","","","","","","","","","","","",""
"","response","","html-keyboard-response","221","203882","0.0-1.0-311.0-0.0","0","0","99858","","135","","","75","34","","","1","34","training","adjacent","CB","3","2","L.jpg","M.jpg","0","0","1","",""
"","feedback","","html-keyboard-response","222","204894","0.0-1.0-312.0-0.0","0","0","99858","","null","","","null","34","","","","","","","","","","","","","","","",""
"","ITI","","html-keyboard-response","223","205902","0.0-1.0-315.0","0","0","99858","","null","","","null","34","","","","","","","","","","","","","","","NaN",""
"","S1","","html-keyboard-response","224","206169","0.0-1.0-317.0","0","0","99858","","null","","","null","35","","","","","","","","","","","","","","","",""
"","ISI","","html-keyboard-response","225","207183","0.0-1.0-318.0","0","0","99858","","null","","","null","35","NaN","","","","","","","","","","","","","","",""
"","S2","","html-keyboard-response","226","207447","0.0-1.0-319.0","0","0","99858","","258","","","68","35","","d","1","35","training","adjacent","FE","6","5","P.jpg","N.jpg","1","0","0","",""
"","feedback","","html-keyboard-response","227","208456","0.0-1.0-321.0-0.0","0","0","99858","","null","","","null","35","","","","","","","","","","","","","","","",""
"","time_out","","html-keyboard-response","228","210464","0.0-1.0-323.0-0.0","0","0","99858","","null","","","null","35","","","","","","","","","","","","","","","",""
"","ITI","","html-keyboard-response","229","211470","0.0-1.0-324.0","0","0","99858","","null","","","null","35","","","","","","","","","","","","","","","NaN",""
"","S1","","html-keyboard-response","230","211738","0.0-1.0-326.0","0","0","99858","","null","","","null","36","","","","","","","","","","","","","","","",""
"","ISI","","html-keyboard-response","231","212754","0.0-1.0-327.0","0","0","99858","","null","","","null","36","NaN","","","","","","","","","","","","","","",""
"","S2","","html-keyboard-response","232","213016","0.0-1.0-328.0","0","0","99858","","null","","","null","36","","NaN","","","","","","","","","","","","","",""
"","response","","html-keyboard-response","233","213276","0.0-1.0-329.0-0.0","0","0","99858","","255","","","68","36","","","1","36","training","adjacent","BC","2","3","M.jpg","L.jpg","1","1","1","",""
"","feedback","","html-keyboard-response","234","214290","0.0-1.0-330.0-0.0","0","0","99858","","null","","","null","36","","","","","","","","","","","","","","","",""
"","ITI","","html-keyboard-response","235","215305","0.0-1.0-333.0","0","0","99858","","null","","","null","36","","","","","","","","","","","","","","","NaN",""
"","S1","","html-keyboard-response","236","215566","0.0-1.0-335.0","0","0","99858","","null","","","null","37","","","","","","","","","","","","","","","",""
"","ISI","","html-keyboard-response","237","216574","0.0-1.0-336.0","0","0","99858","","null","","","null","37","NaN","","","","","","","","","","","","","","",""
"","S2","","html-keyboard-response","238","216841","0.0-1.0-337.0","0","0","99858","","null","","","null","37","","NaN","","","","","","","","","","","","","",""
"","response","","html-keyboard-response","239","216930","0.0-1.0-338.0-0.0","0","0","99858","","84","","","68","37","","","1","37","training","adjacent","ED","5","4","N.jpg","Q.jpg","1","0","0","",""
"","feedback","","html-keyboard-response","240","217945","0.0-1.0-339.0-0.0","0","0","99858","","null","","","null","37","","","","","","","","","","","","","","","",""
"","time_out","","html-keyboard-response","241","219961","0.0-1.0-341.0-0.0","0","0","99858","","null","","","null","37","","","","","","","","","","","","","","","",""
"","ITI","","html-keyboard-response","242","220974","0.0-1.0-342.0","0","0","99858","","null","","","null","37","","","","","","","","","","","","","","","NaN",""
"","S1","","html-keyboard-response","243","221231","0.0-1.0-344.0","0","0","99858","","null","","","null","38","","","","","","","","","","","","","","","",""
"","ISI","","html-keyboard-response","244","222238","0.0-1.0-345.0","0","0","99858","","null","","","null","38","NaN","","","","","","","","","","","","","","",""
"","S2","","html-keyboard-response","245","222505","0.0-1.0-346.0","0","0","99858","","null","","","null","38","","NaN","","","","","","","","","","","","","",""
"","response","","html-keyboard-response","246","222764","0.0-1.0-347.0-0.0","0","0","99858","","255","","","68","38","","","1","38","training","adjacent","BC","2","3","M.jpg","L.jpg","1","1","1","",""
"","feedback","","html-keyboard-response","247","223774","0.0-1.0-348.0-0.0","0","0","99858","","null","","","null","38","","","","","","","","","","","","","","","",""
"","ITI","","html-keyboard-response","248","224782","0.0-1.0-351.0","0","0","99858","","null","","","null","38","","","","","","","","","","","","","","","NaN",""
"","S1","","html-keyboard-response","249","225048","0.0-1.0-353.0","0","0","99858","","null","","","null","39","","","","","","","","","","","","","","","",""
"","ISI","","html-keyboard-response","250","226064","0.0-1.0-354.0","0","0","99858","","null","","","null","39","NaN","","","","","","","","","","","","","","",""
"","S2","","html-keyboard-response","251","226328","0.0-1.0-355.0","0","0","99858","","null","","","null","39","","NaN","","","","","","","","","","","","","",""
"","response","","html-keyboard-response","252","226437","0.0-1.0-356.0-0.0","0","0","99858","","105","","","75","39","","","1","39","training","adjacent","ED","5","4","N.jpg","Q.jpg","0","0","1","",""
"","feedback","","html-keyboard-response","253","227448","0.0-1.0-357.0-0.0","0","0","99858","","null","","","null","39","","","","","","","","","","","","","","","",""
"","ITI","","html-keyboard-response","254","228464","0.0-1.0-360.0","0","0","99858","","null","","","null","39","","","","","","","","","","","","","","","NaN",""
"","S1","","html-keyboard-response","255","228728","0.0-1.0-362.0","0","0","99858","","null","","","null","40","","","","","","","","","","","","","","","",""
"","ISI","","html-keyboard-response","256","229743","0.0-1.0-363.0","0","0","99858","","null","","","null","40","NaN","","","","","","","","","","","","","","",""
"","S2","","html-keyboard-response","257","230009","0.0-1.0-364.0","0","0","99858","","null","","","null","40","","NaN","","","","","","","","","","","","","",""
"","response","","html-keyboard-response","258","230154","0.0-1.0-365.0-0.0","0","0","99858","","139","","","68","40","","","1","40","training","adjacent","CD","3","4","L.jpg","Q.jpg","1","1","1","",""
"","feedback","","html-keyboard-response","259","231166","0.0-1.0-366.0-0.0","0","0","99858","","null","","","null","40","","","","","","","","","","","","","","","",""
"","ITI","","html-keyboard-response","260","232174","0.0-1.0-369.0","0","0","99858","","null","","","null","40","","","","","","","","","","","","","","","NaN",""
"","S1","","html-keyboard-response","261","232440","0.0-1.0-371.0","0","0","99858","","null","","","null","41","","","","","","","","","","","","","","","",""
"","ISI","","html-keyboard-response","262","233454","0.0-1.0-372.0","0","0","99858","","null","","","null","41","NaN","","","","","","","","","","","","","","",""
"","S2","","html-keyboard-response","263","233720","0.0-1.0-373.0","0","0","99858","","null","","","null","41","","NaN","","","","","","","","","","","","","",""
"","response","","html-keyboard-response","264","233766","0.0-1.0-374.0-0.0","0","0","99858","","41","","","68","41","","","1","41","training","adjacent","DE","4","5","Q.jpg","N.jpg","1","1","1","",""
"","feedback","","html-keyboard-response","265","234776","0.0-1.0-375.0-0.0","0","0","99858","","null","","","null","41","","","","","","","","","","","","","","","",""
"","ITI","","html-keyboard-response","266","235790","0.0-1.0-378.0","0","0","99858","","null","","","null","41","","","","","","","","","","","","","","","NaN",""
"","S1","","html-keyboard-response","267","236055","0.0-1.0-380.0","0","0","99858","","null","","","null","42","","","","","","","","","","","","","","","",""
"","ISI","","html-keyboard-response","268","237065","0.0-1.0-381.0","0","0","99858","","null","","","null","42","NaN","","","","","","","","","","","","","","",""
"","S2","","html-keyboard-response","269","237326","0.0-1.0-382.0","0","0","99858","","null","","","null","42","","NaN","","","","","","","","","","","","","",""
"","response","","html-keyboard-response","270","237811","0.0-1.0-383.0-0.0","0","0","99858","","480","","","68","42","","","1","42","training","adjacent","CD","3","4","L.jpg","Q.jpg","1","1","1","",""
"","feedback","","html-keyboard-response","271","238824","0.0-1.0-384.0-0.0","0","0","99858","","null","","","null","42","","","","","","","","","","","","","","","",""
"","ITI","","html-keyboard-response","272","239838","0.0-1.0-387.0","0","0","99858","","null","","","null","42","","","","","","","","","","","","","","","NaN",""
"","S1","","html-keyboard-response","273","240103","0.0-1.0-389.0","0","0","99858","","null","","","null","43","","","","","","","","","","","","","","","",""
"","ISI","","html-keyboard-response","274","241112","0.0-1.0-390.0","0","0","99858","","null","","","null","43","NaN","","","","","","","","","","","","","","",""
"","S2","","html-keyboard-response","275","241373","0.0-1.0-391.0","0","0","99858","","null","","","null","43","","NaN","","","","","","","","","","","","","",""
"","response","","html-keyboard-response","276","241530","0.0-1.0-392.0-0.0","0","0","99858","","152","","","68","43","","","1","43","training","adjacent","BA","2","1","M.jpg","R.jpg","1","0","0","",""
"","feedback","","html-keyboard-response","277","242545","0.0-1.0-393.0-0.0","0","0","99858","","null","","","null","43","","","","","","","","","","","","","","","",""
"","time_out","","html-keyboard-response","278","244557","0.0-1.0-395.0-0.0","0","0","99858","","null","","","null","43","","","","","","","","","","","","","","","",""
"","ITI","","html-keyboard-response","279","245565","0.0-1.0-396.0","0","0","99858","","null","","","null","43","","","","","","","","","","","","","","","NaN",""
"","S1","","html-keyboard-response","280","245832","0.0-1.0-398.0","0","0","99858","","null","","","null","44","","","","","","","","","","","","","","","",""
"","ISI","","html-keyboard-response","281","246845","0.0-1.0-399.0","0","0","99858","","null","","","null","44","NaN","","","","","","","","","","","","","","",""
"","S2","","html-keyboard-response","282","247112","0.0-1.0-400.0","0","0","99858","","null","","","null","44","","NaN","","","","","","","","","","","","","",""
"","response","","html-keyboard-response","283","247374","0.0-1.0-401.0-0.0","0","0","99858","","258","","","75","44","","","1","44","training","adjacent","EF","5","6","N.jpg","P.jpg","0","1","0","",""
"","feedback","","html-keyboard-response","284","248382","0.0-1.0-402.0-0.0","0","0","99858","","null","","","null","44","","","","","","","","","","","","","","","",""
"","time_out","","html-keyboard-response","285","250391","0.0-1.0-404.0-0.0","0","0","99858","","null","","","null","44","","","","","","","","","","","","","","","",""
"","ITI","","html-keyboard-response","286","251399","0.0-1.0-405.0","0","0","99858","","null","","","null","44","","","","","","","","","","","","","","","NaN",""
"","S1","","html-keyboard-response","287","251662","0.0-1.0-407.0","0","0","99858","","null","","","null","45","","","","","","","","","","","","","","","",""
"","ISI","","html-keyboard-response","288","252669","0.0-1.0-408.0","0","0","99858","","null","","","null","45","NaN","","","","","","","","","","","","","","",""
"","S2","","html-keyboard-response","289","252926","0.0-1.0-409.0","0","0","99858","","null","","","null","45","","NaN","","","","","","","","","","","","","",""
"","response","","html-keyboard-response","290","253193","0.0-1.0-410.0-0.0","0","0","99858","","263","","","68","45","","","1","45","training","adjacent","BC","2","3","M.jpg","L.jpg","1","1","1","",""
"","feedback","","html-keyboard-response","291","254206","0.0-1.0-411.0-0.0","0","0","99858","","null","","","null","45","","","","","","","","","","","","","","","",""
"","ITI","","html-keyboard-response","292","255213","0.0-1.0-414.0","0","0","99858","","null","","","null","45","","","","","","","","","","","","","","","NaN",""
"","S1","","html-keyboard-response","293","255470","0.0-1.0-416.0","0","0","99858","","null","","","null","46","","","","","","","","","","","","","","","",""
"","ISI","","html-keyboard-response","294","256481","0.0-1.0-417.0","0","0","99858","","null","","","null","46","NaN","","","","","","","","","","","","","","",""
"","S2","","html-keyboard-response","295","256744","0.0-1.0-418.0","0","0","99858","","null","","","null","46","","NaN","","","","","","","","","","","","","",""
"","response","","html-keyboard-response","296","256783","0.0-1.0-419.0-0.0","0","0","99858","","34","","","68","46","","","1","46","training","adjacent","AB","1","2","R.jpg","M.jpg","1","1","1","",""
"","feedback","","html-keyboard-response","297","257799","0.0-1.0-420.0-0.0","0","0","99858","","null","","","null","46","","","","","","","","","","","","","","","",""
"","ITI","","html-keyboard-response","298","258808","0.0-1.0-423.0","0","0","99858","","null","","","null","46","","","","","","","","","","","","","","","NaN",""
"","S1","","html-keyboard-response","299","259069","0.0-1.0-425.0","0","0","99858","","null","","","null","47","","","","","","","","","","","","","","","",""
"","ISI","","html-keyboard-response","300","260077","0.0-1.0-426.0","0","0","99858","","null","","","null","47","NaN","","","","","","","","","","","","","","",""
"","S2","","html-keyboard-response","301","260344","0.0-1.0-427.0","0","0","99858","","null","","","null","47","","NaN","","","","","","","","","","","","","",""
"","response","","html-keyboard-response","302","260481","0.0-1.0-428.0-0.0","0","0","99858","","132","","","68","47","","","1","47","training","adjacent","AB","1","2","R.jpg","M.jpg","1","1","1","",""
"","feedback","","html-keyboard-response","303","261495","0.0-1.0-429.0-0.0","0","0","99858","","null","","","null","47","","","","","","","","","","","","","","","",""
"","ITI","","html-keyboard-response","304","262503","0.0-1.0-432.0","0","0","99858","","null","","","null","47","","","","","","","","","","","","","","","NaN",""
"","block_over","","html-keyboard-response","305","287093","0.0-1.0-433.0-0.0","0","0","99858","","24584","","","32","47","","","","","","","","","","","","","","","",""
"","S1","","html-keyboard-response","306","287358","0.0-1.0-434.0","0","0","99858","","null","","","null","48","","","","","","","","","","","","","","","",""
"","ISI","","html-keyboard-response","307","288374","0.0-1.0-435.0","0","0","99858","","null","","","null","48","NaN","","","","","","","","","","","","","","",""
"","S2","","html-keyboard-response","308","288637","0.0-1.0-436.0","0","0","99858","","null","","","null","48","","NaN","","","","","","","","","","","","","",""
"","response","","html-keyboard-response","309","288942","0.0-1.0-437.0-0.0","0","0","99858","","300","","","75","48","","","2","48","training","adjacent","CB","3","2","L.jpg","M.jpg","0","0","1","",""
"","feedback","","html-keyboard-response","310","289959","0.0-1.0-438.0-0.0","0","0","99858","","null","","","null","48","","","","","","","","","","","","","","","",""
"","ITI","","html-keyboard-response","311","290972","0.0-1.0-441.0","0","0","99858","","null","","","null","48","","","","","","","","","","","","","","","NaN",""
"","S1","","html-keyboard-response","312","291239","0.0-1.0-443.0","0","0","99858","","null","","","null","49","","","","","","","","","","","","","","","",""
"","ISI","","html-keyboard-response","313","292252","0.0-1.0-444.0","0","0","99858","","null","","","null","49","NaN","","","","","","","","","","","","","","",""
"","S2","","html-keyboard-response","314","292469","0.0-1.0-445.0","0","0","99858","","211","","","68","49","","d","2","49","training","adjacent","FG","6","7","P.jpg","O.jpg","1","1","1","",""
"","feedback","","html-keyboard-response","315","293480","0.0-1.0-447.0-0.0","0","0","99858","","null","","","null","49","","","","","","","","","","","","","","","",""
"","ITI","","html-keyboard-response","316","294492","0.0-1.0-450.0","0","0","99858","","null","","","null","49","","","","","","","","","","","","","","","NaN",""
"","S1","","html-keyboard-response","317","294758","0.0-1.0-452.0","0","0","99858","","null","","","null","50","","","","","","","","","","","","","","","",""
"","ISI","","html-keyboard-response","318","295768","0.0-1.0-453.0","0","0","99858","","null","","","null","50","NaN","","","","","","","","","","","","","","",""
"","S2","","html-keyboard-response","319","296028","0.0-1.0-454.0","0","0","99858","","null","","","null","50","","NaN","","","","","","","","","","","","","",""
"","response","","html-keyboard-response","320","296054","0.0-1.0-455.0-0.0","0","0","99858","","23","","","75","50","","","2","50","training","adjacent","ED","5","4","N.jpg","Q.jpg","0","0","1","",""
"","feedback","","html-keyboard-response","321","297069","0.0-1.0-456.0-0.0","0","0","99858","","null","","","null","50","","","","","","","","","","","","","","","",""
"","ITI","","html-keyboard-response","322","298077","0.0-1.0-459.0","0","0","99858","","null","","","null","50","","","","","","","","","","","","","","","NaN",""
"","S1","","html-keyboard-response","323","298343","0.0-1.0-461.0","0","0","99858","","null","","","null","51","","","","","","","","","","","","","","","",""
"","ISI","","html-keyboard-response","324","299356","0.0-1.0-462.0","0","0","99858","","null","","","null","51","NaN","","","","","","","","","","","","","","",""
"","S2","","html-keyboard-response","325","299584","0.0-1.0-463.0","0","0","99858","","222","","","68","51","","d","2","51","training","adjacent","FE","6","5","P.jpg","N.jpg","1","0","0","",""
"","feedback","","html-keyboard-response","326","300598","0.0-1.0-465.0-0.0","0","0","99858","","null","","","null","51","","","","","","","","","","","","","","","",""
"","time_out","","html-keyboard-response","327","302604","0.0-1.0-467.0-0.0","0","0","99858","","null","","","null","51","","","","","","","","","","","","","","","",""
"","ITI","","html-keyboard-response","328","303612","0.0-1.0-468.0","0","0","99858","","null","","","null","51","","","","","","","","","","","","","","","NaN",""
"","S1","","html-keyboard-response","329","303880","0.0-1.0-470.0","0","0","99858","","null","","","null","52","","","","","","","","","","","","","","","",""
"","ISI","","html-keyboard-response","330","304892","0.0-1.0-471.0","0","0","99858","","null","","","null","52","NaN","","","","","","","","","","","","","","",""
"","S2","","html-keyboard-response","331","305159","0.0-1.0-472.0","0","0","99858","","null","","","null","52","","NaN","","","","","","","","","","","","","",""
"","response","","html-keyboard-response","332","305288","0.0-1.0-473.0-0.0","0","0","99858","","123","","","75","52","","","2","52","training","adjacent","AB","1","2","R.jpg","M.jpg","0","1","0","",""
"","feedback","","html-keyboard-response","333","306300","0.0-1.0-474.0-0.0","0","0","99858","","null","","","null","52","","","","","","","","","","","","","","","",""
"","time_out","","html-keyboard-response","334","308310","0.0-1.0-476.0-0.0","0","0","99858","","null","","","null","52","","","","","","","","","","","","","","","",""
"","ITI","","html-keyboard-response","335","309324","0.0-1.0-477.0","0","0","99858","","null","","","null","52","","","","","","","","","","","","","","","NaN",""
"","S1","","html-keyboard-response","336","309589","0.0-1.0-479.0","0","0","99858","","null","","","null","53","","","","","","","","","","","","","","","",""
"","ISI","","html-keyboard-response","337","310597","0.0-1.0-480.0","0","0","99858","","null","","","null","53","NaN","","","","","","","","","","","","","","",""
"","S2","","html-keyboard-response","338","310860","0.0-1.0-481.0","0","0","99858","","null","","","null","53","","NaN","","","","","","","","","","","","","",""
"","response","","html-keyboard-response","339","310873","0.0-1.0-482.0-0.0","0","0","99858","","10","","","68","53","","","2","53","training","adjacent","FG","6","7","P.jpg","O.jpg","1","1","1","",""
"","feedback","","html-keyboard-response","340","311883","0.0-1.0-483.0-0.0","0","0","99858","","null","","","null","53","","","","","","","","","","","","","","","",""
"","ITI","","html-keyboard-response","341","312891","0.0-1.0-486.0","0","0","99858","","null","","","null","53","","","","","","","","","","","","","","","NaN",""
"","S1","","html-keyboard-response","342","313148","0.0-1.0-488.0","0","0","99858","","null","","","null","54","","","","","","","","","","","","","","","",""
"","ISI","","html-keyboard-response","343","314155","0.0-1.0-489.0","0","0","99858","","null","","","null","54","NaN","","","","","","","","","","","","","","",""
"","S2","","html-keyboard-response","344","314422","0.0-1.0-490.0","0","0","99858","","null","","","null","54","","NaN","","","","","","","","","","","","","",""
"","response","","html-keyboard-response","345","314674","0.0-1.0-491.0-0.0","0","0","99858","","247","","","68","54","","","2","54","training","adjacent","CB","3","2","L.jpg","M.jpg","1","0","0","",""
"","feedback","","html-keyboard-response","346","315686","0.0-1.0-492.0-0.0","0","0","99858","","null","","","null","54","","","","","","","","","","","","","","","",""
"","time_out","","html-keyboard-response","347","317702","0.0-1.0-494.0-0.0","0","0","99858","","null","","","null","54","","","","","","","","","","","","","","","",""
"","ITI","","html-keyboard-response","348","318717","0.0-1.0-495.0","0","0","99858","","null","","","null","54","","","","","","","","","","","","","","","NaN",""
"","S1","","html-keyboard-response","349","318983","0.0-1.0-497.0","0","0","99858","","null","","","null","55","","","","","","","","","","","","","","","",""
"","ISI","","html-keyboard-response","350","319995","0.0-1.0-498.0","0","0","99858","","null","","","null","55","NaN","","","","","","","","","","","","","","",""
"","S2","","html-keyboard-response","351","320262","0.0-1.0-499.0","0","0","99858","","null","","","null","55","","NaN","","","","","","","","","","","","","",""
"","response","","html-keyboard-response","352","320651","0.0-1.0-500.0-0.0","0","0","99858","","383","","","75","55","","","2","55","training","adjacent","CD","3","4","L.jpg","Q.jpg","0","1","0","",""
"","feedback","","html-keyboard-response","353","321660","0.0-1.0-501.0-0.0","0","0","99858","","null","","","null","55","","","","","","","","","","","","","","","",""
"","time_out","","html-keyboard-response","354","323670","0.0-1.0-503.0-0.0","0","0","99858","","null","","","null","55","","","","","","","","","","","","","","","",""
"","ITI","","html-keyboard-response","355","324683","0.0-1.0-504.0","0","0","99858","","null","","","null","55","","","","","","","","","","","","","","","NaN",""
"","S1","","html-keyboard-response","356","324939","0.0-1.0-506.0","0","0","99858","","null","","","null","56","","","","","","","","","","","","","","","",""
"","ISI","","html-keyboard-response","357","325947","0.0-1.0-507.0","0","0","99858","","null","","","null","56","NaN","","","","","","","","","","","","","","",""
"","S2","","html-keyboard-response","358","326214","0.0-1.0-508.0","0","0","99858","","null","","","null","56","","NaN","","","","","","","","","","","","","",""
"","response","","html-keyboard-response","359","326247","0.0-1.0-509.0-0.0","0","0","99858","","26","","","68","56","","","2","56","training","adjacent","EF","5","6","N.jpg","P.jpg","1","1","1","",""
"","feedback","","html-keyboard-response","360","327253","0.0-1.0-510.0-0.0","0","0","99858","","null","","","null","56","","","","","","","","","","","","","","","",""
"","ITI","","html-keyboard-response","361","328267","0.0-1.0-513.0","0","0","99858","","null","","","null","56","","","","","","","","","","","","","","","NaN",""
"","S1","","html-keyboard-response","362","328533","0.0-1.0-515.0","0","0","99858","","null","","","null","57","","","","","","","","","","","","","","","",""
"","ISI","","html-keyboard-response","363","329542","0.0-1.0-516.0","0","0","99858","","null","","","null","57","NaN","","","","","","","","","","","","","","",""
"","S2","","html-keyboard-response","364","329804","0.0-1.0-517.0","0","0","99858","","null","","","null","57","","NaN","","","","","","","","","","","","","",""
"","response","","html-keyboard-response","365","329828","0.0-1.0-518.0-0.0","0","0","99858","","20","","","68","57","","","2","57","training","adjacent","BC","2","3","M.jpg","L.jpg","1","1","1","",""
"","feedback","","html-keyboard-response","366","330838","0.0-1.0-519.0-0.0","0","0","99858","","null","","","null","57","","","","","","","","","","","","","","","",""
"","ITI","","html-keyboard-response","367","331852","0.0-1.0-522.0","0","0","99858","","null","","","null","57","","","","","","","","","","","","","","","NaN",""
"","S1","","html-keyboard-response","368","332118","0.0-1.0-524.0","0","0","99858","","null","","","null","58","","","","","","","","","","","","","","","",""
"","ISI","","html-keyboard-response","369","333132","0.0-1.0-525.0","0","0","99858","","null","","","null","58","NaN","","","","","","","","","","","","","","",""
"","S2","","html-keyboard-response","370","333397","0.0-1.0-526.0","0","0","99858","","null","","","null","58","","NaN","","","","","","","","","","","","","",""
"","response","","html-keyboard-response","371","333627","0.0-1.0-527.0-0.0","0","0","99858","","224","","","68","58","","","2","58","training","adjacent","DE","4","5","Q.jpg","N.jpg","1","1","1","",""
"","feedback","","html-keyboard-response","372","334635","0.0-1.0-528.0-0.0","0","0","99858","","null","","","null","58","","","","","","","","","","","","","","","",""
"","ITI","","html-keyboard-response","373","335642","0.0-1.0-531.0","0","0","99858","","null","","","null","58","","","","","","","","","","","","","","","NaN",""
"","S1","","html-keyboard-response","374","335900","0.0-1.0-533.0","0","0","99858","","null","","","null","59","","","","","","","","","","","","","","","",""
"","ISI","","html-keyboard-response","375","336909","0.0-1.0-534.0","0","0","99858","","null","","","null","59","NaN","","","","","","","","","","","","","","",""
"","S2","","html-keyboard-response","376","337173","0.0-1.0-535.0","0","0","99858","","null","","","null","59","","NaN","","","","","","","","","","","","","",""
"","response","","html-keyboard-response","377","337759","0.0-1.0-536.0-0.0","0","0","99858","","580","","","68","59","","","2","59","training","adjacent","DC","4","3","Q.jpg","L.jpg","1","0","0","",""
"","feedback","","html-keyboard-response","378","338773","0.0-1.0-537.0-0.0","0","0","99858","","null","","","null","59","","","","","","","","","","","","","","","",""
"","time_out","","html-keyboard-response","379","340789","0.0-1.0-539.0-0.0","0","0","99858","","null","","","null","59","","","","","","","","","","","","","","","",""
"","ITI","","html-keyboard-response","380","341797","0.0-1.0-540.0","0","0","99858","","null","","","null","59","","","","","","","","","","","","","","","NaN",""
"","S1","","html-keyboard-response","381","342059","0.0-1.0-542.0","0","0","99858","","null","","","null","60","","","","","","","","","","","","","","","",""
"","ISI","","html-keyboard-response","382","343067","0.0-1.0-543.0","0","0","99858","","null","","","null","60","NaN","","","","","","","","","","","","","","",""
"","S2","","html-keyboard-response","383","343320","0.0-1.0-544.0","0","0","99858","","247","","","68","60","","d","2","60","training","adjacent","AB","1","2","R.jpg","M.jpg","1","1","1","",""
"","feedback","","html-keyboard-response","384","344332","0.0-1.0-546.0-0.0","0","0","99858","","null","","","null","60","","","","","","","","","","","","","","","",""
"","ITI","","html-keyboard-response","385","345339","0.0-1.0-549.0","0","0","99858","","null","","","null","60","","","","","","","","","","","","","","","NaN",""
"","S1","","html-keyboard-response","386","345605","0.0-1.0-551.0","0","0","99858","","null","","","null","61","","","","","","","","","","","","","","","",""
"","ISI","","html-keyboard-response","387","346620","0.0-1.0-552.0","0","0","99858","","176","","","75","61","k","","","","","","","","","","","","","","",""
"","S2","","html-keyboard-response","388","346831","0.0-1.0-553.0","0","0","99858","","205","","","75","61","","k","2","61","training","adjacent","DC","4","3","Q.jpg","L.jpg","0","0","1","",""
"","feedback","","html-keyboard-response","389","347844","0.0-1.0-555.0-0.0","0","0","99858","","null","","","null","61","","","","","","","","","","","","","","","",""
"","ITI","","html-keyboard-response","390","348852","0.0-1.0-558.0","0","0","99858","","null","","","null","61","","","","","","","","","","","","","","","NaN",""
"","S1","","html-keyboard-response","391","349116","0.0-1.0-560.0","0","0","99858","","null","","","null","62","","","","","","","","","","","","","","","",""
"","ISI","","html-keyboard-response","392","350123","0.0-1.0-561.0","0","0","99858","","null","","","null","62","NaN","","","","","","","","","","","","","","",""
"","S2","","html-keyboard-response","393","350388","0.0-1.0-562.0","0","0","99858","","null","","","null","62","","NaN","","","","","","","","","","","","","",""
"","response","","html-keyboard-response","394","350608","0.0-1.0-563.0-0.0","0","0","99858","","214","","","75","62","","","2","62","training","adjacent","CB","3","2","L.jpg","M.jpg","0","0","1","",""
"","feedback","","html-keyboard-response","395","351620","0.0-1.0-564.0-0.0","0","0","99858","","null","","","null","62","","","","","","","","","","","","","","","",""
"","ITI","","html-keyboard-response","396","352635","0.0-1.0-567.0","0","0","99858","","null","","","null","62","","","","","","","","","","","","","","","NaN",""
"","S1","","html-keyboard-response","397","352891","0.0-1.0-569.0","0","0","99858","","null","","","null","63","","","","","","","","","","","","","","","",""
"","ISI","","html-keyboard-response","398","353899","0.0-1.0-570.0","0","0","99858","","null","","","null","63","NaN","","","","","","","","","","","","","","",""
"","S2","","html-keyboard-response","399","354165","0.0-1.0-571.0","0","0","99858","","null","","","null","63","","NaN","","","","","","","","","","","","","",""
"","response","","html-keyboard-response","400","354259","0.0-1.0-572.0-0.0","0","0","99858","","89","","","75","63","","","2","63","training","adjacent","BA","2","1","M.jpg","R.jpg","0","0","1","",""
"","feedback","","html-keyboard-response","401","355268","0.0-1.0-573.0-0.0","0","0","99858","","null","","","null","63","","","","","","","","","","","","","","","",""
"","ITI","","html-keyboard-response","402","356285","0.0-1.0-576.0","0","0","99858","","null","","","null","63","","","","","","","","","","","","","","","NaN",""
"","S1","","html-keyboard-response","403","356548","0.0-1.0-578.0","0","0","99858","","null","","","null","64","","","","","","","","","","","","","","","",""
"","ISI","","html-keyboard-response","404","357557","0.0-1.0-579.0","0","0","99858","","null","","","null","64","NaN","","","","","","","","","","","","","","",""
"","S2","","html-keyboard-response","405","357819","0.0-1.0-580.0","0","0","99858","","null","","","null","64","","NaN","","","","","","","","","","","","","",""
"","response","","html-keyboard-response","406","357821","0.0-1.0-581.0-0.0","0","0","99858","","0","","","75","64","","","2","64","training","adjacent","CD","3","4","L.jpg","Q.jpg","0","1","0","",""
"","feedback","","html-keyboard-response","407","358836","0.0-1.0-582.0-0.0","0","0","99858","","null","","","null","64","","","","","","","","","","","","","","","",""
"","time_out","","html-keyboard-response","408","360852","0.0-1.0-584.0-0.0","0","0","99858","","null","","","null","64","","","","","","","","","","","","","","","",""
"","ITI","","html-keyboard-response","409","361862","0.0-1.0-585.0","0","0","99858","","null","","","null","64","","","","","","","","","","","","","","","NaN",""
"","S1","","html-keyboard-response","410","362123","0.0-1.0-587.0","0","0","99858","","null","","","null","65","","","","","","","","","","","","","","","",""
"","ISI","","html-keyboard-response","411","363132","0.0-1.0-588.0","0","0","99858","","null","","","null","65","NaN","","","","","","","","","","","","","","",""
"","S2","","html-keyboard-response","412","363385","0.0-1.0-589.0","0","0","99858","","248","","","68","65","","d","2","65","training","adjacent","GF","7","6","O.jpg","P.jpg","1","0","0","",""
"","feedback","","html-keyboard-response","413","364394","0.0-1.0-591.0-0.0","0","0","99858","","null","","","null","65","","","","","","","","","","","","","","","",""
"","time_out","","html-keyboard-response","414","366405","0.0-1.0-593.0-0.0","0","0","99858","","null","","","null","65","","","","","","","","","","","","","","","",""
"","ITI","","html-keyboard-response","415","367419","0.0-1.0-594.0","0","0","99858","","null","","","null","65","","","","","","","","","","","","","","","NaN",""
"","S1","","html-keyboard-response","416","367685","0.0-1.0-596.0","0","0","99858","","null","","","null","66","","","","","","","","","","","","","","","",""
"","ISI","","html-keyboard-response","417","368699","0.0-1.0-597.0","0","0","99858","","null","","","null","66","NaN","","","","","","","","","","","","","","",""
"","S2","","html-keyboard-response","418","368949","0.0-1.0-598.0","0","0","99858","","245","","","75","66","","k","2","66","training","adjacent","EF","5","6","N.jpg","P.jpg","0","1","0","",""
"","feedback","","html-keyboard-response","419","369963","0.0-1.0-600.0-0.0","0","0","99858","","null","","","null","66","","","","","","","","","","","","","","","",""
"","time_out","","html-keyboard-response","420","371972","0.0-1.0-602.0-0.0","0","0","99858","","null","","","null","66","","","","","","","","","","","","","","","",""
"","ITI","","html-keyboard-response","421","372981","0.0-1.0-603.0","0","0","99858","","null","","","null","66","","","","","","","","","","","","","","","NaN",""
"","S1","","html-keyboard-response","422","373243","0.0-1.0-605.0","0","0","99858","","null","","","null","67","","","","","","","","","","","","","","","",""
"","ISI","","html-keyboard-response","423","374252","0.0-1.0-606.0","0","0","99858","","null","","","null","67","NaN","","","","","","","","","","","","","","",""
"","S2","","html-keyboard-response","424","374515","0.0-1.0-607.0","0","0","99858","","null","","","null","67","","NaN","","","","","","","","","","","","","",""
"","response","","html-keyboard-response","425","374610","0.0-1.0-608.0-0.0","0","0","99858","","89","","","75","67","","","2","67","training","adjacent","BA","2","1","M.jpg","R.jpg","0","0","1","",""
"","feedback","","html-keyboard-response","426","375620","0.0-1.0-609.0-0.0","0","0","99858","","null","","","null","67","","","","","","","","","","","","","","","",""
"","ITI","","html-keyboard-response","427","376634","0.0-1.0-612.0","0","0","99858","","null","","","null","67","","","","","","","","","","","","","","","NaN",""
"","S1","","html-keyboard-response","428","376900","0.0-1.0-614.0","0","0","99858","","null","","","null","68","","","","","","","","","","","","","","","",""
"","ISI","","html-keyboard-response","429","377908","0.0-1.0-615.0","0","0","99858","","null","","","null","68","NaN","","","","","","","","","","","","","","",""
"","S2","","html-keyboard-response","430","378170","0.0-1.0-616.0","0","0","99858","","null","","","null","68","","NaN","","","","","","","","","","","","","",""
"","response","","html-keyboard-response","431","378348","0.0-1.0-617.0-0.0","0","0","99858","","173","","","75","68","","","2","68","training","adjacent","ED","5","4","N.jpg","Q.jpg","0","0","1","",""
"","feedback","","html-keyboard-response","432","379364","0.0-1.0-618.0-0.0","0","0","99858","","null","","","null","68","","","","","","","","","","","","","","","",""
"","ITI","","html-keyboard-response","433","380378","0.0-1.0-621.0","0","0","99858","","null","","","null","68","","","","","","","","","","","","","","","NaN",""
"","S1","","html-keyboard-response","434","380644","0.0-1.0-623.0","0","0","99858","","null","","","null","69","","","","","","","","","","","","","","","",""
"","ISI","","html-keyboard-response","435","381654","0.0-1.0-624.0","0","0","99858","","null","","","null","69","NaN","","","","","","","","","","","","","","",""
"","S2","","html-keyboard-response","436","381890","0.0-1.0-625.0","0","0","99858","","231","","","75","69","","k","2","69","training","adjacent","GF","7","6","O.jpg","P.jpg","0","0","1","",""
"","feedback","","html-keyboard-response","437","382900","0.0-1.0-627.0-0.0","0","0","99858","","null","","","null","69","","","","","","","","","","","","","","","",""
"","ITI","","html-keyboard-response","438","383915","0.0-1.0-630.0","0","0","99858","","null","","","null","69","","","","","","","","","","","","","","","NaN",""
"","S1","","html-keyboard-response","439","384180","0.0-1.0-632.0","0","0","99858","","null","","","null","70","","","","","","","","","","","","","","","",""
"","ISI","","html-keyboard-response","440","385187","0.0-1.0-633.0","0","0","99858","","null","","","null","70","NaN","","","","","","","","","","","","","","",""
"","S2","","html-keyboard-response","441","385449","0.0-1.0-634.0","0","0","99858","","null","","","null","70","","NaN","","","","","","","","","","","","","",""
"","response","","html-keyboard-response","442","385452","0.0-1.0-635.0-0.0","0","0","99858","","1","","","75","70","","","2","70","training","adjacent","CB","3","2","L.jpg","M.jpg","0","0","1","",""
"","feedback","","html-keyboard-response","443","386467","0.0-1.0-636.0-0.0","0","0","99858","","null","","","null","70","","","","","","","","","","","","","","","",""
"","ITI","","html-keyboard-response","444","387477","0.0-1.0-639.0","0","0","99858","","null","","","null","70","","","","","","","","","","","","","","","NaN",""
"","S1","","html-keyboard-response","445","387737","0.0-1.0-641.0","0","0","99858","","null","","","null","71","","","","","","","","","","","","","","","",""
"","ISI","","html-keyboard-response","446","388746","0.0-1.0-642.0","0","0","99858","","null","","","null","71","NaN","","","","","","","","","","","","","","",""
"","S2","","html-keyboard-response","447","388942","0.0-1.0-643.0","0","0","99858","","191","","","68","71","","d","2","71","training","adjacent","FG","6","7","P.jpg","O.jpg","1","1","1","",""
"","feedback","","html-keyboard-response","448","389955","0.0-1.0-645.0-0.0","0","0","99858","","null","","","null","71","","","","","","","","","","","","","","","",""
"","ITI","","html-keyboard-response","449","390970","0.0-1.0-648.0","0","0","99858","","null","","","null","71","","","","","","","","","","","","","","","NaN",""
"","S1","","html-keyboard-response","450","391235","0.0-1.0-650.0","0","0","99858","","null","","","null","72","","","","","","","","","","","","","","","",""
"","ISI","","html-keyboard-response","451","392243","0.0-1.0-651.0","0","0","99858","","null","","","null","72","NaN","","","","","","","","","","","","","","",""
"","S2","","html-keyboard-response","452","392505","0.0-1.0-652.0","0","0","99858","","null","","","null","72","","NaN","","","","","","","","","","","","","",""
"","response","","html-keyboard-response","453","392575","0.0-1.0-653.0-0.0","0","0","99858","","65","","","68","72","","","2","72","training","adjacent","FE","6","5","P.jpg","N.jpg","1","0","0","",""
"","feedback","","html-keyboard-response","454","393587","0.0-1.0-654.0-0.0","0","0","99858","","null","","","null","72","","","","","","","","","","","","","","","",""
"","time_out","","html-keyboard-response","455","395604","0.0-1.0-656.0-0.0","0","0","99858","","null","","","null","72","","","","","","","","","","","","","","","",""
"","ITI","","html-keyboard-response","456","396617","0.0-1.0-657.0","0","0","99858","","null","","","null","72","","","","","","","","","","","","","","","NaN",""
"","S1","","html-keyboard-response","457","396884","0.0-1.0-659.0","0","0","99858","","null","","","null","73","","","","","","","","","","","","","","","",""
"","ISI","","html-keyboard-response","458","397901","0.0-1.0-660.0","0","0","99858","","null","","","null","73","NaN","","","","","","","","","","","","","","",""
"","S2","","html-keyboard-response","459","398152","0.0-1.0-661.0","0","0","99858","","245","","","68","73","","d","2","73","training","adjacent","FE","6","5","P.jpg","N.jpg","1","0","0","",""
"","feedback","","html-keyboard-response","460","399162","0.0-1.0-663.0-0.0","0","0","99858","","null","","","null","73","","","","","","","","","","","","","","","",""
"","time_out","","html-keyboard-response","461","401171","0.0-1.0-665.0-0.0","0","0","99858","","null","","","null","73","","","","","","","","","","","","","","","",""
"","ITI","","html-keyboard-response","462","402185","0.0-1.0-666.0","0","0","99858","","null","","","null","73","","","","","","","","","","","","","","","NaN",""
"","S1","","html-keyboard-response","463","402451","0.0-1.0-668.0","0","0","99858","","null","","","null","74","","","","","","","","","","","","","","","",""
"","ISI","","html-keyboard-response","464","403465","0.0-1.0-669.0","0","0","99858","","null","","","null","74","NaN","","","","","","","","","","","","","","",""
"","S2","","html-keyboard-response","465","403733","0.0-1.0-670.0","0","0","99858","","null","","","null","74","","NaN","","","","","","","","","","","","","",""
"","response","","html-keyboard-response","466","403754","0.0-1.0-671.0-0.0","0","0","99858","","17","","","68","74","","","2","74","training","adjacent","GF","7","6","O.jpg","P.jpg","1","0","0","",""
"","feedback","","html-keyboard-response","467","404762","0.0-1.0-672.0-0.0","0","0","99858","","null","","","null","74","","","","","","","","","","","","","","","",""
"","time_out","","html-keyboard-response","468","406771","0.0-1.0-674.0-0.0","0","0","99858","","null","","","null","74","","","","","","","","","","","","","","","",""
"","ITI","","html-keyboard-response","469","407780","0.0-1.0-675.0","0","0","99858","","null","","","null","74","","","","","","","","","","","","","","","NaN",""
"","S1","","html-keyboard-response","470","408042","0.0-1.0-677.0","0","0","99858","","null","","","null","75","","","","","","","","","","","","","","","",""
"","ISI","","html-keyboard-response","471","409051","0.0-1.0-678.0","0","0","99858","","null","","","null","75","NaN","","","","","","","","","","","","","","",""
"","S2","","html-keyboard-response","472","409292","0.0-1.0-679.0","0","0","99858","","237","","","68","75","","d","2","75","training","adjacent","AB","1","2","R.jpg","M.jpg","1","1","1","",""
"","feedback","","html-keyboard-response","473","410307","0.0-1.0-681.0-0.0","0","0","99858","","null","","","null","75","","","","","","","","","","","","","","","",""
"","ITI","","html-keyboard-response","474","411321","0.0-1.0-684.0","0","0","99858","","null","","","null","75","","","","","","","","","","","","","","","NaN",""
"","S1","","html-keyboard-response","475","411586","0.0-1.0-686.0","0","0","99858","","null","","","null","76","","","","","","","","","","","","","","","",""
"","ISI","","html-keyboard-response","476","412594","0.0-1.0-687.0","0","0","99858","","null","","","null","76","NaN","","","","","","","","","","","","","","",""
"","S2","","html-keyboard-response","477","412857","0.0-1.0-688.0","0","0","99858","","null","","","null","76","","NaN","","","","","","","","","","","","","",""
"","response","","html-keyboard-response","478","412862","0.0-1.0-689.0-0.0","0","0","99858","","2","","","75","76","","","2","76","training","adjacent","ED","5","4","N.jpg","Q.jpg","0","0","1","",""
"","feedback","","html-keyboard-response","479","413876","0.0-1.0-690.0-0.0","0","0","99858","","null","","","null","76","","","","","","","","","","","","","","","",""
"","ITI","","html-keyboard-response","480","414888","0.0-1.0-693.0","0","0","99858","","null","","","null","76","","","","","","","","","","","","","","","NaN",""
"","S1","","html-keyboard-response","481","415145","0.0-1.0-695.0","0","0","99858","","null","","","null","77","","","","","","","","","","","","","","","",""
"","ISI","","html-keyboard-response","482","416152","0.0-1.0-696.0","0","0","99858","","null","","","null","77","NaN","","","","","","","","","","","","","","",""
"","S2","","html-keyboard-response","483","416419","0.0-1.0-697.0","0","0","99858","","null","","","null","77","","NaN","","","","","","","","","","","","","",""
"","response","","html-keyboard-response","484","416554","0.0-1.0-698.0-0.0","0","0","99858","","130","","","68","77","","","2","77","training","adjacent","DE","4","5","Q.jpg","N.jpg","1","1","1","",""
"","feedback","","html-keyboard-response","485","417571","0.0-1.0-699.0-0.0","0","0","99858","","null","","","null","77","","","","","","","","","","","","","","","",""
"","ITI","","html-keyboard-response","486","418584","0.0-1.0-702.0","0","0","99858","","null","","","null","77","","","","","","","","","","","","","","","NaN",""
"","S1","","html-keyboard-response","487","418841","0.0-1.0-704.0","0","0","99858","","null","","","null","78","","","","","","","","","","","","","","","",""
"","ISI","","html-keyboard-response","488","419851","0.0-1.0-705.0","0","0","99858","","null","","","null","78","NaN","","","","","","","","","","","","","","",""
"","S2","","html-keyboard-response","489","420114","0.0-1.0-706.0","0","0","99858","","null","","","null","78","","NaN","","","","","","","","","","","","","",""
"","response","","html-keyboard-response","490","420165","0.0-1.0-707.0-0.0","0","0","99858","","46","","","75","78","","","2","78","training","adjacent","BC","2","3","M.jpg","L.jpg","0","1","0","",""
"","feedback","","html-keyboard-response","491","421177","0.0-1.0-708.0-0.0","0","0","99858","","null","","","null","78","","","","","","","","","","","","","","","",""
"","time_out","","html-keyboard-response","492","423186","0.0-1.0-710.0-0.0","0","0","99858","","null","","","null","78","","","","","","","","","","","","","","","",""
"","ITI","","html-keyboard-response","493","424194","0.0-1.0-711.0","0","0","99858","","null","","","null","78","","","","","","","","","","","","","","","NaN",""
"","S1","","html-keyboard-response","494","424457","0.0-1.0-713.0","0","0","99858","","null","","","null","79","","","","","","","","","","","","","","","",""
"","ISI","","html-keyboard-response","495","425468","0.0-1.0-714.0","0","0","99858","","null","","","null","79","NaN","","","","","","","","","","","","","","",""
"","S2","","html-keyboard-response","496","425724","0.0-1.0-715.0","0","0","99858","","251","","","68","79","","d","2","79","training","adjacent","BA","2","1","M.jpg","R.jpg","1","0","0","",""
"","feedback","","html-keyboard-response","497","426739","0.0-1.0-717.0-0.0","0","0","99858","","null","","","null","79","","","","","","","","","","","","","","","",""
"","time_out","","html-keyboard-response","498","428756","0.0-1.0-719.0-0.0","0","0","99858","","null","","","null","79","","","","","","","","","","","","","","","",""
"","ITI","","html-keyboard-response","499","429768","0.0-1.0-720.0","0","0","99858","","null","","","null","79","","","","","","","","","","","","","","","NaN",""
"","S1","","html-keyboard-response","500","430036","0.0-1.0-722.0","0","0","99858","","null","","","null","80","","","","","","","","","","","","","","","",""
"","ISI","","html-keyboard-response","501","431049","0.0-1.0-723.0","0","0","99858","","null","","","null","80","NaN","","","","","","","","","","","","","","",""
"","S2","","html-keyboard-response","502","431314","0.0-1.0-724.0","0","0","99858","","null","","","null","80","","NaN","","","","","","","","","","","","","",""
"","response","","html-keyboard-response","503","431318","0.0-1.0-725.0-0.0","0","0","99858","","2","","","75","80","","","2","80","training","adjacent","CD","3","4","L.jpg","Q.jpg","0","1","0","",""
"","feedback","","html-keyboard-response","504","432328","0.0-1.0-726.0-0.0","0","0","99858","","null","","","null","80","","","","","","","","","","","","","","","",""
"","time_out","","html-keyboard-response","505","434340","0.0-1.0-728.0-0.0","0","0","99858","","null","","","null","80","","","","","","","","","","","","","","","",""
"","ITI","","html-keyboard-response","506","435352","0.0-1.0-729.0","0","0","99858","","null","","","null","80","","","","","","","","","","","","","","","NaN",""
"","S1","","html-keyboard-response","507","435608","0.0-1.0-731.0","0","0","99858","","null","","","null","81","","","","","","","","","","","","","","","",""
"","ISI","","html-keyboard-response","508","436618","0.0-1.0-732.0","0","0","99858","","null","","","null","81","NaN","","","","","","","","","","","","","","",""
"","S2","","html-keyboard-response","509","436883","0.0-1.0-733.0","0","0","99858","","null","","","null","81","","NaN","","","","","","","","","","","","","",""
"","response","","html-keyboard-response","510","436905","0.0-1.0-734.0-0.0","0","0","99858","","18","","","68","81","","","2","81","training","adjacent","FE","6","5","P.jpg","N.jpg","1","0","0","",""
"","feedback","","html-keyboard-response","511","437914","0.0-1.0-735.0-0.0","0","0","99858","","null","","","null","81","","","","","","","","","","","","","","","",""
"","time_out","","html-keyboard-response","512","439929","0.0-1.0-737.0-0.0","0","0","99858","","null","","","null","81","","","","","","","","","","","","","","","",""
"","ITI","","html-keyboard-response","513","440937","0.0-1.0-738.0","0","0","99858","","null","","","null","81","","","","","","","","","","","","","","","NaN",""
"","S1","","html-keyboard-response","514","441203","0.0-1.0-740.0","0","0","99858","","null","","","null","82","","","","","","","","","","","","","","","",""
"","ISI","","html-keyboard-response","515","442216","0.0-1.0-741.0","0","0","99858","","null","","","null","82","NaN","","","","","","","","","","","","","","",""
"","S2","","html-keyboard-response","516","442483","0.0-1.0-742.0","0","0","99858","","null","","","null","82","","NaN","","","","","","","","","","","","","",""
"","response","","html-keyboard-response","517","442568","0.0-1.0-743.0-0.0","0","0","99858","","79","","","68","82","","","2","82","training","adjacent","BA","2","1","M.jpg","R.jpg","1","0","0","",""
"","feedback","","html-keyboard-response","518","443577","0.0-1.0-744.0-0.0","0","0","99858","","null","","","null","82","","","","","","","","","","","","","","","",""
"","time_out","","html-keyboard-response","519","445586","0.0-1.0-746.0-0.0","0","0","99858","","null","","","null","82","","","","","","","","","","","","","","","",""
"","ITI","","html-keyboard-response","520","446600","0.0-1.0-747.0","0","0","99858","","null","","","null","82","","","","","","","","","","","","","","","NaN",""
"","S1","","html-keyboard-response","521","446867","0.0-1.0-749.0","0","0","99858","","null","","","null","83","","","","","","","","","","","","","","","",""
"","ISI","","html-keyboard-response","522","447881","0.0-1.0-750.0","0","0","99858","","113","","","75","83","k","","","","","","","","","","","","","","",""
"","S2","","html-keyboard-response","523","448145","0.0-1.0-751.0","0","0","99858","","null","","","null","83","","NaN","","","","","","","","","","","","","",""
"","response","","html-keyboard-response","524","448161","0.0-1.0-752.0-0.0","0","0","99858","","13","","","75","83","","","2","83","training","adjacent","ED","5","4","N.jpg","Q.jpg","0","0","1","",""
"","feedback","","html-keyboard-response","525","449170","0.0-1.0-753.0-0.0","0","0","99858","","null","","","null","83","","","","","","","","","","","","","","","",""
"","ITI","","html-keyboard-response","526","450184","0.0-1.0-756.0","0","0","99858","","null","","","null","83","","","","","","","","","","","","","","","NaN",""
"","S1","","html-keyboard-response","527","450450","0.0-1.0-758.0","0","0","99858","","null","","","null","84","","","","","","","","","","","","","","","",""
"","ISI","","html-keyboard-response","528","451464","0.0-1.0-759.0","0","0","99858","","null","","","null","84","NaN","","","","","","","","","","","","","","",""
"","S2","","html-keyboard-response","529","451732","0.0-1.0-760.0","0","0","99858","","null","","","null","84","","NaN","","","","","","","","","","","","","",""
"","response","","html-keyboard-response","530","451734","0.0-1.0-761.0-0.0","0","0","99858","","0","","","75","84","","","2","84","training","adjacent","GF","7","6","O.jpg","P.jpg","0","0","1","",""
"","feedback","","html-keyboard-response","531","452747","0.0-1.0-762.0-0.0","0","0","99858","","null","","","null","84","","","","","","","","","","","","","","","",""
"","ITI","","html-keyboard-response","532","453762","0.0-1.0-765.0","0","0","99858","","null","","","null","84","","","","","","","","","","","","","","","NaN",""
"","S1","","html-keyboard-response","533","454025","0.0-1.0-767.0","0","0","99858","","null","","","null","85","","","","","","","","","","","","","","","",""
"","ISI","","html-keyboard-response","534","455032","0.0-1.0-768.0","0","0","99858","","null","","","null","85","NaN","","","","","","","","","","","","","","",""
"","S2","","html-keyboard-response","535","455299","0.0-1.0-769.0","0","0","99858","","null","","","null","85","","NaN","","","","","","","","","","","","","",""
"","response","","html-keyboard-response","536","455303","0.0-1.0-770.0-0.0","0","0","99858","","3","","","68","85","","","2","85","training","adjacent","CD","3","4","L.jpg","Q.jpg","1","1","1","",""
"","feedback","","html-keyboard-response","537","456312","0.0-1.0-771.0-0.0","0","0","99858","","null","","","null","85","","","","","","","","","","","","","","","",""
"","ITI","","html-keyboard-response","538","457324","0.0-1.0-774.0","0","0","99858","","null","","","null","85","","","","","","","","","","","","","","","NaN",""
"","S1","","html-keyboard-response","539","457585","0.0-1.0-776.0","0","0","99858","","null","","","null","86","","","","","","","","","","","","","","","",""
"","ISI","","html-keyboard-response","540","458593","0.0-1.0-777.0","0","0","99858","","null","","","null","86","NaN","","","","","","","","","","","","","","",""
"","S2","","html-keyboard-response","541","458857","0.0-1.0-778.0","0","0","99858","","null","","","null","86","","NaN","","","","","","","","","","","","","",""
"","response","","html-keyboard-response","542","458860","0.0-1.0-779.0-0.0","0","0","99858","","0","","","68","86","","","2","86","training","adjacent","EF","5","6","N.jpg","P.jpg","1","1","1","",""
"","feedback","","html-keyboard-response","543","459876","0.0-1.0-780.0-0.0","0","0","99858","","null","","","null","86","","","","","","","","","","","","","","","",""
"","ITI","","html-keyboard-response","544","460888","0.0-1.0-783.0","0","0","99858","","null","","","null","86","","","","","","","","","","","","","","","NaN",""
"","S1","","html-keyboard-response","545","461154","0.0-1.0-785.0","0","0","99858","","null","","","null","87","","","","","","","","","","","","","","","",""
"","ISI","","html-keyboard-response","546","462167","0.0-1.0-786.0","0","0","99858","","null","","","null","87","NaN","","","","","","","","","","","","","","",""
"","S2","","html-keyboard-response","547","462425","0.0-1.0-787.0","0","0","99858","","null","","","null","87","","NaN","","","","","","","","","","","","","",""
"","response","","html-keyboard-response","548","462443","0.0-1.0-788.0-0.0","0","0","99858","","15","","","68","87","","","2","87","training","adjacent","EF","5","6","N.jpg","P.jpg","1","1","1","",""
"","feedback","","html-keyboard-response","549","463456","0.0-1.0-789.0-0.0","0","0","99858","","null","","","null","87","","","","","","","","","","","","","","","",""
"","ITI","","html-keyboard-response","550","464467","0.0-1.0-792.0","0","0","99858","","null","","","null","87","","","","","","","","","","","","","","","NaN",""
"","S1","","html-keyboard-response","551","464726","0.0-1.0-794.0","0","0","99858","","null","","","null","88","","","","","","","","","","","","","","","",""
"","ISI","","html-keyboard-response","552","465735","0.0-1.0-795.0","0","0","99858","","null","","","null","88","NaN","","","","","","","","","","","","","","",""
"","S2","","html-keyboard-response","553","465991","0.0-1.0-796.0","0","0","99858","","null","","","null","88","","NaN","","","","","","","","","","","","","",""
"","response","","html-keyboard-response","554","466021","0.0-1.0-797.0-0.0","0","0","99858","","25","","","68","88","","","2","88","training","adjacent","AB","1","2","R.jpg","M.jpg","1","1","1","",""
"","feedback","","html-keyboard-response","555","467031","0.0-1.0-798.0-0.0","0","0","99858","","null","","","null","88","","","","","","","","","","","","","","","",""
"","ITI","","html-keyboard-response","556","468040","0.0-1.0-801.0","0","0","99858","","null","","","null","88","","","","","","","","","","","","","","","NaN",""
"","S1","","html-keyboard-response","557","468305","0.0-1.0-803.0","0","0","99858","","null","","","null","89","","","","","","","","","","","","","","","",""
"","ISI","","html-keyboard-response","558","469313","0.0-1.0-804.0","0","0","99858","","null","","","null","89","NaN","","","","","","","","","","","","","","",""
"","S2","","html-keyboard-response","559","469575","0.0-1.0-805.0","0","0","99858","","null","","","null","89","","NaN","","","","","","","","","","","","","",""
"","response","","html-keyboard-response","560","469593","0.0-1.0-806.0-0.0","0","0","99858","","15","","","68","89","","","2","89","training","adjacent","DE","4","5","Q.jpg","N.jpg","1","1","1","",""
"","feedback","","html-keyboard-response","561","470609","0.0-1.0-807.0-0.0","0","0","99858","","null","","","null","89","","","","","","","","","","","","","","","",""
"","ITI","","html-keyboard-response","562","471622","0.0-1.0-810.0","0","0","99858","","null","","","null","89","","","","","","","","","","","","","","","NaN",""
"","S1","","html-keyboard-response","563","471882","0.0-1.0-812.0","0","0","99858","","null","","","null","90","","","","","","","","","","","","","","","",""
"","ISI","","html-keyboard-response","564","472897","0.0-1.0-813.0","0","0","99858","","null","","","null","90","NaN","","","","","","","","","","","","","","",""
"","S2","","html-keyboard-response","565","473149","0.0-1.0-814.0","0","0","99858","","247","","","68","90","","d","2","90","training","adjacent","FG","6","7","P.jpg","O.jpg","1","1","1","",""
"","feedback","","html-keyboard-response","566","474161","0.0-1.0-816.0-0.0","0","0","99858","","null","","","null","90","","","","","","","","","","","","","","","",""
"","ITI","","html-keyboard-response","567","475175","0.0-1.0-819.0","0","0","99858","","null","","","null","90","","","","","","","","","","","","","","","NaN",""
"","S1","","html-keyboard-response","568","475441","0.0-1.0-821.0","0","0","99858","","null","","","null","91","","","","","","","","","","","","","","","",""
"","ISI","","html-keyboard-response","569","476455","0.0-1.0-822.0","0","0","99858","","null","","","null","91","NaN","","","","","","","","","","","","","","",""
"","S2","","html-keyboard-response","570","476722","0.0-1.0-823.0","0","0","99858","","null","","","null","91","","NaN","","","","","","","","","","","","","",""
"","response","","html-keyboard-response","571","476864","0.0-1.0-824.0-0.0","0","0","99858","","137","","","68","91","","","2","91","training","adjacent","DC","4","3","Q.jpg","L.jpg","1","0","0","",""
"","feedback","","html-keyboard-response","572","477873","0.0-1.0-825.0-0.0","0","0","99858","","null","","","null","91","","","","","","","","","","","","","","","",""
"","time_out","","html-keyboard-response","573","479888","0.0-1.0-827.0-0.0","0","0","99858","","null","","","null","91","","","","","","","","","","","","","","","",""
"","ITI","","html-keyboard-response","574","480897","0.0-1.0-828.0","0","0","99858","","null","","","null","91","","","","","","","","","","","","","","","NaN",""
"","S1","","html-keyboard-response","575","481160","0.0-1.0-830.0","0","0","99858","","null","","","null","92","","","","","","","","","","","","","","","",""
"","ISI","","html-keyboard-response","576","482169","0.0-1.0-831.0","0","0","99858","","null","","","null","92","NaN","","","","","","","","","","","","","","",""
"","S2","","html-keyboard-response","577","482432","0.0-1.0-832.0","0","0","99858","","null","","","null","92","","NaN","","","","","","","","","","","","","",""
"","response","","html-keyboard-response","578","482511","0.0-1.0-833.0-0.0","0","0","99858","","74","","","68","92","","","2","92","training","adjacent","BC","2","3","M.jpg","L.jpg","1","1","1","",""
"","feedback","","html-keyboard-response","579","483520","0.0-1.0-834.0-0.0","0","0","99858","","null","","","null","92","","","","","","","","","","","","","","","",""
"","ITI","","html-keyboard-response","580","484534","0.0-1.0-837.0","0","0","99858","","null","","","null","92","","","","","","","","","","","","","","","NaN",""
"","S1","","html-keyboard-response","581","484801","0.0-1.0-839.0","0","0","99858","","null","","","null","93","","","","","","","","","","","","","","","",""
"","ISI","","html-keyboard-response","582","485816","0.0-1.0-840.0","0","0","99858","","null","","","null","93","NaN","","","","","","","","","","","","","","",""
"","S2","","html-keyboard-response","583","486081","0.0-1.0-841.0","0","0","99858","","null","","","null","93","","NaN","","","","","","","","","","","","","",""
