"success","ttype","start_time","trial_type","trial_index","time_elapsed","internal_node_id","warning","missed_checkup","PID","view_history","rt","responses","repeat_instructions","key_press","index","keypress_isi","keypress_S2","block","trial_num","phase","group_type","pair_type","S1_stim","S2_stim","S1_img","S2_img","S1_chosen","S1_higher","accuracy","keypress_iti","total_bonus_tally"
"true","full_screen","d03032023hr1940","fullscreen","0","3210","0.0-0.0","0","0","50489","","","","","","","","","","","","","","","","","","","","","",""
"","instructions","","instructions","1","22764","0.0-1.0-0.0-0.0","0","0","50489","[{""page_index"":0,""viewing_time"":3142},{""page_index"":1,""viewing_time"":10133},{""page_index"":2,""viewing_time"":4617},{""page_index"":3,""viewing_time"":1658}]","19551","","","","","","","","","","","","","","","","","","","",""
"","comprehension_check","","survey-multi-choice","2","43354","0.0-1.0-0.0-1.0","0","0","50489","","20582","{""Q0"":""True"",""Q1"":""D"",""Q2"":""Only when the screen 'MAKE A CHOICE' is shown"",""Q3"":""Green mark"",""Q4"":""either D or K""}","1","","","","","","","","","","","","","","","","","",""
"","missed_instruction_checkup","","html-keyboard-response","3","45367","0.0-1.0-0.0-2.0-0.0","0","1","50489","","2009","","","32","","","","","","","","","","","","","","","","",""
"","instructions","","instructions","4","60086","0.0-1.0-0.1-0.1","0","0","50489","[{""page_index"":0,""viewing_time"":1222},{""page_index"":1,""viewing_time"":2501},{""page_index"":2,""viewing_time"":6009},{""page_index"":1,""viewing_time"":3848},{""page_index"":2,""viewing_time"":536},{""page_index"":3,""viewing_time"":600}]","14717","","","","","","","","","","","","","","","","","","","",""
"","comprehension_check","","survey-multi-choice","5","66153","0.0-1.0-0.1-1.1","0","0","50489","","6057","{""Q0"":""True"",""Q1"":""K"",""Q2"":""Only when the screen 'MAKE A CHOICE' is shown"",""Q3"":""Green mark"",""Q4"":""either D or K""}","1","","","","","","","","","","","","","","","","","",""
"","missed_instruction_checkup","","html-keyboard-response","6","67304","0.0-1.0-0.1-2.1-0.1","0","1","50489","","1147","","","32","","","","","","","","","","","","","","","","",""
"","instructions","","instructions","7","84342","0.0-1.0-0.2-0.2","0","0","50489","[{""page_index"":0,""viewing_time"":4035},{""page_index"":1,""viewing_time"":8550},{""page_index"":2,""viewing_time"":3328},{""page_index"":3,""viewing_time"":1121}]","17035","","","","","","","","","","","","","","","","","","","",""
"","comprehension_check","","survey-multi-choice","8","95101","0.0-1.0-0.2-1.2","0","0","50489","","10747","{""Q0"":""True"",""Q1"":""K"",""Q2"":""Once the second image appears and while the screen 'MAKE A CHOICE' is shown"",""Q3"":""Green mark"",""Q4"":""either D or K""}","0","","","","","","","","","","","","","","","","","",""
"","start_exp","","html-keyboard-response","9","96228","0.0-1.0-1.0","0","0","50489","","1122","","","32","","","","","","","","","","","","","","","","",""
"","S1","","html-keyboard-response","10","96483","0.0-1.0-2.0","0","0","50489","","null","","","null","0","","","","","","","","","","","","","","","",""
"","ISI","","html-keyboard-response","11","96990","0.0-1.0-3.0","0","0","50489","","null","","","null","0","NaN","","","","","","","","","","","","","","",""
"","S2","","html-keyboard-response","12","97246","0.0-1.0-4.0","0","0","50489","","null","","","null","0","","NaN","","","","","","","","","","","","","",""
"","response","","html-keyboard-response","13","99001","0.0-1.0-5.0-0.0","0","0","50489","","null","","","null","0","","","1","0","training","adjacent","FG","6","7","Q.jpg","R.jpg","NaN","1","0","",""
"","too_slow_prompt","","html-keyboard-response","14","100006","0.0-1.0-7.0-0.0","1","0","50489","","null","","","null","","","","","","","","","","","","","","","","",""
"","time_out","","html-keyboard-response","15","102014","0.0-1.0-8.0-0.0","0","0","50489","","null","","","null","0","","","","","","","","","","","","","","","",""
"","ITI","","html-keyboard-response","16","103022","0.0-1.0-9.0","0","0","50489","","null","","","null","0","","","","","","","","","","","","","","","NaN",""
"","S1","","html-keyboard-response","17","103278","0.0-1.0-11.0","0","0","50489","","null","","","null","1","","","","","","","","","","","","","","","",""
"","ISI","","html-keyboard-response","18","103785","0.0-1.0-12.0","0","0","50489","","null","","","null","1","NaN","","","","","","","","","","","","","","",""
"","S2","","html-keyboard-response","19","104039","0.0-1.0-13.0","0","0","50489","","null","","","null","1","","NaN","","","","","","","","","","","","","",""
"","response","","html-keyboard-response","20","104399","0.0-1.0-14.0-0.0","0","0","50489","","356","","","75","1","","","1","1","training","adjacent","CB","3","2","O.jpg","L.jpg","1","0","0","",""
"","feedback","","html-keyboard-response","21","105405","0.0-1.0-15.0-0.0","0","0","50489","","null","","","null","1","","","","","","","","","","","","","","","",""
"","time_out","","html-keyboard-response","22","107411","0.0-1.0-17.0-0.0","0","0","50489","","null","","","null","1","","","","","","","","","","","","","","","",""
"","ITI","","html-keyboard-response","23","108419","0.0-1.0-18.0","0","0","50489","","null","","","null","1","","","","","","","","","","","","","","","NaN",""
"","S1","","html-keyboard-response","24","108675","0.0-1.0-20.0","0","0","50489","","null","","","null","2","","","","","","","","","","","","","","","",""
"","ISI","","html-keyboard-response","25","109182","0.0-1.0-21.0","0","0","50489","","null","","","null","2","NaN","","","","","","","","","","","","","","",""
"","S2","","html-keyboard-response","26","109437","0.0-1.0-22.0","0","0","50489","","null","","","null","2","","NaN","","","","","","","","","","","","","",""
"","response","","html-keyboard-response","27","109777","0.0-1.0-23.0-0.0","0","0","50489","","337","","","75","2","","","1","2","training","adjacent","AB","1","2","M.jpg","L.jpg","1","1","1","",""
"","feedback","","html-keyboard-response","28","110781","0.0-1.0-24.0-0.0","0","0","50489","","null","","","null","2","","","","","","","","","","","","","","","",""
"","ITI","","html-keyboard-response","29","111789","0.0-1.0-27.0","0","0","50489","","null","","","null","2","","","","","","","","","","","","","","","NaN",""
"","S1","","html-keyboard-response","30","112046","0.0-1.0-29.0","0","0","50489","","null","","","null","3","","","","","","","","","","","","","","","",""
"","ISI","","html-keyboard-response","31","112552","0.0-1.0-30.0","0","0","50489","","null","","","null","3","NaN","","","","","","","","","","","","","","",""
"","S2","","html-keyboard-response","32","112808","0.0-1.0-31.0","0","0","50489","","null","","","null","3","","NaN","","","","","","","","","","","","","",""
"","response","","html-keyboard-response","33","113197","0.0-1.0-32.0-0.0","0","0","50489","","387","","","68","3","","","1","3","training","adjacent","BC","2","3","L.jpg","O.jpg","0","1","0","",""
"","feedback","","html-keyboard-response","34","114202","0.0-1.0-33.0-0.0","0","0","50489","","null","","","null","3","","","","","","","","","","","","","","","",""
"","time_out","","html-keyboard-response","35","116206","0.0-1.0-35.0-0.0","0","0","50489","","null","","","null","3","","","","","","","","","","","","","","","",""
"","ITI","","html-keyboard-response","36","117212","0.0-1.0-36.0","0","0","50489","","null","","","null","3","","","","","","","","","","","","","","","NaN",""
"","S1","","html-keyboard-response","37","117469","0.0-1.0-38.0","0","0","50489","","null","","","null","4","","","","","","","","","","","","","","","",""
"","ISI","","html-keyboard-response","38","117976","0.0-1.0-39.0","0","0","50489","","null","","","null","4","NaN","","","","","","","","","","","","","","",""
"","S2","","html-keyboard-response","39","118231","0.0-1.0-40.0","0","0","50489","","null","","","null","4","","NaN","","","","","","","","","","","","","",""
"","response","","html-keyboard-response","40","118551","0.0-1.0-41.0-0.0","0","0","50489","","318","","","68","4","","","1","4","training","adjacent","GF","7","6","R.jpg","Q.jpg","0","0","1","",""
"","feedback","","html-keyboard-response","41","119559","0.0-1.0-42.0-0.0","0","0","50489","","null","","","null","4","","","","","","","","","","","","","","","",""
"","ITI","","html-keyboard-response","42","120567","0.0-1.0-45.0","0","0","50489","","null","","","null","4","","","","","","","","","","","","","","","NaN",""
"","S1","","html-keyboard-response","43","120824","0.0-1.0-47.0","0","0","50489","","null","","","null","5","","","","","","","","","","","","","","","",""
"","ISI","","html-keyboard-response","44","121330","0.0-1.0-48.0","0","0","50489","","null","","","null","5","NaN","","","","","","","","","","","","","","",""
"","S2","","html-keyboard-response","45","121587","0.0-1.0-49.0","0","0","50489","","null","","","null","5","","NaN","","","","","","","","","","","","","",""
"","response","","html-keyboard-response","46","122118","0.0-1.0-50.0-0.0","0","0","50489","","528","","","75","5","","","1","5","training","adjacent","CB","3","2","O.jpg","L.jpg","1","0","0","",""
"","feedback","","html-keyboard-response","47","123123","0.0-1.0-51.0-0.0","0","0","50489","","null","","","null","5","","","","","","","","","","","","","","","",""
"","time_out","","html-keyboard-response","48","125127","0.0-1.0-53.0-0.0","0","0","50489","","null","","","null","5","","","","","","","","","","","","","","","",""
"","ITI","","html-keyboard-response","49","126135","0.0-1.0-54.0","0","0","50489","","null","","","null","5","","","","","","","","","","","","","","","NaN",""
"","S1","","html-keyboard-response","50","126392","0.0-1.0-56.0","0","0","50489","","null","","","null","6","","","","","","","","","","","","","","","",""
"","ISI","","html-keyboard-response","51","126896","0.0-1.0-57.0","0","0","50489","","null","","","null","6","NaN","","","","","","","","","","","","","","",""
"","S2","","html-keyboard-response","52","127149","0.0-1.0-58.0","0","0","50489","","null","","","null","6","","NaN","","","","","","","","","","","","","",""
"","response","","html-keyboard-response","53","127594","0.0-1.0-59.0-0.0","0","0","50489","","441","","","75","6","","","1","6","training","adjacent","BA","2","1","L.jpg","M.jpg","1","0","0","",""
"","feedback","","html-keyboard-response","54","128598","0.0-1.0-60.0-0.0","0","0","50489","","null","","","null","6","","","","","","","","","","","","","","","",""
"","time_out","","html-keyboard-response","55","130603","0.0-1.0-62.0-0.0","0","0","50489","","null","","","null","6","","","","","","","","","","","","","","","",""
"","ITI","","html-keyboard-response","56","131608","0.0-1.0-63.0","0","0","50489","","32","","","79","6","","","","","","","","","","","","","","","o",""
"","S1","","html-keyboard-response","57","131868","0.0-1.0-65.0","0","0","50489","","null","","","null","7","","","","","","","","","","","","","","","",""
"","ISI","","html-keyboard-response","58","132376","0.0-1.0-66.0","0","0","50489","","null","","","null","7","NaN","","","","","","","","","","","","","","",""
"","S2","","html-keyboard-response","59","132632","0.0-1.0-67.0","0","0","50489","","null","","","null","7","","NaN","","","","","","","","","","","","","",""
"","response","","html-keyboard-response","60","132756","0.0-1.0-68.0-0.0","0","0","50489","","121","","","68","7","","","1","7","training","adjacent","BA","2","1","L.jpg","M.jpg","0","0","1","",""
"","feedback","","html-keyboard-response","61","133765","0.0-1.0-69.0-0.0","0","0","50489","","null","","","null","7","","","","","","","","","","","","","","","",""
"","ITI","","html-keyboard-response","62","134770","0.0-1.0-72.0","0","0","50489","","null","","","null","7","","","","","","","","","","","","","","","NaN",""
"","S1","","html-keyboard-response","63","135026","0.0-1.0-74.0","0","0","50489","","null","","","null","8","","","","","","","","","","","","","","","",""
"","ISI","","html-keyboard-response","64","135533","0.0-1.0-75.0","0","0","50489","","null","","","null","8","NaN","","","","","","","","","","","","","","",""
"","S2","","html-keyboard-response","65","135789","0.0-1.0-76.0","0","0","50489","","null","","","null","8","","NaN","","","","","","","","","","","","","",""
"","response","","html-keyboard-response","66","135835","0.0-1.0-77.0-0.0","0","0","50489","","42","","","68","8","","","1","8","training","adjacent","AB","1","2","M.jpg","L.jpg","0","1","0","",""
"","feedback","","html-keyboard-response","67","136840","0.0-1.0-78.0-0.0","0","0","50489","","null","","","null","8","","","","","","","","","","","","","","","",""
"","time_out","","html-keyboard-response","68","138845","0.0-1.0-80.0-0.0","0","0","50489","","null","","","null","8","","","","","","","","","","","","","","","",""
"","ITI","","html-keyboard-response","69","139853","0.0-1.0-81.0","0","0","50489","","null","","","null","8","","","","","","","","","","","","","","","NaN",""
"","S1","","html-keyboard-response","70","140109","0.0-1.0-83.0","0","0","50489","","null","","","null","9","","","","","","","","","","","","","","","",""
"","ISI","","html-keyboard-response","71","140615","0.0-1.0-84.0","0","0","50489","","null","","","null","9","NaN","","","","","","","","","","","","","","",""
"","S2","","html-keyboard-response","72","140870","0.0-1.0-85.0","0","0","50489","","null","","","null","9","","NaN","","","","","","","","","","","","","",""
"","response","","html-keyboard-response","73","141189","0.0-1.0-86.0-0.0","0","0","50489","","316","","","68","9","","","1","9","training","adjacent","CD","3","4","O.jpg","N.jpg","0","1","0","",""
"","feedback","","html-keyboard-response","74","142193","0.0-1.0-87.0-0.0","0","0","50489","","null","","","null","9","","","","","","","","","","","","","","","",""
"","time_out","","html-keyboard-response","75","144197","0.0-1.0-89.0-0.0","0","0","50489","","null","","","null","9","","","","","","","","","","","","","","","",""
"","ITI","","html-keyboard-response","76","145199","0.0-1.0-90.0","0","0","50489","","null","","","null","9","","","","","","","","","","","","","","","NaN",""
"","S1","","html-keyboard-response","77","145457","0.0-1.0-92.0","0","0","50489","","null","","","null","10","","","","","","","","","","","","","","","",""
"","ISI","","html-keyboard-response","78","145965","0.0-1.0-93.0","0","0","50489","","null","","","null","10","NaN","","","","","","","","","","","","","","",""
"","S2","","html-keyboard-response","79","146220","0.0-1.0-94.0","0","0","50489","","null","","","null","10","","NaN","","","","","","","","","","","","","",""
"","response","","html-keyboard-response","80","146702","0.0-1.0-95.0-0.0","0","0","50489","","478","","","75","10","","","1","10","training","adjacent","FG","6","7","Q.jpg","R.jpg","1","1","1","",""
"","feedback","","html-keyboard-response","81","147708","0.0-1.0-96.0-0.0","0","0","50489","","null","","","null","10","","","","","","","","","","","","","","","",""
"","ITI","","html-keyboard-response","82","148715","0.0-1.0-99.0","0","0","50489","","null","","","null","10","","","","","","","","","","","","","","","NaN",""
"","S1","","html-keyboard-response","83","148972","0.0-1.0-101.0","0","0","50489","","null","","","null","11","","","","","","","","","","","","","","","",""
"","ISI","","html-keyboard-response","84","149479","0.0-1.0-102.0","0","0","50489","","null","","","null","11","NaN","","","","","","","","","","","","","","",""
"","S2","","html-keyboard-response","85","149735","0.0-1.0-103.0","0","0","50489","","null","","","null","11","","NaN","","","","","","","","","","","","","",""
"","response","","html-keyboard-response","86","150288","0.0-1.0-104.0-0.0","0","0","50489","","549","","","68","11","","","1","11","training","adjacent","AB","1","2","M.jpg","L.jpg","0","1","0","",""
"","feedback","","html-keyboard-response","87","151293","0.0-1.0-105.0-0.0","0","0","50489","","null","","","null","11","","","","","","","","","","","","","","","",""
"","time_out","","html-keyboard-response","88","153297","0.0-1.0-107.0-0.0","0","0","50489","","null","","","null","11","","","","","","","","","","","","","","","",""
"","ITI","","html-keyboard-response","89","154300","0.0-1.0-108.0","0","0","50489","","null","","","null","11","","","","","","","","","","","","","","","NaN",""
"","S1","","html-keyboard-response","90","154557","0.0-1.0-110.0","0","0","50489","","null","","","null","12","","","","","","","","","","","","","","","",""
"","ISI","","html-keyboard-response","91","155063","0.0-1.0-111.0","0","0","50489","","null","","","null","12","NaN","","","","","","","","","","","","","","",""
"","S2","","html-keyboard-response","92","155317","0.0-1.0-112.0","0","0","50489","","null","","","null","12","","NaN","","","","","","","","","","","","","",""
"","response","","html-keyboard-response","93","155797","0.0-1.0-113.0-0.0","0","0","50489","","476","","","75","12","","","1","12","training","adjacent","DC","4","3","N.jpg","O.jpg","1","0","0","",""
"","feedback","","html-keyboard-response","94","156802","0.0-1.0-114.0-0.0","0","0","50489","","null","","","null","12","","","","","","","","","","","","","","","",""
"","time_out","","html-keyboard-response","95","158807","0.0-1.0-116.0-0.0","0","0","50489","","null","","","null","12","","","","","","","","","","","","","","","",""
"","ITI","","html-keyboard-response","96","159815","0.0-1.0-117.0","0","0","50489","","null","","","null","12","","","","","","","","","","","","","","","NaN",""
"","S1","","html-keyboard-response","97","160071","0.0-1.0-119.0","0","0","50489","","null","","","null","13","","","","","","","","","","","","","","","",""
"","ISI","","html-keyboard-response","98","160578","0.0-1.0-120.0","0","0","50489","","null","","","null","13","NaN","","","","","","","","","","","","","","",""
"","S2","","html-keyboard-response","99","160833","0.0-1.0-121.0","0","0","50489","","null","","","null","13","","NaN","","","","","","","","","","","","","",""
"","response","","html-keyboard-response","100","161073","0.0-1.0-122.0-0.0","0","0","50489","","236","","","68","13","","","1","13","training","adjacent","CD","3","4","O.jpg","N.jpg","0","1","0","",""
"","feedback","","html-keyboard-response","101","162080","0.0-1.0-123.0-0.0","0","0","50489","","null","","","null","13","","","","","","","","","","","","","","","",""
"","time_out","","html-keyboard-response","102","164087","0.0-1.0-125.0-0.0","0","0","50489","","null","","","null","13","","","","","","","","","","","","","","","",""
"","ITI","","html-keyboard-response","103","165089","0.0-1.0-126.0","0","0","50489","","null","","","null","13","","","","","","","","","","","","","","","NaN",""
"","S1","","html-keyboard-response","104","165345","0.0-1.0-128.0","0","0","50489","","null","","","null","14","","","","","","","","","","","","","","","",""
"","ISI","","html-keyboard-response","105","165852","0.0-1.0-129.0","0","0","50489","","null","","","null","14","NaN","","","","","","","","","","","","","","",""
"","S2","","html-keyboard-response","106","166106","0.0-1.0-130.0","0","0","50489","","null","","","null","14","","NaN","","","","","","","","","","","","","",""
"","response","","html-keyboard-response","107","166906","0.0-1.0-131.0-0.0","0","0","50489","","798","","","75","14","","","1","14","training","adjacent","FE","6","5","Q.jpg","P.jpg","1","0","0","",""
"","feedback","","html-keyboard-response","108","167911","0.0-1.0-132.0-0.0","0","0","50489","","null","","","null","14","","","","","","","","","","","","","","","",""
"","time_out","","html-keyboard-response","109","169916","0.0-1.0-134.0-0.0","0","0","50489","","null","","","null","14","","","","","","","","","","","","","","","",""
"","ITI","","html-keyboard-response","110","170923","0.0-1.0-135.0","0","0","50489","","null","","","null","14","","","","","","","","","","","","","","","NaN",""
"","S1","","html-keyboard-response","111","171180","0.0-1.0-137.0","0","0","50489","","null","","","null","15","","","","","","","","","","","","","","","",""
"","ISI","","html-keyboard-response","112","171687","0.0-1.0-138.0","0","0","50489","","null","","","null","15","NaN","","","","","","","","","","","","","","",""
"","S2","","html-keyboard-response","113","171942","0.0-1.0-139.0","0","0","50489","","null","","","null","15","","NaN","","","","","","","","","","","","","",""
"","response","","html-keyboard-response","114","172907","0.0-1.0-140.0-0.0","0","0","50489","","963","","","68","15","","","1","15","training","adjacent","EF","5","6","P.jpg","Q.jpg","0","1","0","",""
"","feedback","","html-keyboard-response","115","173913","0.0-1.0-141.0-0.0","0","0","50489","","null","","","null","15","","","","","","","","","","","","","","","",""
"","time_out","","html-keyboard-response","116","175921","0.0-1.0-143.0-0.0","0","0","50489","","null","","","null","15","","","","","","","","","","","","","","","",""
"","ITI","","html-keyboard-response","117","176928","0.0-1.0-144.0","0","0","50489","","null","","","null","15","","","","","","","","","","","","","","","NaN",""
"","S1","","html-keyboard-response","118","177184","0.0-1.0-146.0","0","0","50489","","null","","","null","16","","","","","","","","","","","","","","","",""
"","ISI","","html-keyboard-response","119","177692","0.0-1.0-147.0","0","0","50489","","null","","","null","16","NaN","","","","","","","","","","","","","","",""
"","S2","","html-keyboard-response","120","177891","0.0-1.0-148.0","0","0","50489","","196","","","75","16","","k","1","16","training","adjacent","FE","6","5","Q.jpg","P.jpg","1","0","0","",""
"","feedback","","html-keyboard-response","121","178894","0.0-1.0-150.0-0.0","0","0","50489","","null","","","null","16","","","","","","","","","","","","","","","",""
"","time_out","","html-keyboard-response","122","180899","0.0-1.0-152.0-0.0","0","0","50489","","null","","","null","16","","","","","","","","","","","","","","","",""
"","ITI","","html-keyboard-response","123","181905","0.0-1.0-153.0","0","0","50489","","null","","","null","16","","","","","","","","","","","","","","","NaN",""
"","S1","","html-keyboard-response","124","182161","0.0-1.0-155.0","0","0","50489","","null","","","null","17","","","","","","","","","","","","","","","",""
"","ISI","","html-keyboard-response","125","182668","0.0-1.0-156.0","0","0","50489","","null","","","null","17","NaN","","","","","","","","","","","","","","",""
"","S2","","html-keyboard-response","126","182786","0.0-1.0-157.0","0","0","50489","","115","","","75","17","","k","1","17","training","adjacent","ED","5","4","P.jpg","N.jpg","1","0","0","",""
"","feedback","","html-keyboard-response","127","183792","0.0-1.0-159.0-0.0","0","0","50489","","null","","","null","17","","","","","","","","","","","","","","","",""
"","time_out","","html-keyboard-response","128","185794","0.0-1.0-161.0-0.0","0","0","50489","","null","","","null","17","","","","","","","","","","","","","","","",""
"","ITI","","html-keyboard-response","129","186797","0.0-1.0-162.0","0","0","50489","","null","","","null","17","","","","","","","","","","","","","","","NaN",""
"","S1","","html-keyboard-response","130","187052","0.0-1.0-164.0","0","0","50489","","null","","","null","18","","","","","","","","","","","","","","","",""
"","ISI","","html-keyboard-response","131","187558","0.0-1.0-165.0","0","0","50489","","null","","","null","18","NaN","","","","","","","","","","","","","","",""
"","S2","","html-keyboard-response","132","187814","0.0-1.0-166.0","0","0","50489","","null","","","null","18","","NaN","","","","","","","","","","","","","",""
"","response","","html-keyboard-response","133","187886","0.0-1.0-167.0-0.0","0","0","50489","","70","","","68","18","","","1","18","training","adjacent","DC","4","3","N.jpg","O.jpg","0","0","1","",""
"","feedback","","html-keyboard-response","134","188892","0.0-1.0-168.0-0.0","0","0","50489","","null","","","null","18","","","","","","","","","","","","","","","",""
"","ITI","","html-keyboard-response","135","189896","0.0-1.0-171.0","0","0","50489","","null","","","null","18","","","","","","","","","","","","","","","NaN",""
"","S1","","html-keyboard-response","136","190154","0.0-1.0-173.0","0","0","50489","","null","","","null","19","","","","","","","","","","","","","","","",""
"","ISI","","html-keyboard-response","137","190661","0.0-1.0-174.0","0","0","50489","","null","","","null","19","NaN","","","","","","","","","","","","","","",""
"","S2","","html-keyboard-response","138","190917","0.0-1.0-175.0","0","0","50489","","null","","","null","19","","NaN","","","","","","","","","","","","","",""
"","response","","html-keyboard-response","139","191367","0.0-1.0-176.0-0.0","0","0","50489","","447","","","68","19","","","1","19","training","adjacent","DE","4","5","N.jpg","P.jpg","0","1","0","",""
"","feedback","","html-keyboard-response","140","192374","0.0-1.0-177.0-0.0","0","0","50489","","null","","","null","19","","","","","","","","","","","","","","","",""
"","time_out","","html-keyboard-response","141","194379","0.0-1.0-179.0-0.0","0","0","50489","","null","","","null","19","","","","","","","","","","","","","","","",""
"","ITI","","html-keyboard-response","142","195386","0.0-1.0-180.0","0","0","50489","","null","","","null","19","","","","","","","","","","","","","","","NaN",""
"","S1","","html-keyboard-response","143","195643","0.0-1.0-182.0","0","0","50489","","null","","","null","20","","","","","","","","","","","","","","","",""
"","ISI","","html-keyboard-response","144","196151","0.0-1.0-183.0","0","0","50489","","null","","","null","20","NaN","","","","","","","","","","","","","","",""
"","S2","","html-keyboard-response","145","196406","0.0-1.0-184.0","0","0","50489","","null","","","null","20","","NaN","","","","","","","","","","","","","",""
"","response","","html-keyboard-response","146","196969","0.0-1.0-185.0-0.0","0","0","50489","","559","","","75","20","","","1","20","training","adjacent","EF","5","6","P.jpg","Q.jpg","1","1","1","",""
"","feedback","","html-keyboard-response","147","197974","0.0-1.0-186.0-0.0","0","0","50489","","null","","","null","20","","","","","","","","","","","","","","","",""
"","ITI","","html-keyboard-response","148","198980","0.0-1.0-189.0","0","0","50489","","null","","","null","20","","","","","","","","","","","","","","","NaN",""
"","S1","","html-keyboard-response","149","199238","0.0-1.0-191.0","0","0","50489","","null","","","null","21","","","","","","","","","","","","","","","",""
"","ISI","","html-keyboard-response","150","199744","0.0-1.0-192.0","0","0","50489","","null","","","null","21","NaN","","","","","","","","","","","","","","",""
"","S2","","html-keyboard-response","151","199999","0.0-1.0-193.0","0","0","50489","","null","","","null","21","","NaN","","","","","","","","","","","","","",""
"","response","","html-keyboard-response","152","200006","0.0-1.0-194.0-0.0","0","0","50489","","5","","","75","21","","","1","21","training","adjacent","EF","5","6","P.jpg","Q.jpg","1","1","1","",""
"","feedback","","html-keyboard-response","153","201013","0.0-1.0-195.0-0.0","0","0","50489","","null","","","null","21","","","","","","","","","","","","","","","",""
"","ITI","","html-keyboard-response","154","202020","0.0-1.0-198.0","0","0","50489","","null","","","null","21","","","","","","","","","","","","","","","NaN",""
"","S1","","html-keyboard-response","155","202278","0.0-1.0-200.0","0","0","50489","","null","","","null","22","","","","","","","","","","","","","","","",""
"","ISI","","html-keyboard-response","156","202784","0.0-1.0-201.0","0","0","50489","","null","","","null","22","NaN","","","","","","","","","","","","","","",""
"","S2","","html-keyboard-response","157","203041","0.0-1.0-202.0","0","0","50489","","null","","","null","22","","NaN","","","","","","","","","","","","","",""
"","response","","html-keyboard-response","158","203170","0.0-1.0-203.0-0.0","0","0","50489","","126","","","68","22","","","1","22","training","adjacent","AB","1","2","M.jpg","L.jpg","0","1","0","",""
"","feedback","","html-keyboard-response","159","204176","0.0-1.0-204.0-0.0","0","0","50489","","null","","","null","22","","","","","","","","","","","","","","","",""
"","time_out","","html-keyboard-response","160","206182","0.0-1.0-206.0-0.0","0","0","50489","","null","","","null","22","","","","","","","","","","","","","","","",""
"","ITI","","html-keyboard-response","161","207188","0.0-1.0-207.0","0","0","50489","","null","","","null","22","","","","","","","","","","","","","","","NaN",""
"","S1","","html-keyboard-response","162","207445","0.0-1.0-209.0","0","0","50489","","null","","","null","23","","","","","","","","","","","","","","","",""
"","ISI","","html-keyboard-response","163","207952","0.0-1.0-210.0","0","0","50489","","null","","","null","23","NaN","","","","","","","","","","","","","","",""
"","S2","","html-keyboard-response","164","208207","0.0-1.0-211.0","0","0","50489","","null","","","null","23","","NaN","","","","","","","","","","","","","",""
"","response","","html-keyboard-response","165","208503","0.0-1.0-212.0-0.0","0","0","50489","","293","","","68","23","","","1","23","training","adjacent","FG","6","7","Q.jpg","R.jpg","0","1","0","",""
"","feedback","","html-keyboard-response","166","209510","0.0-1.0-213.0-0.0","0","0","50489","","null","","","null","23","","","","","","","","","","","","","","","",""
"","time_out","","html-keyboard-response","167","211515","0.0-1.0-215.0-0.0","0","0","50489","","null","","","null","23","","","","","","","","","","","","","","","",""
"","ITI","","html-keyboard-response","168","212522","0.0-1.0-216.0","0","0","50489","","null","","","null","23","","","","","","","","","","","","","","","NaN",""
"","S1","","html-keyboard-response","169","212779","0.0-1.0-218.0","0","0","50489","","null","","","null","24","","","","","","","","","","","","","","","",""
"","ISI","","html-keyboard-response","170","213286","0.0-1.0-219.0","0","0","50489","","null","","","null","24","NaN","","","","","","","","","","","","","","",""
"","S2","","html-keyboard-response","171","213540","0.0-1.0-220.0","0","0","50489","","null","","","null","24","","NaN","","","","","","","","","","","","","",""
"","response","","html-keyboard-response","172","213743","0.0-1.0-221.0-0.0","0","0","50489","","199","","","68","24","","","1","24","training","adjacent","ED","5","4","P.jpg","N.jpg","0","0","1","",""
"","feedback","","html-keyboard-response","173","214750","0.0-1.0-222.0-0.0","0","0","50489","","null","","","null","24","","","","","","","","","","","","","","","",""
"","ITI","","html-keyboard-response","174","215756","0.0-1.0-225.0","0","0","50489","","null","","","null","24","","","","","","","","","","","","","","","NaN",""
"","S1","","html-keyboard-response","175","216011","0.0-1.0-227.0","0","0","50489","","null","","","null","25","","","","","","","","","","","","","","","",""
"","ISI","","html-keyboard-response","176","216518","0.0-1.0-228.0","0","0","50489","","null","","","null","25","NaN","","","","","","","","","","","","","","",""
"","S2","","html-keyboard-response","177","216764","0.0-1.0-229.0","0","0","50489","","243","","","75","25","","k","1","25","training","adjacent","GF","7","6","R.jpg","Q.jpg","1","0","0","",""
"","feedback","","html-keyboard-response","178","217771","0.0-1.0-231.0-0.0","0","0","50489","","null","","","null","25","","","","","","","","","","","","","","","",""
"","time_out","","html-keyboard-response","179","219776","0.0-1.0-233.0-0.0","0","0","50489","","null","","","null","25","","","","","","","","","","","","","","","",""
"","ITI","","html-keyboard-response","180","220783","0.0-1.0-234.0","0","0","50489","","null","","","null","25","","","","","","","","","","","","","","","NaN",""
"","S1","","html-keyboard-response","181","221041","0.0-1.0-236.0","0","0","50489","","null","","","null","26","","","","","","","","","","","","","","","",""
"","ISI","","html-keyboard-response","182","221546","0.0-1.0-237.0","0","0","50489","","null","","","null","26","NaN","","","","","","","","","","","","","","",""
"","S2","","html-keyboard-response","183","221801","0.0-1.0-238.0","0","0","50489","","null","","","null","26","","NaN","","","","","","","","","","","","","",""
"","response","","html-keyboard-response","184","221985","0.0-1.0-239.0-0.0","0","0","50489","","182","","","75","26","","","1","26","training","adjacent","DC","4","3","N.jpg","O.jpg","1","0","0","",""
"","feedback","","html-keyboard-response","185","222991","0.0-1.0-240.0-0.0","0","0","50489","","null","","","null","26","","","","","","","","","","","","","","","",""
"","time_out","","html-keyboard-response","186","224995","0.0-1.0-242.0-0.0","0","0","50489","","null","","","null","26","","","","","","","","","","","","","","","",""
"","ITI","","html-keyboard-response","187","226000","0.0-1.0-243.0","0","0","50489","","null","","","null","26","","","","","","","","","","","","","","","NaN",""
"","S1","","html-keyboard-response","188","226256","0.0-1.0-245.0","0","0","50489","","null","","","null","27","","","","","","","","","","","","","","","",""
"","ISI","","html-keyboard-response","189","226762","0.0-1.0-246.0","0","0","50489","","null","","","null","27","NaN","","","","","","","","","","","","","","",""
"","S2","","html-keyboard-response","190","226986","0.0-1.0-247.0","0","0","50489","","221","","","75","27","","k","1","27","training","adjacent","DE","4","5","N.jpg","P.jpg","1","1","1","",""
"","feedback","","html-keyboard-response","191","227990","0.0-1.0-249.0-0.0","0","0","50489","","null","","","null","27","","","","","","","","","","","","","","","",""
"","ITI","","html-keyboard-response","192","228993","0.0-1.0-252.0","0","0","50489","","null","","","null","27","","","","","","","","","","","","","","","NaN",""
"","S1","","html-keyboard-response","193","229248","0.0-1.0-254.0","0","0","50489","","null","","","null","28","","","","","","","","","","","","","","","",""
"","ISI","","html-keyboard-response","194","229754","0.0-1.0-255.0","0","0","50489","","null","","","null","28","NaN","","","","","","","","","","","","","","",""
"","S2","","html-keyboard-response","195","230011","0.0-1.0-256.0","0","0","50489","","null","","","null","28","","NaN","","","","","","","","","","","","","",""
"","response","","html-keyboard-response","196","230092","0.0-1.0-257.0-0.0","0","0","50489","","78","","","68","28","","","1","28","training","adjacent","BC","2","3","L.jpg","O.jpg","0","1","0","",""
"","feedback","","html-keyboard-response","197","231098","0.0-1.0-258.0-0.0","0","0","50489","","null","","","null","28","","","","","","","","","","","","","","","",""
"","time_out","","html-keyboard-response","198","233102","0.0-1.0-260.0-0.0","0","0","50489","","null","","","null","28","","","","","","","","","","","","","","","",""
"","ITI","","html-keyboard-response","199","234108","0.0-1.0-261.0","0","0","50489","","null","","","null","28","","","","","","","","","","","","","","","NaN",""
"","S1","","html-keyboard-response","200","234363","0.0-1.0-263.0","0","0","50489","","null","","","null","29","","","","","","","","","","","","","","","",""
"","ISI","","html-keyboard-response","201","234869","0.0-1.0-264.0","0","0","50489","","null","","","null","29","NaN","","","","","","","","","","","","","","",""
"","S2","","html-keyboard-response","202","234921","0.0-1.0-265.0","0","0","50489","","50","","","68","29","","d","1","29","training","adjacent","EF","5","6","P.jpg","Q.jpg","0","1","0","",""
"","feedback","","html-keyboard-response","203","235925","0.0-1.0-267.0-0.0","0","0","50489","","null","","","null","29","","","","","","","","","","","","","","","",""
"","time_out","","html-keyboard-response","204","237931","0.0-1.0-269.0-0.0","0","0","50489","","null","","","null","29","","","","","","","","","","","","","","","",""
"","ITI","","html-keyboard-response","205","238939","0.0-1.0-270.0","0","0","50489","","947","","","79","29","","","","","","","","","","","","","","","o",""
"","S1","","html-keyboard-response","206","239193","0.0-1.0-272.0","0","0","50489","","null","","","null","30","","","","","","","","","","","","","","","",""
"","ISI","","html-keyboard-response","207","239695","0.0-1.0-273.0","0","0","50489","","null","","","null","30","NaN","","","","","","","","","","","","","","",""
"","S2","","html-keyboard-response","208","239949","0.0-1.0-274.0","0","0","50489","","null","","","null","30","","NaN","","","","","","","","","","","","","",""
"","response","","html-keyboard-response","209","240291","0.0-1.0-275.0-0.0","0","0","50489","","339","","","75","30","","","1","30","training","adjacent","CD","3","4","O.jpg","N.jpg","1","1","1","",""
"","feedback","","html-keyboard-response","210","241295","0.0-1.0-276.0-0.0","0","0","50489","","null","","","null","30","","","","","","","","","","","","","","","",""
"","ITI","","html-keyboard-response","211","242298","0.0-1.0-279.0","0","0","50489","","null","","","null","30","","","","","","","","","","","","","","","NaN",""
"","S1","","html-keyboard-response","212","242554","0.0-1.0-281.0","0","0","50489","","null","","","null","31","","","","","","","","","","","","","","","",""
"","ISI","","html-keyboard-response","213","243061","0.0-1.0-282.0","0","0","50489","","null","","","null","31","NaN","","","","","","","","","","","","","","",""
"","S2","","html-keyboard-response","214","243317","0.0-1.0-283.0","0","0","50489","","null","","","null","31","","NaN","","","","","","","","","","","","","",""
"","response","","html-keyboard-response","215","243765","0.0-1.0-284.0-0.0","0","0","50489","","445","","","68","31","","","1","31","training","adjacent","FE","6","5","Q.jpg","P.jpg","0","0","1","",""
"","feedback","","html-keyboard-response","216","244773","0.0-1.0-285.0-0.0","0","0","50489","","null","","","null","31","","","","","","","","","","","","","","","",""
"","ITI","","html-keyboard-response","217","245780","0.0-1.0-288.0","0","0","50489","","null","","","null","31","","","","","","","","","","","","","","","NaN",""
"","S1","","html-keyboard-response","218","246037","0.0-1.0-290.0","0","0","50489","","null","","","null","32","","","","","","","","","","","","","","","",""
"","ISI","","html-keyboard-response","219","246543","0.0-1.0-291.0","0","0","50489","","null","","","null","32","NaN","","","","","","","","","","","","","","",""
"","S2","","html-keyboard-response","220","246798","0.0-1.0-292.0","0","0","50489","","null","","","null","32","","NaN","","","","","","","","","","","","","",""
"","response","","html-keyboard-response","221","247062","0.0-1.0-293.0-0.0","0","0","50489","","262","","","68","32","","","1","32","training","adjacent","DC","4","3","N.jpg","O.jpg","0","0","1","",""
"","feedback","","html-keyboard-response","222","248069","0.0-1.0-294.0-0.0","0","0","50489","","null","","","null","32","","","","","","","","","","","","","","","",""
"","ITI","","html-keyboard-response","223","249077","0.0-1.0-297.0","0","0","50489","","null","","","null","32","","","","","","","","","","","","","","","NaN",""
"","S1","","html-keyboard-response","224","249333","0.0-1.0-299.0","0","0","50489","","null","","","null","33","","","","","","","","","","","","","","","",""
"","ISI","","html-keyboard-response","225","249839","0.0-1.0-300.0","0","0","50489","","null","","","null","33","NaN","","","","","","","","","","","","","","",""
"","S2","","html-keyboard-response","226","250093","0.0-1.0-301.0","0","0","50489","","null","","","null","33","","NaN","","","","","","","","","","","","","",""
"","response","","html-keyboard-response","227","250252","0.0-1.0-302.0-0.0","0","0","50489","","157","","","75","33","","","1","33","training","adjacent","FE","6","5","Q.jpg","P.jpg","1","0","0","",""
"","feedback","","html-keyboard-response","228","251257","0.0-1.0-303.0-0.0","0","0","50489","","null","","","null","33","","","","","","","","","","","","","","","",""
"","time_out","","html-keyboard-response","229","253264","0.0-1.0-305.0-0.0","0","0","50489","","null","","","null","33","","","","","","","","","","","","","","","",""
"","ITI","","html-keyboard-response","230","254272","0.0-1.0-306.0","0","0","50489","","null","","","null","33","","","","","","","","","","","","","","","NaN",""
"","S1","","html-keyboard-response","231","254527","0.0-1.0-308.0","0","0","50489","","null","","","null","34","","","","","","","","","","","","","","","",""
"","ISI","","html-keyboard-response","232","255034","0.0-1.0-309.0","0","0","50489","","null","","","null","34","NaN","","","","","","","","","","","","","","",""
"","S2","","html-keyboard-response","233","255288","0.0-1.0-310.0","0","0","50489","","null","","","null","34","","NaN","","","","","","","","","","","","","",""
"","response","","html-keyboard-response","234","255642","0.0-1.0-311.0-0.0","0","0","50489","","351","","","68","34","","","1","34","training","adjacent","BC","2","3","L.jpg","O.jpg","0","1","0","",""
"","feedback","","html-keyboard-response","235","256649","0.0-1.0-312.0-0.0","0","0","50489","","null","","","null","34","","","","","","","","","","","","","","","",""
"","time_out","","html-keyboard-response","236","258656","0.0-1.0-314.0-0.0","0","0","50489","","null","","","null","34","","","","","","","","","","","","","","","",""
"","ITI","","html-keyboard-response","237","259663","0.0-1.0-315.0","0","0","50489","","null","","","null","34","","","","","","","","","","","","","","","NaN",""
"","S1","","html-keyboard-response","238","259919","0.0-1.0-317.0","0","0","50489","","null","","","null","35","","","","","","","","","","","","","","","",""
"","ISI","","html-keyboard-response","239","260425","0.0-1.0-318.0","0","0","50489","","null","","","null","35","NaN","","","","","","","","","","","","","","",""
"","S2","","html-keyboard-response","240","260680","0.0-1.0-319.0","0","0","50489","","null","","","null","35","","NaN","","","","","","","","","","","","","",""
"","response","","html-keyboard-response","241","260780","0.0-1.0-320.0-0.0","0","0","50489","","97","","","75","35","","","1","35","training","adjacent","DE","4","5","N.jpg","P.jpg","1","1","1","",""
"","feedback","","html-keyboard-response","242","261786","0.0-1.0-321.0-0.0","0","0","50489","","null","","","null","35","","","","","","","","","","","","","","","",""
"","ITI","","html-keyboard-response","243","262788","0.0-1.0-324.0","0","0","50489","","null","","","null","35","","","","","","","","","","","","","","","NaN",""
"","S1","","html-keyboard-response","244","263044","0.0-1.0-326.0","0","0","50489","","null","","","null","36","","","","","","","","","","","","","","","",""
"","ISI","","html-keyboard-response","245","263551","0.0-1.0-327.0","0","0","50489","","null","","","null","36","NaN","","","","","","","","","","","","","","",""
"","S2","","html-keyboard-response","246","263807","0.0-1.0-328.0","0","0","50489","","null","","","null","36","","NaN","","","","","","","","","","","","","",""
"","response","","html-keyboard-response","247","264164","0.0-1.0-329.0-0.0","0","0","50489","","354","","","68","36","","","1","36","training","adjacent","GF","7","6","R.jpg","Q.jpg","0","0","1","",""
"","feedback","","html-keyboard-response","248","265171","0.0-1.0-330.0-0.0","0","0","50489","","null","","","null","36","","","","","","","","","","","","","","","",""
"","ITI","","html-keyboard-response","249","266179","0.0-1.0-333.0","0","0","50489","","null","","","null","36","","","","","","","","","","","","","","","NaN",""
"","S1","","html-keyboard-response","250","266437","0.0-1.0-335.0","0","0","50489","","null","","","null","37","","","","","","","","","","","","","","","",""
"","ISI","","html-keyboard-response","251","266943","0.0-1.0-336.0","0","0","50489","","null","","","null","37","NaN","","","","","","","","","","","","","","",""
"","S2","","html-keyboard-response","252","267039","0.0-1.0-337.0","0","0","50489","","93","","","68","37","","d","1","37","training","adjacent","CD","3","4","O.jpg","N.jpg","0","1","0","",""
"","feedback","","html-keyboard-response","253","268047","0.0-1.0-339.0-0.0","0","0","50489","","null","","","null","37","","","","","","","","","","","","","","","",""
"","time_out","","html-keyboard-response","254","270052","0.0-1.0-341.0-0.0","0","0","50489","","null","","","null","37","","","","","","","","","","","","","","","",""
"","ITI","","html-keyboard-response","255","271059","0.0-1.0-342.0","0","0","50489","","null","","","null","37","","","","","","","","","","","","","","","NaN",""
"","S1","","html-keyboard-response","256","271317","0.0-1.0-344.0","0","0","50489","","null","","","null","38","","","","","","","","","","","","","","","",""
"","ISI","","html-keyboard-response","257","271822","0.0-1.0-345.0","0","0","50489","","null","","","null","38","NaN","","","","","","","","","","","","","","",""
"","S2","","html-keyboard-response","258","271990","0.0-1.0-346.0","0","0","50489","","166","","","75","38","","k","1","38","training","adjacent","BC","2","3","L.jpg","O.jpg","1","1","1","",""
"","feedback","","html-keyboard-response","259","272994","0.0-1.0-348.0-0.0","0","0","50489","","null","","","null","38","","","","","","","","","","","","","","","",""
"","ITI","","html-keyboard-response","260","273998","0.0-1.0-351.0","0","0","50489","","null","","","null","38","","","","","","","","","","","","","","","NaN",""
"","S1","","html-keyboard-response","261","274255","0.0-1.0-353.0","0","0","50489","","null","","","null","39","","","","","","","","","","","","","","","",""
"","ISI","","html-keyboard-response","262","274762","0.0-1.0-354.0","0","0","50489","","null","","","null","39","NaN","","","","","","","","","","","","","","",""
"","S2","","html-keyboard-response","263","275018","0.0-1.0-355.0","0","0","50489","","null","","","null","39","","NaN","","","","","","","","","","","","","",""
"","response","","html-keyboard-response","264","275407","0.0-1.0-356.0-0.0","0","0","50489","","386","","","68","39","","","1","39","training","adjacent","DE","4","5","N.jpg","P.jpg","0","1","0","",""
"","feedback","","html-keyboard-response","265","276412","0.0-1.0-357.0-0.0","0","0","50489","","null","","","null","39","","","","","","","","","","","","","","","",""
"","time_out","","html-keyboard-response","266","278417","0.0-1.0-359.0-0.0","0","0","50489","","null","","","null","39","","","","","","","","","","","","","","","",""
"","ITI","","html-keyboard-response","267","279423","0.0-1.0-360.0","0","0","50489","","null","","","null","39","","","","","","","","","","","","","","","NaN",""
"","S1","","html-keyboard-response","268","279679","0.0-1.0-362.0","0","0","50489","","null","","","null","40","","","","","","","","","","","","","","","",""
"","ISI","","html-keyboard-response","269","280186","0.0-1.0-363.0","0","0","50489","","null","","","null","40","NaN","","","","","","","","","","","","","","",""
"","S2","","html-keyboard-response","270","280441","0.0-1.0-364.0","0","0","50489","","null","","","null","40","","NaN","","","","","","","","","","","","","",""
"","response","","html-keyboard-response","271","281247","0.0-1.0-365.0-0.0","0","0","50489","","804","","","68","40","","","1","40","training","adjacent","GF","7","6","R.jpg","Q.jpg","0","0","1","",""
"","feedback","","html-keyboard-response","272","282255","0.0-1.0-366.0-0.0","0","0","50489","","null","","","null","40","","","","","","","","","","","","","","","",""
"","ITI","","html-keyboard-response","273","283263","0.0-1.0-369.0","0","0","50489","","null","","","null","40","","","","","","","","","","","","","","","NaN",""
"","S1","","html-keyboard-response","274","283519","0.0-1.0-371.0","0","0","50489","","null","","","null","41","","","","","","","","","","","","","","","",""
"","ISI","","html-keyboard-response","275","284026","0.0-1.0-372.0","0","0","50489","","null","","","null","41","NaN","","","","","","","","","","","","","","",""
"","S2","","html-keyboard-response","276","284282","0.0-1.0-373.0","0","0","50489","","null","","","null","41","","NaN","","","","","","","","","","","","","",""
"","response","","html-keyboard-response","277","284792","0.0-1.0-374.0-0.0","0","0","50489","","506","","","68","41","","","1","41","training","adjacent","BA","2","1","L.jpg","M.jpg","0","0","1","",""
"","feedback","","html-keyboard-response","278","285796","0.0-1.0-375.0-0.0","0","0","50489","","null","","","null","41","","","","","","","","","","","","","","","",""
"","ITI","","html-keyboard-response","279","286802","0.0-1.0-378.0","0","0","50489","","null","","","null","41","","","","","","","","","","","","","","","NaN",""
"","S1","","html-keyboard-response","280","287058","0.0-1.0-380.0","0","0","50489","","null","","","null","42","","","","","","","","","","","","","","","",""
"","ISI","","html-keyboard-response","281","287566","0.0-1.0-381.0","0","0","50489","","null","","","null","42","NaN","","","","","","","","","","","","","","",""
"","S2","","html-keyboard-response","282","287823","0.0-1.0-382.0","0","0","50489","","null","","","null","42","","NaN","","","","","","","","","","","","","",""
"","response","","html-keyboard-response","283","288087","0.0-1.0-383.0-0.0","0","0","50489","","261","","","68","42","","","1","42","training","adjacent","ED","5","4","P.jpg","N.jpg","0","0","1","",""
"","feedback","","html-keyboard-response","284","289091","0.0-1.0-384.0-0.0","0","0","50489","","null","","","null","42","","","","","","","","","","","","","","","",""
"","ITI","","html-keyboard-response","285","290094","0.0-1.0-387.0","0","0","50489","","null","","","null","42","","","","","","","","","","","","","","","NaN",""
"","S1","","html-keyboard-response","286","290351","0.0-1.0-389.0","0","0","50489","","null","","","null","43","","","","","","","","","","","","","","","",""
"","ISI","","html-keyboard-response","287","290857","0.0-1.0-390.0","0","0","50489","","null","","","null","43","NaN","","","","","","","","","","","","","","",""
"","S2","","html-keyboard-response","288","291113","0.0-1.0-391.0","0","0","50489","","null","","","null","43","","NaN","","","","","","","","","","","","","",""
"","response","","html-keyboard-response","289","291281","0.0-1.0-392.0-0.0","0","0","50489","","165","","","75","43","","","1","43","training","adjacent","CB","3","2","O.jpg","L.jpg","1","0","0","",""
"","feedback","","html-keyboard-response","290","292288","0.0-1.0-393.0-0.0","0","0","50489","","null","","","null","43","","","","","","","","","","","","","","","",""
"","time_out","","html-keyboard-response","291","294291","0.0-1.0-395.0-0.0","0","0","50489","","null","","","null","43","","","","","","","","","","","","","","","",""
"","ITI","","html-keyboard-response","292","295295","0.0-1.0-396.0","0","0","50489","","null","","","null","43","","","","","","","","","","","","","","","NaN",""
"","S1","","html-keyboard-response","293","295550","0.0-1.0-398.0","0","0","50489","","null","","","null","44","","","","","","","","","","","","","","","",""
"","ISI","","html-keyboard-response","294","296057","0.0-1.0-399.0","0","0","50489","","null","","","null","44","NaN","","","","","","","","","","","","","","",""
"","S2","","html-keyboard-response","295","296312","0.0-1.0-400.0","0","0","50489","","null","","","null","44","","NaN","","","","","","","","","","","","","",""
"","response","","html-keyboard-response","296","297046","0.0-1.0-401.0-0.0","0","0","50489","","731","","","68","44","","","1","44","training","adjacent","BA","2","1","L.jpg","M.jpg","0","0","1","",""
"","feedback","","html-keyboard-response","297","298051","0.0-1.0-402.0-0.0","0","0","50489","","null","","","null","44","","","","","","","","","","","","","","","",""
"","ITI","","html-keyboard-response","298","299058","0.0-1.0-405.0","0","0","50489","","null","","","null","44","","","","","","","","","","","","","","","NaN",""
"","S1","","html-keyboard-response","299","299311","0.0-1.0-407.0","0","0","50489","","null","","","null","45","","","","","","","","","","","","","","","",""
"","ISI","","html-keyboard-response","300","299817","0.0-1.0-408.0","0","0","50489","","null","","","null","45","NaN","","","","","","","","","","","","","","",""
"","S2","","html-keyboard-response","301","300072","0.0-1.0-409.0","0","0","50489","","null","","","null","45","","NaN","","","","","","","","","","","","","",""
"","response","","html-keyboard-response","302","300911","0.0-1.0-410.0-0.0","0","0","50489","","837","","","75","45","","","1","45","training","adjacent","ED","5","4","P.jpg","N.jpg","1","0","0","",""
"","feedback","","html-keyboard-response","303","301918","0.0-1.0-411.0-0.0","0","0","50489","","null","","","null","45","","","","","","","","","","","","","","","",""
"","time_out","","html-keyboard-response","304","303923","0.0-1.0-413.0-0.0","0","0","50489","","null","","","null","45","","","","","","","","","","","","","","","",""
"","ITI","","html-keyboard-response","305","304930","0.0-1.0-414.0","0","0","50489","","null","","","null","45","","","","","","","","","","","","","","","NaN",""
"","S1","","html-keyboard-response","306","305188","0.0-1.0-416.0","0","0","50489","","null","","","null","46","","","","","","","","","","","","","","","",""
"","ISI","","html-keyboard-response","307","305691","0.0-1.0-417.0","0","0","50489","","null","","","null","46","NaN","","","","","","","","","","","","","","",""
"","S2","","html-keyboard-response","308","305945","0.0-1.0-418.0","0","0","50489","","null","","","null","46","","NaN","","","","","","","","","","","","","",""
"","response","","html-keyboard-response","309","306111","0.0-1.0-419.0-0.0","0","0","50489","","164","","","75","46","","","1","46","training","adjacent","FG","6","7","Q.jpg","R.jpg","1","1","1","",""
"","feedback","","html-keyboard-response","310","307118","0.0-1.0-420.0-0.0","0","0","50489","","null","","","null","46","","","","","","","","","","","","","","","",""
"","ITI","","html-keyboard-response","311","308126","0.0-1.0-423.0","0","0","50489","","null","","","null","46","","","","","","","","","","","","","","","NaN",""
"","S1","","html-keyboard-response","312","308382","0.0-1.0-425.0","0","0","50489","","null","","","null","47","","","","","","","","","","","","","","","",""
"","ISI","","html-keyboard-response","313","308888","0.0-1.0-426.0","0","0","50489","","null","","","null","47","NaN","","","","","","","","","","","","","","",""
"","S2","","html-keyboard-response","314","309145","0.0-1.0-427.0","0","0","50489","","null","","","null","47","","NaN","","","","","","","","","","","","","",""
"","response","","html-keyboard-response","315","309680","0.0-1.0-428.0-0.0","0","0","50489","","532","","","68","47","","","1","47","training","adjacent","CB","3","2","O.jpg","L.jpg","0","0","1","",""
"","feedback","","html-keyboard-response","316","310686","0.0-1.0-429.0-0.0","0","0","50489","","null","","","null","47","","","","","","","","","","","","","","","",""
"","ITI","","html-keyboard-response","317","311689","0.0-1.0-432.0","0","0","50489","","null","","","null","47","","","","","","","","","","","","","","","NaN",""
"","block_over","","html-keyboard-response","318","343873","0.0-1.0-433.0-0.0","0","0","50489","","32179","","","32","47","","","","","","","","","","","","","","","",""
"","S1","","html-keyboard-response","319","344131","0.0-1.0-434.0","0","0","50489","","null","","","null","48","","","","","","","","","","","","","","","",""
"","ISI","","html-keyboard-response","320","344637","0.0-1.0-435.0","0","0","50489","","null","","","null","48","NaN","","","","","","","","","","","","","","",""
"","S2","","html-keyboard-response","321","344890","0.0-1.0-436.0","0","0","50489","","null","","","null","48","","NaN","","","","","","","","","","","","","",""
"","response","","html-keyboard-response","322","345053","0.0-1.0-437.0-0.0","0","0","50489","","161","","","75","48","","","2","48","training","adjacent","FE","6","5","Q.jpg","P.jpg","1","0","0","",""
"","feedback","","html-keyboard-response","323","346060","0.0-1.0-438.0-0.0","0","0","50489","","null","","","null","48","","","","","","","","","","","","","","","",""
"","time_out","","html-keyboard-response","324","348066","0.0-1.0-440.0-0.0","0","0","50489","","null","","","null","48","","","","","","","","","","","","","","","",""
"","ITI","","html-keyboard-response","325","349072","0.0-1.0-441.0","0","0","50489","","null","","","null","48","","","","","","","","","","","","","","","NaN",""
"","S1","","html-keyboard-response","326","349329","0.0-1.0-443.0","0","0","50489","","null","","","null","49","","","","","","","","","","","","","","","",""
"","ISI","","html-keyboard-response","327","349836","0.0-1.0-444.0","0","0","50489","","null","","","null","49","NaN","","","","","","","","","","","","","","",""
"","S2","","html-keyboard-response","328","350091","0.0-1.0-445.0","0","0","50489","","null","","","null","49","","NaN","","","","","","","","","","","","","",""
"","response","","html-keyboard-response","329","350640","0.0-1.0-446.0-0.0","0","0","50489","","546","","","75","49","","","2","49","training","adjacent","EF","5","6","P.jpg","Q.jpg","1","1","1","",""
"","feedback","","html-keyboard-response","330","351645","0.0-1.0-447.0-0.0","0","0","50489","","null","","","null","49","","","","","","","","","","","","","","","",""
"","ITI","","html-keyboard-response","331","352652","0.0-1.0-450.0","0","0","50489","","null","","","null","49","","","","","","","","","","","","","","","NaN",""
"","S1","","html-keyboard-response","332","352908","0.0-1.0-452.0","0","0","50489","","null","","","null","50","","","","","","","","","","","","","","","",""
"","ISI","","html-keyboard-response","333","353416","0.0-1.0-453.0","0","0","50489","","null","","","null","50","NaN","","","","","","","","","","","","","","",""
"","S2","","html-keyboard-response","334","353672","0.0-1.0-454.0","0","0","50489","","null","","","null","50","","NaN","","","","","","","","","","","","","",""
"","response","","html-keyboard-response","335","354080","0.0-1.0-455.0-0.0","0","0","50489","","405","","","68","50","","","2","50","training","adjacent","DC","4","3","N.jpg","O.jpg","0","0","1","",""
"","feedback","","html-keyboard-response","336","355085","0.0-1.0-456.0-0.0","0","0","50489","","null","","","null","50","","","","","","","","","","","","","","","",""
"","ITI","","html-keyboard-response","337","356089","0.0-1.0-459.0","0","0","50489","","null","","","null","50","","","","","","","","","","","","","","","NaN",""
"","S1","","html-keyboard-response","338","356344","0.0-1.0-461.0","0","0","50489","","null","","","null","51","","","","","","","","","","","","","","","",""
"","ISI","","html-keyboard-response","339","356851","0.0-1.0-462.0","0","0","50489","","null","","","null","51","NaN","","","","","","","","","","","","","","",""
"","S2","","html-keyboard-response","340","357105","0.0-1.0-463.0","0","0","50489","","null","","","null","51","","NaN","","","","","","","","","","","","","",""
"","response","","html-keyboard-response","341","357338","0.0-1.0-464.0-0.0","0","0","50489","","230","","","68","51","","","2","51","training","adjacent","FG","6","7","Q.jpg","R.jpg","0","1","0","",""
"","feedback","","html-keyboard-response","342","358344","0.0-1.0-465.0-0.0","0","0","50489","","null","","","null","51","","","","","","","","","","","","","","","",""
"","time_out","","html-keyboard-response","343","360349","0.0-1.0-467.0-0.0","0","0","50489","","null","","","null","51","","","","","","","","","","","","","","","",""
"","ITI","","html-keyboard-response","344","361356","0.0-1.0-468.0","0","0","50489","","null","","","null","51","","","","","","","","","","","","","","","NaN",""
"","S1","","html-keyboard-response","345","361613","0.0-1.0-470.0","0","0","50489","","null","","","null","52","","","","","","","","","","","","","","","",""
"","ISI","","html-keyboard-response","346","362120","0.0-1.0-471.0","0","0","50489","","null","","","null","52","NaN","","","","","","","","","","","","","","",""
"","S2","","html-keyboard-response","347","362375","0.0-1.0-472.0","0","0","50489","","null","","","null","52","","NaN","","","","","","","","","","","","","",""
"","response","","html-keyboard-response","348","362439","0.0-1.0-473.0-0.0","0","0","50489","","61","","","75","52","","","2","52","training","adjacent","CD","3","4","O.jpg","N.jpg","1","1","1","",""
"","feedback","","html-keyboard-response","349","363447","0.0-1.0-474.0-0.0","0","0","50489","","null","","","null","52","","","","","","","","","","","","","","","",""
"","ITI","","html-keyboard-response","350","364455","0.0-1.0-477.0","0","0","50489","","null","","","null","52","","","","","","","","","","","","","","","NaN",""
"","S1","","html-keyboard-response","351","364712","0.0-1.0-479.0","0","0","50489","","null","","","null","53","","","","","","","","","","","","","","","",""
"","ISI","","html-keyboard-response","352","365217","0.0-1.0-480.0","0","0","50489","","null","","","null","53","NaN","","","","","","","","","","","","","","",""
"","S2","","html-keyboard-response","353","365474","0.0-1.0-481.0","0","0","50489","","null","","","null","53","","NaN","","","","","","","","","","","","","",""
"","response","","html-keyboard-response","354","365551","0.0-1.0-482.0-0.0","0","0","50489","","74","","","68","53","","","2","53","training","adjacent","FE","6","5","Q.jpg","P.jpg","0","0","1","",""
"","feedback","","html-keyboard-response","355","366557","0.0-1.0-483.0-0.0","0","0","50489","","null","","","null","53","","","","","","","","","","","","","","","",""
"","ITI","","html-keyboard-response","356","367565","0.0-1.0-486.0","0","0","50489","","null","","","null","53","","","","","","","","","","","","","","","NaN",""
"","S1","","html-keyboard-response","357","367821","0.0-1.0-488.0","0","0","50489","","null","","","null","54","","","","","","","","","","","","","","","",""
"","ISI","","html-keyboard-response","358","368327","0.0-1.0-489.0","0","0","50489","","null","","","null","54","NaN","","","","","","","","","","","","","","",""
"","S2","","html-keyboard-response","359","368585","0.0-1.0-490.0","0","0","50489","","null","","","null","54","","NaN","","","","","","","","","","","","","",""
"","response","","html-keyboard-response","360","368948","0.0-1.0-491.0-0.0","0","0","50489","","360","","","75","54","","","2","54","training","adjacent","BA","2","1","L.jpg","M.jpg","1","0","0","",""
"","feedback","","html-keyboard-response","361","369954","0.0-1.0-492.0-0.0","0","0","50489","","null","","","null","54","","","","","","","","","","","","","","","",""
"","time_out","","html-keyboard-response","362","371960","0.0-1.0-494.0-0.0","0","0","50489","","null","","","null","54","","","","","","","","","","","","","","","",""
"","ITI","","html-keyboard-response","363","372968","0.0-1.0-495.0","0","0","50489","","null","","","null","54","","","","","","","","","","","","","","","NaN",""
"","S1","","html-keyboard-response","364","373224","0.0-1.0-497.0","0","0","50489","","null","","","null","55","","","","","","","","","","","","","","","",""
"","ISI","","html-keyboard-response","365","373729","0.0-1.0-498.0","0","0","50489","","null","","","null","55","NaN","","","","","","","","","","","","","","",""
"","S2","","html-keyboard-response","366","373984","0.0-1.0-499.0","0","0","50489","","null","","","null","55","","NaN","","","","","","","","","","","","","",""
"","response","","html-keyboard-response","367","374397","0.0-1.0-500.0-0.0","0","0","50489","","410","","","68","55","","","2","55","training","adjacent","DE","4","5","N.jpg","P.jpg","0","1","0","",""
"","feedback","","html-keyboard-response","368","375403","0.0-1.0-501.0-0.0","0","0","50489","","null","","","null","55","","","","","","","","","","","","","","","",""
"","time_out","","html-keyboard-response","369","377410","0.0-1.0-503.0-0.0","0","0","50489","","null","","","null","55","","","","","","","","","","","","","","","",""
"","ITI","","html-keyboard-response","370","378418","0.0-1.0-504.0","0","0","50489","","null","","","null","55","","","","","","","","","","","","","","","NaN",""
"","S1","","html-keyboard-response","371","378674","0.0-1.0-506.0","0","0","50489","","null","","","null","56","","","","","","","","","","","","","","","",""
"","ISI","","html-keyboard-response","372","379180","0.0-1.0-507.0","0","0","50489","","null","","","null","56","NaN","","","","","","","","","","","","","","",""
"","S2","","html-keyboard-response","373","379435","0.0-1.0-508.0","0","0","50489","","null","","","null","56","","NaN","","","","","","","","","","","","","",""
"","response","","html-keyboard-response","374","379592","0.0-1.0-509.0-0.0","0","0","50489","","154","","","68","56","","","2","56","training","adjacent","BC","2","3","L.jpg","O.jpg","0","1","0","",""
"","feedback","","html-keyboard-response","375","380596","0.0-1.0-510.0-0.0","0","0","50489","","null","","","null","56","","","","","","","","","","","","","","","",""
"","time_out","","html-keyboard-response","376","382603","0.0-1.0-512.0-0.0","0","0","50489","","null","","","null","56","","","","","","","","","","","","","","","",""
"","ITI","","html-keyboard-response","377","383606","0.0-1.0-513.0","0","0","50489","","null","","","null","56","","","","","","","","","","","","","","","NaN",""
"","S1","","html-keyboard-response","378","383863","0.0-1.0-515.0","0","0","50489","","null","","","null","57","","","","","","","","","","","","","","","",""
"","ISI","","html-keyboard-response","379","384370","0.0-1.0-516.0","0","0","50489","","null","","","null","57","NaN","","","","","","","","","","","","","","",""
"","S2","","html-keyboard-response","380","384624","0.0-1.0-517.0","0","0","50489","","null","","","null","57","","NaN","","","","","","","","","","","","","",""
"","response","","html-keyboard-response","381","384939","0.0-1.0-518.0-0.0","0","0","50489","","312","","","75","57","","","2","57","training","adjacent","GF","7","6","R.jpg","Q.jpg","1","0","0","",""
"","feedback","","html-keyboard-response","382","385947","0.0-1.0-519.0-0.0","0","0","50489","","null","","","null","57","","","","","","","","","","","","","","","",""
"","time_out","","html-keyboard-response","383","387954","0.0-1.0-521.0-0.0","0","0","50489","","null","","","null","57","","","","","","","","","","","","","","","",""
"","ITI","","html-keyboard-response","384","388962","0.0-1.0-522.0","0","0","50489","","null","","","null","57","","","","","","","","","","","","","","","NaN",""
"","S1","","html-keyboard-response","385","389218","0.0-1.0-524.0","0","0","50489","","null","","","null","58","","","","","","","","","","","","","","","",""
"","ISI","","html-keyboard-response","386","389725","0.0-1.0-525.0","0","0","50489","","null","","","null","58","NaN","","","","","","","","","","","","","","",""
"","S2","","html-keyboard-response","387","389979","0.0-1.0-526.0","0","0","50489","","null","","","null","58","","NaN","","","","","","","","","","","","","",""
"","response","","html-keyboard-response","388","390151","0.0-1.0-527.0-0.0","0","0","50489","","169","","","75","58","","","2","58","training","adjacent","CD","3","4","O.jpg","N.jpg","1","1","1","",""
"","feedback","","html-keyboard-response","389","391158","0.0-1.0-528.0-0.0","0","0","50489","","null","","","null","58","","","","","","","","","","","","","","","",""
"","ITI","","html-keyboard-response","390","392166","0.0-1.0-531.0","0","0","50489","","null","","","null","58","","","","","","","","","","","","","","","NaN",""
"","S1","","html-keyboard-response","391","392423","0.0-1.0-533.0","0","0","50489","","null","","","null","59","","","","","","","","","","","","","","","",""
"","ISI","","html-keyboard-response","392","392930","0.0-1.0-534.0","0","0","50489","","null","","","null","59","NaN","","","","","","","","","","","","","","",""
"","S2","","html-keyboard-response","393","393185","0.0-1.0-535.0","0","0","50489","","null","","","null","59","","NaN","","","","","","","","","","","","","",""
"","response","","html-keyboard-response","394","393452","0.0-1.0-536.0-0.0","0","0","50489","","264","","","75","59","","","2","59","training","adjacent","ED","5","4","P.jpg","N.jpg","1","0","0","",""
"","feedback","","html-keyboard-response","395","394460","0.0-1.0-537.0-0.0","0","0","50489","","null","","","null","59","","","","","","","","","","","","","","","",""
"","time_out","","html-keyboard-response","396","396466","0.0-1.0-539.0-0.0","0","0","50489","","null","","","null","59","","","","","","","","","","","","","","","",""
"","ITI","","html-keyboard-response","397","397474","0.0-1.0-540.0","0","0","50489","","null","","","null","59","","","","","","","","","","","","","","","NaN",""
"","S1","","html-keyboard-response","398","397729","0.0-1.0-542.0","0","0","50489","","null","","","null","60","","","","","","","","","","","","","","","",""
"","ISI","","html-keyboard-response","399","398236","0.0-1.0-543.0","0","0","50489","","null","","","null","60","NaN","","","","","","","","","","","","","","",""
"","S2","","html-keyboard-response","400","398491","0.0-1.0-544.0","0","0","50489","","null","","","null","60","","NaN","","","","","","","","","","","","","",""
"","response","","html-keyboard-response","401","398542","0.0-1.0-545.0-0.0","0","0","50489","","49","","","75","60","","","2","60","training","adjacent","CD","3","4","O.jpg","N.jpg","1","1","1","",""
"","feedback","","html-keyboard-response","402","399549","0.0-1.0-546.0-0.0","0","0","50489","","null","","","null","60","","","","","","","","","","","","","","","",""
"","ITI","","html-keyboard-response","403","400556","0.0-1.0-549.0","0","0","50489","","null","","","null","60","","","","","","","","","","","","","","","NaN",""
"","S1","","html-keyboard-response","404","400812","0.0-1.0-551.0","0","0","50489","","null","","","null","61","","","","","","","","","","","","","","","",""
"","ISI","","html-keyboard-response","405","401319","0.0-1.0-552.0","0","0","50489","","null","","","null","61","NaN","","","","","","","","","","","","","","",""
"","S2","","html-keyboard-response","406","401575","0.0-1.0-553.0","0","0","50489","","null","","","null","61","","NaN","","","","","","","","","","","","","",""
"","response","","html-keyboard-response","407","401847","0.0-1.0-554.0-0.0","0","0","50489","","269","","","75","61","","","2","61","training","adjacent","GF","7","6","R.jpg","Q.jpg","1","0","0","",""
"","feedback","","html-keyboard-response","408","402855","0.0-1.0-555.0-0.0","0","0","50489","","null","","","null","61","","","","","","","","","","","","","","","",""
"","time_out","","html-keyboard-response","409","404860","0.0-1.0-557.0-0.0","0","0","50489","","null","","","null","61","","","","","","","","","","","","","","","",""
"","ITI","","html-keyboard-response","410","405868","0.0-1.0-558.0","0","0","50489","","null","","","null","61","","","","","","","","","","","","","","","NaN",""
"","S1","","html-keyboard-response","411","406124","0.0-1.0-560.0","0","0","50489","","null","","","null","62","","","","","","","","","","","","","","","",""
"","ISI","","html-keyboard-response","412","406631","0.0-1.0-561.0","0","0","50489","","null","","","null","62","NaN","","","","","","","","","","","","","","",""
"","S2","","html-keyboard-response","413","406866","0.0-1.0-562.0","0","0","50489","","232","","","75","62","","k","2","62","training","adjacent","EF","5","6","P.jpg","Q.jpg","1","1","1","",""
"","feedback","","html-keyboard-response","414","407874","0.0-1.0-564.0-0.0","0","0","50489","","null","","","null","62","","","","","","","","","","","","","","","",""
"","ITI","","html-keyboard-response","415","408881","0.0-1.0-567.0","0","0","50489","","null","","","null","62","","","","","","","","","","","","","","","NaN",""
"","S1","","html-keyboard-response","416","409137","0.0-1.0-569.0","0","0","50489","","null","","","null","63","","","","","","","","","","","","","","","",""
"","ISI","","html-keyboard-response","417","409643","0.0-1.0-570.0","0","0","50489","","null","","","null","63","NaN","","","","","","","","","","","","","","",""
"","S2","","html-keyboard-response","418","409899","0.0-1.0-571.0","0","0","50489","","null","","","null","63","","NaN","","","","","","","","","","","","","",""
"","response","","html-keyboard-response","419","410249","0.0-1.0-572.0-0.0","0","0","50489","","347","","","75","63","","","2","63","training","adjacent","ED","5","4","P.jpg","N.jpg","1","0","0","",""
"","feedback","","html-keyboard-response","420","411257","0.0-1.0-573.0-0.0","0","0","50489","","null","","","null","63","","","","","","","","","","","","","","","",""
"","time_out","","html-keyboard-response","421","413265","0.0-1.0-575.0-0.0","0","0","50489","","null","","","null","63","","","","","","","","","","","","","","","",""
"","ITI","","html-keyboard-response","422","414272","0.0-1.0-576.0","0","0","50489","","null","","","null","63","","","","","","","","","","","","","","","NaN",""
"","S1","","html-keyboard-response","423","414529","0.0-1.0-578.0","0","0","50489","","null","","","null","64","","","","","","","","","","","","","","","",""
"","ISI","","html-keyboard-response","424","415036","0.0-1.0-579.0","0","0","50489","","null","","","null","64","NaN","","","","","","","","","","","","","","",""
"","S2","","html-keyboard-response","425","415128","0.0-1.0-580.0","0","0","50489","","89","","","68","64","","d","2","64","training","adjacent","AB","1","2","M.jpg","L.jpg","0","1","0","",""
"","feedback","","html-keyboard-response","426","416135","0.0-1.0-582.0-0.0","0","0","50489","","null","","","null","64","","","","","","","","","","","","","","","",""
"","time_out","","html-keyboard-response","427","418140","0.0-1.0-584.0-0.0","0","0","50489","","null","","","null","64","","","","","","","","","","","","","","","",""
"","ITI","","html-keyboard-response","428","419148","0.0-1.0-585.0","0","0","50489","","null","","","null","64","","","","","","","","","","","","","","","NaN",""
"","S1","","html-keyboard-response","429","419403","0.0-1.0-587.0","0","0","50489","","null","","","null","65","","","","","","","","","","","","","","","",""
"","ISI","","html-keyboard-response","430","419907","0.0-1.0-588.0","0","0","50489","","null","","","null","65","NaN","","","","","","","","","","","","","","",""
"","S2","","html-keyboard-response","431","420161","0.0-1.0-589.0","0","0","50489","","null","","","null","65","","NaN","","","","","","","","","","","","","",""
"","response","","html-keyboard-response","432","420537","0.0-1.0-590.0-0.0","0","0","50489","","372","","","75","65","","","2","65","training","adjacent","FG","6","7","Q.jpg","R.jpg","1","1","1","",""
"","feedback","","html-keyboard-response","433","421542","0.0-1.0-591.0-0.0","0","0","50489","","null","","","null","65","","","","","","","","","","","","","","","",""
"","ITI","","html-keyboard-response","434","422550","0.0-1.0-594.0","0","0","50489","","null","","","null","65","","","","","","","","","","","","","","","NaN",""
"","S1","","html-keyboard-response","435","422806","0.0-1.0-596.0","0","0","50489","","null","","","null","66","","","","","","","","","","","","","","","",""
"","ISI","","html-keyboard-response","436","423313","0.0-1.0-597.0","0","0","50489","","null","","","null","66","NaN","","","","","","","","","","","","","","",""
"","S2","","html-keyboard-response","437","423568","0.0-1.0-598.0","0","0","50489","","null","","","null","66","","NaN","","","","","","","","","","","","","",""
"","response","","html-keyboard-response","438","423723","0.0-1.0-599.0-0.0","0","0","50489","","152","","","68","66","","","2","66","training","adjacent","DC","4","3","N.jpg","O.jpg","0","0","1","",""
"","feedback","","html-keyboard-response","439","424731","0.0-1.0-600.0-0.0","0","0","50489","","null","","","null","66","","","","","","","","","","","","","","","",""
"","ITI","","html-keyboard-response","440","425739","0.0-1.0-603.0","0","0","50489","","null","","","null","66","","","","","","","","","","","","","","","NaN",""
"","S1","","html-keyboard-response","441","425993","0.0-1.0-605.0","0","0","50489","","null","","","null","67","","","","","","","","","","","","","","","",""
"","ISI","","html-keyboard-response","442","426497","0.0-1.0-606.0","0","0","50489","","null","","","null","67","NaN","","","","","","","","","","","","","","",""
"","S2","","html-keyboard-response","443","426753","0.0-1.0-607.0","0","0","50489","","null","","","null","67","","NaN","","","","","","","","","","","","","",""
"","response","","html-keyboard-response","444","427020","0.0-1.0-608.0-0.0","0","0","50489","","264","","","68","67","","","2","67","training","adjacent","DC","4","3","N.jpg","O.jpg","0","0","1","",""
"","feedback","","html-keyboard-response","445","428027","0.0-1.0-609.0-0.0","0","0","50489","","null","","","null","67","","","","","","","","","","","","","","","",""
"","ITI","","html-keyboard-response","446","429035","0.0-1.0-612.0","0","0","50489","","null","","","null","67","","","","","","","","","","","","","","","NaN",""
"","S1","","html-keyboard-response","447","429289","0.0-1.0-614.0","0","0","50489","","null","","","null","68","","","","","","","","","","","","","","","",""
"","ISI","","html-keyboard-response","448","429793","0.0-1.0-615.0","0","0","50489","","null","","","null","68","NaN","","","","","","","","","","","","","","",""
"","S2","","html-keyboard-response","449","430049","0.0-1.0-616.0","0","0","50489","","null","","","null","68","","NaN","","","","","","","","","","","","","",""
"","response","","html-keyboard-response","450","430822","0.0-1.0-617.0-0.0","0","0","50489","","770","","","68","68","","","2","68","training","adjacent","EF","5","6","P.jpg","Q.jpg","0","1","0","",""
"","feedback","","html-keyboard-response","451","431830","0.0-1.0-618.0-0.0","0","0","50489","","null","","","null","68","","","","","","","","","","","","","","","",""
"","time_out","","html-keyboard-response","452","433836","0.0-1.0-620.0-0.0","0","0","50489","","null","","","null","68","","","","","","","","","","","","","","","",""
"","ITI","","html-keyboard-response","453","434843","0.0-1.0-621.0","0","0","50489","","null","","","null","68","","","","","","","","","","","","","","","NaN",""
"","S1","","html-keyboard-response","454","435099","0.0-1.0-623.0","0","0","50489","","null","","","null","69","","","","","","","","","","","","","","","",""
"","ISI","","html-keyboard-response","455","435606","0.0-1.0-624.0","0","0","50489","","null","","","null","69","NaN","","","","","","","","","","","","","","",""
"","S2","","html-keyboard-response","456","435861","0.0-1.0-625.0","0","0","50489","","null","","","null","69","","NaN","","","","","","","","","","","","","",""
"","response","","html-keyboard-response","457","436487","0.0-1.0-626.0-0.0","0","0","50489","","623","","","75","69","","","2","69","training","adjacent","GF","7","6","R.jpg","Q.jpg","1","0","0","",""
"","feedback","","html-keyboard-response","458","437491","0.0-1.0-627.0-0.0","0","0","50489","","null","","","null","69","","","","","","","","","","","","","","","",""
"","time_out","","html-keyboard-response","459","439497","0.0-1.0-629.0-0.0","0","0","50489","","null","","","null","69","","","","","","","","","","","","","","","",""
"","ITI","","html-keyboard-response","460","440502","0.0-1.0-630.0","0","0","50489","","null","","","null","69","","","","","","","","","","","","","","","NaN",""
"","S1","","html-keyboard-response","461","440758","0.0-1.0-632.0","0","0","50489","","null","","","null","70","","","","","","","","","","","","","","","",""
"","ISI","","html-keyboard-response","462","441264","0.0-1.0-633.0","0","0","50489","","null","","","null","70","NaN","","","","","","","","","","","","","","",""
"","S2","","html-keyboard-response","463","441520","0.0-1.0-634.0","0","0","50489","","null","","","null","70","","NaN","","","","","","","","","","","","","",""
"","response","","html-keyboard-response","464","441851","0.0-1.0-635.0-0.0","0","0","50489","","328","","","75","70","","","2","70","training","adjacent","AB","1","2","M.jpg","L.jpg","1","1","1","",""
"","feedback","","html-keyboard-response","465","442859","0.0-1.0-636.0-0.0","0","0","50489","","null","","","null","70","","","","","","","","","","","","","","","",""
"","ITI","","html-keyboard-response","466","443867","0.0-1.0-639.0","0","0","50489","","null","","","null","70","","","","","","","","","","","","","","","NaN",""
"","S1","","html-keyboard-response","467","444123","0.0-1.0-641.0","0","0","50489","","null","","","null","71","","","","","","","","","","","","","","","",""
"","ISI","","html-keyboard-response","468","444630","0.0-1.0-642.0","0","0","50489","","null","","","null","71","NaN","","","","","","","","","","","","","","",""
"","S2","","html-keyboard-response","469","444886","0.0-1.0-643.0","0","0","50489","","null","","","null","71","","NaN","","","","","","","","","","","","","",""
"","response","","html-keyboard-response","470","445034","0.0-1.0-644.0-0.0","0","0","50489","","145","","","75","71","","","2","71","training","adjacent","FG","6","7","Q.jpg","R.jpg","1","1","1","",""
"","feedback","","html-keyboard-response","471","446041","0.0-1.0-645.0-0.0","0","0","50489","","null","","","null","71","","","","","","","","","","","","","","","",""
"","ITI","","html-keyboard-response","472","447046","0.0-1.0-648.0","0","0","50489","","null","","","null","71","","","","","","","","","","","","","","","NaN",""
"","S1","","html-keyboard-response","473","447302","0.0-1.0-650.0","0","0","50489","","null","","","null","72","","","","","","","","","","","","","","","",""
"","ISI","","html-keyboard-response","474","447808","0.0-1.0-651.0","0","0","50489","","null","","","null","72","NaN","","","","","","","","","","","","","","",""
"","S2","","html-keyboard-response","475","448065","0.0-1.0-652.0","0","0","50489","","null","","","null","72","","NaN","","","","","","","","","","","","","",""
"","response","","html-keyboard-response","476","448319","0.0-1.0-653.0-0.0","0","0","50489","","251","","","68","72","","","2","72","training","adjacent","DE","4","5","N.jpg","P.jpg","0","1","0","",""
"","feedback","","html-keyboard-response","477","449327","0.0-1.0-654.0-0.0","0","0","50489","","null","","","null","72","","","","","","","","","","","","","","","",""
"","time_out","","html-keyboard-response","478","451333","0.0-1.0-656.0-0.0","0","0","50489","","null","","","null","72","","","","","","","","","","","","","","","",""
"","ITI","","html-keyboard-response","479","452340","0.0-1.0-657.0","0","0","50489","","null","","","null","72","","","","","","","","","","","","","","","NaN",""
"","S1","","html-keyboard-response","480","452595","0.0-1.0-659.0","0","0","50489","","null","","","null","73","","","","","","","","","","","","","","","",""
"","ISI","","html-keyboard-response","481","453099","0.0-1.0-660.0","0","0","50489","","null","","","null","73","NaN","","","","","","","","","","","","","","",""
"","S2","","html-keyboard-response","482","453353","0.0-1.0-661.0","0","0","50489","","null","","","null","73","","NaN","","","","","","","","","","","","","",""
"","response","","html-keyboard-response","483","453907","0.0-1.0-662.0-0.0","0","0","50489","","551","","","68","73","","","2","73","training","adjacent","CB","3","2","O.jpg","L.jpg","0","0","1","",""
"","feedback","","html-keyboard-response","484","454916","0.0-1.0-663.0-0.0","0","0","50489","","null","","","null","73","","","","","","","","","","","","","","","",""
"","ITI","","html-keyboard-response","485","455920","0.0-1.0-666.0","0","0","50489","","null","","","null","73","","","","","","","","","","","","","","","NaN",""
"","S1","","html-keyboard-response","486","456176","0.0-1.0-668.0","0","0","50489","","null","","","null","74","","","","","","","","","","","","","","","",""
"","ISI","","html-keyboard-response","487","456683","0.0-1.0-669.0","0","0","50489","","null","","","null","74","NaN","","","","","","","","","","","","","","",""
"","S2","","html-keyboard-response","488","456939","0.0-1.0-670.0","0","0","50489","","null","","","null","74","","NaN","","","","","","","","","","","","","",""
"","response","","html-keyboard-response","489","457603","0.0-1.0-671.0-0.0","0","0","50489","","661","","","75","74","","","2","74","training","adjacent","BC","2","3","L.jpg","O.jpg","1","1","1","",""
"","feedback","","html-keyboard-response","490","458608","0.0-1.0-672.0-0.0","0","0","50489","","null","","","null","74","","","","","","","","","","","","","","","",""
"","ITI","","html-keyboard-response","491","459616","0.0-1.0-675.0","0","0","50489","","null","","","null","74","","","","","","","","","","","","","","","NaN",""
"","S1","","html-keyboard-response","492","459872","0.0-1.0-677.0","0","0","50489","","null","","","null","75","","","","","","","","","","","","","","","",""
"","ISI","","html-keyboard-response","493","460377","0.0-1.0-678.0","0","0","50489","","null","","","null","75","NaN","","","","","","","","","","","","","","",""
"","S2","","html-keyboard-response","494","460635","0.0-1.0-679.0","0","0","50489","","null","","","null","75","","NaN","","","","","","","","","","","","","",""
"","response","","html-keyboard-response","495","460948","0.0-1.0-680.0-0.0","0","0","50489","","310","","","75","75","","","2","75","training","adjacent","ED","5","4","P.jpg","N.jpg","1","0","0","",""
"","feedback","","html-keyboard-response","496","461957","0.0-1.0-681.0-0.0","0","0","50489","","null","","","null","75","","","","","","","","","","","","","","","",""
"","time_out","","html-keyboard-response","497","463963","0.0-1.0-683.0-0.0","0","0","50489","","null","","","null","75","","","","","","","","","","","","","","","",""
"","ITI","","html-keyboard-response","498","464971","0.0-1.0-684.0","0","0","50489","","null","","","null","75","","","","","","","","","","","","","","","NaN",""
"","S1","","html-keyboard-response","499","465227","0.0-1.0-686.0","0","0","50489","","null","","","null","76","","","","","","","","","","","","","","","",""
"","ISI","","html-keyboard-response","500","465733","0.0-1.0-687.0","0","0","50489","","null","","","null","76","NaN","","","","","","","","","","","","","","",""
"","S2","","html-keyboard-response","501","465988","0.0-1.0-688.0","0","0","50489","","null","","","null","76","","NaN","","","","","","","","","","","","","",""
"","response","","html-keyboard-response","502","466476","0.0-1.0-689.0-0.0","0","0","50489","","485","","","68","76","","","2","76","training","adjacent","CD","3","4","O.jpg","N.jpg","0","1","0","",""
"","feedback","","html-keyboard-response","503","467483","0.0-1.0-690.0-0.0","0","0","50489","","null","","","null","76","","","","","","","","","","","","","","","",""
"","time_out","","html-keyboard-response","504","469486","0.0-1.0-692.0-0.0","0","0","50489","","null","","","null","76","","","","","","","","","","","","","","","",""
"","ITI","","html-keyboard-response","505","470490","0.0-1.0-693.0","0","0","50489","","null","","","null","76","","","","","","","","","","","","","","","NaN",""
"","S1","","html-keyboard-response","506","470747","0.0-1.0-695.0","0","0","50489","","null","","","null","77","","","","","","","","","","","","","","","",""
"","ISI","","html-keyboard-response","507","471254","0.0-1.0-696.0","0","0","50489","","null","","","null","77","NaN","","","","","","","","","","","","","","",""
"","S2","","html-keyboard-response","508","471509","0.0-1.0-697.0","0","0","50489","","null","","","null","77","","NaN","","","","","","","","","","","","","",""
"","response","","html-keyboard-response","509","471863","0.0-1.0-698.0-0.0","0","0","50489","","350","","","68","77","","","2","77","training","adjacent","DC","4","3","N.jpg","O.jpg","0","0","1","",""
"","feedback","","html-keyboard-response","510","472869","0.0-1.0-699.0-0.0","0","0","50489","","null","","","null","77","","","","","","","","","","","","","","","",""
"","ITI","","html-keyboard-response","511","473877","0.0-1.0-702.0","0","0","50489","","null","","","null","77","","","","","","","","","","","","","","","NaN",""
"","S1","","html-keyboard-response","512","474133","0.0-1.0-704.0","0","0","50489","","null","","","null","78","","","","","","","","","","","","","","","",""
"","ISI","","html-keyboard-response","513","474640","0.0-1.0-705.0","0","0","50489","","null","","","null","78","NaN","","","","","","","","","","","","","","",""
"","S2","","html-keyboard-response","514","474856","0.0-1.0-706.0","0","0","50489","","213","","","68","78","","d","2","78","training","adjacent","CB","3","2","O.jpg","L.jpg","0","0","1","",""
"","feedback","","html-keyboard-response","515","475861","0.0-1.0-708.0-0.0","0","0","50489","","null","","","null","78","","","","","","","","","","","","","","","",""
"","ITI","","html-keyboard-response","516","476867","0.0-1.0-711.0","0","0","50489","","null","","","null","78","","","","","","","","","","","","","","","NaN",""
"","S1","","html-keyboard-response","517","477125","0.0-1.0-713.0","0","0","50489","","null","","","null","79","","","","","","","","","","","","","","","",""
"","ISI","","html-keyboard-response","518","477631","0.0-1.0-714.0","0","0","50489","","null","","","null","79","NaN","","","","","","","","","","","","","","",""
"","S2","","html-keyboard-response","519","477885","0.0-1.0-715.0","0","0","50489","","null","","","null","79","","NaN","","","","","","","","","","","","","",""
"","response","","html-keyboard-response","520","478393","0.0-1.0-716.0-0.0","0","0","50489","","504","","","68","79","","","2","79","training","adjacent","GF","7","6","R.jpg","Q.jpg","0","0","1","",""
"","feedback","","html-keyboard-response","521","479397","0.0-1.0-717.0-0.0","0","0","50489","","null","","","null","79","","","","","","","","","","","","","","","",""
"","ITI","","html-keyboard-response","522","480405","0.0-1.0-720.0","0","0","50489","","null","","","null","79","","","","","","","","","","","","","","","NaN",""
"","S1","","html-keyboard-response","523","480661","0.0-1.0-722.0","0","0","50489","","null","","","null","80","","","","","","","","","","","","","","","",""
"","ISI","","html-keyboard-response","524","481168","0.0-1.0-723.0","0","0","50489","","null","","","null","80","NaN","","","","","","","","","","","","","","",""
"","S2","","html-keyboard-response","525","481423","0.0-1.0-724.0","0","0","50489","","null","","","null","80","","NaN","","","","","","","","","","","","","",""
"","response","","html-keyboard-response","526","481717","0.0-1.0-725.0-0.0","0","0","50489","","291","","","68","80","","","2","80","training","adjacent","AB","1","2","M.jpg","L.jpg","0","1","0","",""
"","feedback","","html-keyboard-response","527","482725","0.0-1.0-726.0-0.0","0","0","50489","","null","","","null","80","","","","","","","","","","","","","","","",""
"","time_out","","html-keyboard-response","528","484730","0.0-1.0-728.0-0.0","0","0","50489","","null","","","null","80","","","","","","","","","","","","","","","",""
"","ITI","","html-keyboard-response","529","485738","0.0-1.0-729.0","0","0","50489","","null","","","null","80","","","","","","","","","","","","","","","NaN",""
"","S1","","html-keyboard-response","530","485993","0.0-1.0-731.0","0","0","50489","","null","","","null","81","","","","","","","","","","","","","","","",""
"","ISI","","html-keyboard-response","531","486499","0.0-1.0-732.0","0","0","50489","","null","","","null","81","NaN","","","","","","","","","","","","","","",""
"","S2","","html-keyboard-response","532","486754","0.0-1.0-733.0","0","0","50489","","null","","","null","81","","NaN","","","","","","","","","","","","","",""
"","response","","html-keyboard-response","533","486990","0.0-1.0-734.0-0.0","0","0","50489","","233","","","75","81","","","2","81","training","adjacent","BA","2","1","L.jpg","M.jpg","1","0","0","",""
"","feedback","","html-keyboard-response","534","487994","0.0-1.0-735.0-0.0","0","0","50489","","null","","","null","81","","","","","","","","","","","","","","","",""
"","time_out","","html-keyboard-response","535","490000","0.0-1.0-737.0-0.0","0","0","50489","","null","","","null","81","","","","","","","","","","","","","","","",""
"","ITI","","html-keyboard-response","536","491006","0.0-1.0-738.0","0","0","50489","","null","","","null","81","","","","","","","","","","","","","","","NaN",""
"","S1","","html-keyboard-response","537","491264","0.0-1.0-740.0","0","0","50489","","null","","","null","82","","","","","","","","","","","","","","","",""
"","ISI","","html-keyboard-response","538","491770","0.0-1.0-741.0","0","0","50489","","null","","","null","82","NaN","","","","","","","","","","","","","","",""
"","S2","","html-keyboard-response","539","492026","0.0-1.0-742.0","0","0","50489","","null","","","null","82","","NaN","","","","","","","","","","","","","",""
"","response","","html-keyboard-response","540","492693","0.0-1.0-743.0-0.0","0","0","50489","","664","","","68","82","","","2","82","training","adjacent","ED","5","4","P.jpg","N.jpg","0","0","1","",""
"","feedback","","html-keyboard-response","541","493697","0.0-1.0-744.0-0.0","0","0","50489","","null","","","null","82","","","","","","","","","","","","","","","",""
"","ITI","","html-keyboard-response","542","494704","0.0-1.0-747.0","0","0","50489","","null","","","null","82","","","","","","","","","","","","","","","NaN",""
"","S1","","html-keyboard-response","543","494962","0.0-1.0-749.0","0","0","50489","","null","","","null","83","","","","","","","","","","","","","","","",""
"","ISI","","html-keyboard-response","544","495466","0.0-1.0-750.0","0","0","50489","","null","","","null","83","NaN","","","","","","","","","","","","","","",""
"","S2","","html-keyboard-response","545","495545","0.0-1.0-751.0","0","0","50489","","76","","","75","83","","k","2","83","training","adjacent","FG","6","7","Q.jpg","R.jpg","1","1","1","",""
"","feedback","","html-keyboard-response","546","496553","0.0-1.0-753.0-0.0","0","0","50489","","null","","","null","83","","","","","","","","","","","","","","","",""
"","ITI","","html-keyboard-response","547","497561","0.0-1.0-756.0","0","0","50489","","null","","","null","83","","","","","","","","","","","","","","","NaN",""
"","S1","","html-keyboard-response","548","497818","0.0-1.0-758.0","0","0","50489","","null","","","null","84","","","","","","","","","","","","","","","",""
"","ISI","","html-keyboard-response","549","498325","0.0-1.0-759.0","0","0","50489","","null","","","null","84","NaN","","","","","","","","","","","","","","",""
"","S2","","html-keyboard-response","550","498450","0.0-1.0-760.0","0","0","50489","","122","","","75","84","","k","2","84","training","adjacent","CB","3","2","O.jpg","L.jpg","1","0","0","",""
"","feedback","","html-keyboard-response","551","499455","0.0-1.0-762.0-0.0","0","0","50489","","null","","","null","84","","","","","","","","","","","","","","","",""
"","time_out","","html-keyboard-response","552","501461","0.0-1.0-764.0-0.0","0","0","50489","","null","","","null","84","","","","","","","","","","","","","","","",""
"","ITI","","html-keyboard-response","553","502468","0.0-1.0-765.0","0","0","50489","","null","","","null","84","","","","","","","","","","","","","","","NaN",""
"","S1","","html-keyboard-response","554","502725","0.0-1.0-767.0","0","0","50489","","null","","","null","85","","","","","","","","","","","","","","","",""
"","ISI","","html-keyboard-response","555","503231","0.0-1.0-768.0","0","0","50489","","null","","","null","85","NaN","","","","","","","","","","","","","","",""
"","S2","","html-keyboard-response","556","503460","0.0-1.0-769.0","0","0","50489","","226","","","68","85","","d","2","85","training","adjacent","BA","2","1","L.jpg","M.jpg","0","0","1","",""
"","feedback","","html-keyboard-response","557","504468","0.0-1.0-771.0-0.0","0","0","50489","","null","","","null","85","","","","","","","","","","","","","","","",""
"","ITI","","html-keyboard-response","558","505477","0.0-1.0-774.0","0","0","50489","","null","","","null","85","","","","","","","","","","","","","","","NaN",""
"","S1","","html-keyboard-response","559","505732","0.0-1.0-776.0","0","0","50489","","null","","","null","86","","","","","","","","","","","","","","","",""
"","ISI","","html-keyboard-response","560","506239","0.0-1.0-777.0","0","0","50489","","null","","","null","86","NaN","","","","","","","","","","","","","","",""
"","S2","","html-keyboard-response","561","506490","0.0-1.0-778.0","0","0","50489","","248","","","75","86","","k","2","86","training","adjacent","DE","4","5","N.jpg","P.jpg","1","1","1","",""
"","feedback","","html-keyboard-response","562","507496","0.0-1.0-780.0-0.0","0","0","50489","","null","","","null","86","","","","","","","","","","","","","","","",""
"","ITI","","html-keyboard-response","563","508500","0.0-1.0-783.0","0","0","50489","","null","","","null","86","","","","","","","","","","","","","","","NaN",""
"","S1","","html-keyboard-response","564","508756","0.0-1.0-785.0","0","0","50489","","null","","","null","87","","","","","","","","","","","","","","","",""
"","ISI","","html-keyboard-response","565","509263","0.0-1.0-786.0","0","0","50489","","null","","","null","87","NaN","","","","","","","","","","","","","","",""
"","S2","","html-keyboard-response","566","509424","0.0-1.0-787.0","0","0","50489","","157","","","68","87","","d","2","87","training","adjacent","BC","2","3","L.jpg","O.jpg","0","1","0","",""
"","feedback","","html-keyboard-response","567","510431","0.0-1.0-789.0-0.0","0","0","50489","","null","","","null","87","","","","","","","","","","","","","","","",""
"","time_out","","html-keyboard-response","568","512436","0.0-1.0-791.0-0.0","0","0","50489","","null","","","null","87","","","","","","","","","","","","","","","",""
"","ITI","","html-keyboard-response","569","513443","0.0-1.0-792.0","0","0","50489","","null","","","null","87","","","","","","","","","","","","","","","NaN",""
"","S1","","html-keyboard-response","570","513699","0.0-1.0-794.0","0","0","50489","","null","","","null","88","","","","","","","","","","","","","","","",""
"","ISI","","html-keyboard-response","571","514206","0.0-1.0-795.0","0","0","50489","","null","","","null","88","NaN","","","","","","","","","","","","","","",""
"","S2","","html-keyboard-response","572","514382","0.0-1.0-796.0","0","0","50489","","173","","","75","88","","k","2","88","training","adjacent","BC","2","3","L.jpg","O.jpg","1","1","1","",""
"","feedback","","html-keyboard-response","573","515387","0.0-1.0-798.0-0.0","0","0","50489","","null","","","null","88","","","","","","","","","","","","","","","",""
"","ITI","","html-keyboard-response","574","516393","0.0-1.0-801.0","0","0","50489","","null","","","null","88","","","","","","","","","","","","","","","NaN",""
"","S1","","html-keyboard-response","575","516649","0.0-1.0-803.0","0","0","50489","","null","","","null","89","","","","","","","","","","","","","","","",""
"","ISI","","html-keyboard-response","576","517155","0.0-1.0-804.0","0","0","50489","","null","","","null","89","NaN","","","","","","","","","","","","","","",""
"","S2","","html-keyboard-response","577","517412","0.0-1.0-805.0","0","0","50489","","null","","","null","89","","NaN","","","","","","","","","","","","","",""
"","response","","html-keyboard-response","578","517464","0.0-1.0-806.0-0.0","0","0","50489","","49","","","68","89","","","2","89","training","adjacent","CB","3","2","O.jpg","L.jpg","0","0","1","",""
