"success","ttype","start_time","trial_type","trial_index","time_elapsed","internal_node_id","warning","missed_checkup","PID","view_history","rt","responses","repeat_instructions","key_press","index","keypress_isi","keypress_S2","block","trial_num","phase","group_type","pair_type","S1_stim","S2_stim","S1_img","S2_img","S1_chosen","S1_higher","accuracy","keypress_iti","total_bonus_tally"
"true","full_screen","d03032023hr2141","fullscreen","0","16578","0.0-0.0","0","0","14243","","","","","","","","","","","","","","","","","","","","","",""
"","instructions","","instructions","1","52833","0.0-1.0-0.0-0.0","0","0","14243","[{""page_index"":0,""viewing_time"":6699},{""page_index"":1,""viewing_time"":17320},{""page_index"":2,""viewing_time"":10637},{""page_index"":3,""viewing_time"":1596}]","36253","","","","","","","","","","","","","","","","","","","",""
"","comprehension_check","","survey-multi-choice","2","79553","0.0-1.0-0.0-1.0","0","0","14243","","26717","{""Q0"":""True"",""Q1"":""K"",""Q2"":""Only when the screen 'MAKE A CHOICE' is shown"",""Q3"":""Green mark"",""Q4"":""either D or K""}","1","","","","","","","","","","","","","","","","","",""
"","missed_instruction_checkup","","html-keyboard-response","3","81805","0.0-1.0-0.0-2.0-0.0","0","1","14243","","2248","","","32","","","","","","","","","","","","","","","","",""
"","instructions","","instructions","4","106717","0.0-1.0-0.1-0.1","0","0","14243","[{""page_index"":0,""viewing_time"":2201},{""page_index"":1,""viewing_time"":13985},{""page_index"":2,""viewing_time"":7585},{""page_index"":3,""viewing_time"":1139}]","24910","","","","","","","","","","","","","","","","","","","",""
"","comprehension_check","","survey-multi-choice","5","120825","0.0-1.0-0.1-1.1","0","0","14243","","14105","{""Q0"":""True"",""Q1"":""K"",""Q2"":""Once the second image appears and while the screen 'MAKE A CHOICE' is shown"",""Q3"":""Green mark"",""Q4"":""either D or K""}","0","","","","","","","","","","","","","","","","","",""
"","start_exp","","html-keyboard-response","6","123981","0.0-1.0-1.0","0","0","14243","","3152","","","32","","","","","","","","","","","","","","","","",""
"","S1","","html-keyboard-response","7","124236","0.0-1.0-2.0","0","0","14243","","null","","","null","0","","","","","","","","","","","","","","","",""
"","ISI","","html-keyboard-response","8","124742","0.0-1.0-3.0","0","0","14243","","null","","","null","0","NaN","","","","","","","","","","","","","","",""
"","S2","","html-keyboard-response","9","124995","0.0-1.0-4.0","0","0","14243","","null","","","null","0","","NaN","","","","","","","","","","","","","",""
"","response","","html-keyboard-response","10","125521","0.0-1.0-5.0-0.0","0","0","14243","","524","","","75","0","","","1","0","training","adjacent","CD","3","4","R.jpg","P.jpg","1","1","1","",""
"","feedback","","html-keyboard-response","11","126524","0.0-1.0-6.0-0.0","0","0","14243","","null","","","null","0","","","","","","","","","","","","","","","",""
"","ITI","","html-keyboard-response","12","127528","0.0-1.0-9.0","0","0","14243","","null","","","null","0","","","","","","","","","","","","","","","NaN",""
"","S1","","html-keyboard-response","13","127783","0.0-1.0-11.0","0","0","14243","","null","","","null","1","","","","","","","","","","","","","","","",""
"","ISI","","html-keyboard-response","14","128287","0.0-1.0-12.0","0","0","14243","","null","","","null","1","NaN","","","","","","","","","","","","","","",""
"","S2","","html-keyboard-response","15","128541","0.0-1.0-13.0","0","0","14243","","null","","","null","1","","NaN","","","","","","","","","","","","","",""
"","response","","html-keyboard-response","16","129009","0.0-1.0-14.0-0.0","0","0","14243","","466","","","68","1","","","1","1","training","adjacent","ED","5","4","O.jpg","P.jpg","0","0","1","",""
"","feedback","","html-keyboard-response","17","130011","0.0-1.0-15.0-0.0","0","0","14243","","null","","","null","1","","","","","","","","","","","","","","","",""
"","ITI","","html-keyboard-response","18","131013","0.0-1.0-18.0","0","0","14243","","null","","","null","1","","","","","","","","","","","","","","","NaN",""
"","S1","","html-keyboard-response","19","131266","0.0-1.0-20.0","0","0","14243","","null","","","null","2","","","","","","","","","","","","","","","",""
"","ISI","","html-keyboard-response","20","131769","0.0-1.0-21.0","0","0","14243","","null","","","null","2","NaN","","","","","","","","","","","","","","",""
"","S2","","html-keyboard-response","21","132022","0.0-1.0-22.0","0","0","14243","","null","","","null","2","","NaN","","","","","","","","","","","","","",""
"","response","","html-keyboard-response","22","132345","0.0-1.0-23.0-0.0","0","0","14243","","322","","","75","2","","","1","2","training","adjacent","CD","3","4","R.jpg","P.jpg","1","1","1","",""
"","feedback","","html-keyboard-response","23","133348","0.0-1.0-24.0-0.0","0","0","14243","","null","","","null","2","","","","","","","","","","","","","","","",""
"","ITI","","html-keyboard-response","24","134352","0.0-1.0-27.0","0","0","14243","","null","","","null","2","","","","","","","","","","","","","","","NaN",""
"","S1","","html-keyboard-response","25","134607","0.0-1.0-29.0","0","0","14243","","null","","","null","3","","","","","","","","","","","","","","","",""
"","ISI","","html-keyboard-response","26","135122","0.0-1.0-30.0","0","0","14243","","null","","","null","3","NaN","","","","","","","","","","","","","","",""
"","S2","","html-keyboard-response","27","135375","0.0-1.0-31.0","0","0","14243","","null","","","null","3","","NaN","","","","","","","","","","","","","",""
"","response","","html-keyboard-response","28","135761","0.0-1.0-32.0-0.0","0","0","14243","","384","","","68","3","","","1","3","training","adjacent","EF","5","6","O.jpg","L.jpg","0","1","0","",""
"","feedback","","html-keyboard-response","29","136778","0.0-1.0-33.0-0.0","0","0","14243","","null","","","null","3","","","","","","","","","","","","","","","",""
"","time_out","","html-keyboard-response","30","138782","0.0-1.0-35.0-0.0","0","0","14243","","null","","","null","3","","","","","","","","","","","","","","","",""
"","ITI","","html-keyboard-response","31","139786","0.0-1.0-36.0","0","0","14243","","null","","","null","3","","","","","","","","","","","","","","","NaN",""
"","S1","","html-keyboard-response","32","140038","0.0-1.0-38.0","0","0","14243","","null","","","null","4","","","","","","","","","","","","","","","",""
"","ISI","","html-keyboard-response","33","140541","0.0-1.0-39.0","0","0","14243","","null","","","null","4","NaN","","","","","","","","","","","","","","",""
"","S2","","html-keyboard-response","34","140794","0.0-1.0-40.0","0","0","14243","","null","","","null","4","","NaN","","","","","","","","","","","","","",""
"","response","","html-keyboard-response","35","141193","0.0-1.0-41.0-0.0","0","0","14243","","397","","","75","4","","","1","4","training","adjacent","GF","7","6","M.jpg","L.jpg","1","0","0","",""
"","feedback","","html-keyboard-response","36","142195","0.0-1.0-42.0-0.0","0","0","14243","","null","","","null","4","","","","","","","","","","","","","","","",""
"","time_out","","html-keyboard-response","37","144203","0.0-1.0-44.0-0.0","0","0","14243","","null","","","null","4","","","","","","","","","","","","","","","",""
"","ITI","","html-keyboard-response","38","145206","0.0-1.0-45.0","0","0","14243","","null","","","null","4","","","","","","","","","","","","","","","NaN",""
"","S1","","html-keyboard-response","39","145458","0.0-1.0-47.0","0","0","14243","","null","","","null","5","","","","","","","","","","","","","","","",""
"","ISI","","html-keyboard-response","40","145961","0.0-1.0-48.0","0","0","14243","","null","","","null","5","NaN","","","","","","","","","","","","","","",""
"","S2","","html-keyboard-response","41","146214","0.0-1.0-49.0","0","0","14243","","null","","","null","5","","NaN","","","","","","","","","","","","","",""
"","response","","html-keyboard-response","42","146537","0.0-1.0-50.0-0.0","0","0","14243","","321","","","68","5","","","1","5","training","adjacent","BC","2","3","Q.jpg","R.jpg","0","1","0","",""
"","feedback","","html-keyboard-response","43","147539","0.0-1.0-51.0-0.0","0","0","14243","","null","","","null","5","","","","","","","","","","","","","","","",""
"","time_out","","html-keyboard-response","44","149542","0.0-1.0-53.0-0.0","0","0","14243","","null","","","null","5","","","","","","","","","","","","","","","",""
"","ITI","","html-keyboard-response","45","150546","0.0-1.0-54.0","0","0","14243","","null","","","null","5","","","","","","","","","","","","","","","NaN",""
"","S1","","html-keyboard-response","46","150799","0.0-1.0-56.0","0","0","14243","","null","","","null","6","","","","","","","","","","","","","","","",""
"","ISI","","html-keyboard-response","47","151303","0.0-1.0-57.0","0","0","14243","","null","","","null","6","NaN","","","","","","","","","","","","","","",""
"","S2","","html-keyboard-response","48","151556","0.0-1.0-58.0","0","0","14243","","null","","","null","6","","NaN","","","","","","","","","","","","","",""
"","response","","html-keyboard-response","49","151937","0.0-1.0-59.0-0.0","0","0","14243","","380","","","75","6","","","1","6","training","adjacent","BA","2","1","Q.jpg","N.jpg","1","0","0","",""
"","feedback","","html-keyboard-response","50","152940","0.0-1.0-60.0-0.0","0","0","14243","","null","","","null","6","","","","","","","","","","","","","","","",""
"","time_out","","html-keyboard-response","51","154942","0.0-1.0-62.0-0.0","0","0","14243","","null","","","null","6","","","","","","","","","","","","","","","",""
"","ITI","","html-keyboard-response","52","155961","0.0-1.0-63.0","0","0","14243","","null","","","null","6","","","","","","","","","","","","","","","NaN",""
"","S1","","html-keyboard-response","53","156214","0.0-1.0-65.0","0","0","14243","","null","","","null","7","","","","","","","","","","","","","","","",""
"","ISI","","html-keyboard-response","54","156716","0.0-1.0-66.0","0","0","14243","","null","","","null","7","NaN","","","","","","","","","","","","","","",""
"","S2","","html-keyboard-response","55","156970","0.0-1.0-67.0","0","0","14243","","null","","","null","7","","NaN","","","","","","","","","","","","","",""
"","response","","html-keyboard-response","56","157364","0.0-1.0-68.0-0.0","0","0","14243","","391","","","75","7","","","1","7","training","adjacent","BA","2","1","Q.jpg","N.jpg","1","0","0","",""
"","feedback","","html-keyboard-response","57","158369","0.0-1.0-69.0-0.0","0","0","14243","","null","","","null","7","","","","","","","","","","","","","","","",""
"","time_out","","html-keyboard-response","58","160373","0.0-1.0-71.0-0.0","0","0","14243","","null","","","null","7","","","","","","","","","","","","","","","",""
"","ITI","","html-keyboard-response","59","161376","0.0-1.0-72.0","0","0","14243","","null","","","null","7","","","","","","","","","","","","","","","NaN",""
"","S1","","html-keyboard-response","60","161631","0.0-1.0-74.0","0","0","14243","","null","","","null","8","","","","","","","","","","","","","","","",""
"","ISI","","html-keyboard-response","61","162133","0.0-1.0-75.0","0","0","14243","","null","","","null","8","NaN","","","","","","","","","","","","","","",""
"","S2","","html-keyboard-response","62","162386","0.0-1.0-76.0","0","0","14243","","null","","","null","8","","NaN","","","","","","","","","","","","","",""
"","response","","html-keyboard-response","63","162804","0.0-1.0-77.0-0.0","0","0","14243","","415","","","68","8","","","1","8","training","adjacent","EF","5","6","O.jpg","L.jpg","0","1","0","",""
"","feedback","","html-keyboard-response","64","163808","0.0-1.0-78.0-0.0","0","0","14243","","null","","","null","8","","","","","","","","","","","","","","","",""
"","time_out","","html-keyboard-response","65","165810","0.0-1.0-80.0-0.0","0","0","14243","","null","","","null","8","","","","","","","","","","","","","","","",""
"","ITI","","html-keyboard-response","66","166813","0.0-1.0-81.0","0","0","14243","","null","","","null","8","","","","","","","","","","","","","","","NaN",""
"","S1","","html-keyboard-response","67","167067","0.0-1.0-83.0","0","0","14243","","null","","","null","9","","","","","","","","","","","","","","","",""
"","ISI","","html-keyboard-response","68","167584","0.0-1.0-84.0","0","0","14243","","null","","","null","9","NaN","","","","","","","","","","","","","","",""
"","S2","","html-keyboard-response","69","167837","0.0-1.0-85.0","0","0","14243","","null","","","null","9","","NaN","","","","","","","","","","","","","",""
"","response","","html-keyboard-response","70","168428","0.0-1.0-86.0-0.0","0","0","14243","","587","","","75","9","","","1","9","training","adjacent","DC","4","3","P.jpg","R.jpg","1","0","0","",""
"","feedback","","html-keyboard-response","71","169432","0.0-1.0-87.0-0.0","0","0","14243","","null","","","null","9","","","","","","","","","","","","","","","",""
"","time_out","","html-keyboard-response","72","171435","0.0-1.0-89.0-0.0","0","0","14243","","null","","","null","9","","","","","","","","","","","","","","","",""
"","ITI","","html-keyboard-response","73","172439","0.0-1.0-90.0","0","0","14243","","null","","","null","9","","","","","","","","","","","","","","","NaN",""
"","S1","","html-keyboard-response","74","172693","0.0-1.0-92.0","0","0","14243","","null","","","null","10","","","","","","","","","","","","","","","",""
"","ISI","","html-keyboard-response","75","173197","0.0-1.0-93.0","0","0","14243","","null","","","null","10","NaN","","","","","","","","","","","","","","",""
"","S2","","html-keyboard-response","76","173450","0.0-1.0-94.0","0","0","14243","","null","","","null","10","","NaN","","","","","","","","","","","","","",""
"","response","","html-keyboard-response","77","173908","0.0-1.0-95.0-0.0","0","0","14243","","455","","","75","10","","","1","10","training","adjacent","BA","2","1","Q.jpg","N.jpg","1","0","0","",""
"","feedback","","html-keyboard-response","78","174911","0.0-1.0-96.0-0.0","0","0","14243","","null","","","null","10","","","","","","","","","","","","","","","",""
"","time_out","","html-keyboard-response","79","176914","0.0-1.0-98.0-0.0","0","0","14243","","null","","","null","10","","","","","","","","","","","","","","","",""
"","ITI","","html-keyboard-response","80","177918","0.0-1.0-99.0","0","0","14243","","null","","","null","10","","","","","","","","","","","","","","","NaN",""
"","S1","","html-keyboard-response","81","178172","0.0-1.0-101.0","0","0","14243","","null","","","null","11","","","","","","","","","","","","","","","",""
"","ISI","","html-keyboard-response","82","178674","0.0-1.0-102.0","0","0","14243","","null","","","null","11","NaN","","","","","","","","","","","","","","",""
"","S2","","html-keyboard-response","83","178926","0.0-1.0-103.0","0","0","14243","","null","","","null","11","","NaN","","","","","","","","","","","","","",""
"","response","","html-keyboard-response","84","179401","0.0-1.0-104.0-0.0","0","0","14243","","473","","","68","11","","","1","11","training","adjacent","FG","6","7","L.jpg","M.jpg","0","1","0","",""
"","feedback","","html-keyboard-response","85","180403","0.0-1.0-105.0-0.0","0","0","14243","","null","","","null","11","","","","","","","","","","","","","","","",""
"","time_out","","html-keyboard-response","86","182407","0.0-1.0-107.0-0.0","0","0","14243","","null","","","null","11","","","","","","","","","","","","","","","",""
"","ITI","","html-keyboard-response","87","183410","0.0-1.0-108.0","0","0","14243","","null","","","null","11","","","","","","","","","","","","","","","NaN",""
"","S1","","html-keyboard-response","88","183663","0.0-1.0-110.0","0","0","14243","","null","","","null","12","","","","","","","","","","","","","","","",""
"","ISI","","html-keyboard-response","89","184166","0.0-1.0-111.0","0","0","14243","","null","","","null","12","NaN","","","","","","","","","","","","","","",""
"","S2","","html-keyboard-response","90","184428","0.0-1.0-112.0","0","0","14243","","null","","","null","12","","NaN","","","","","","","","","","","","","",""
"","response","","html-keyboard-response","91","184923","0.0-1.0-113.0-0.0","0","0","14243","","493","","","68","12","","","1","12","training","adjacent","GF","7","6","M.jpg","L.jpg","0","0","1","",""
"","feedback","","html-keyboard-response","92","185928","0.0-1.0-114.0-0.0","0","0","14243","","null","","","null","12","","","","","","","","","","","","","","","",""
"","ITI","","html-keyboard-response","93","186932","0.0-1.0-117.0","0","0","14243","","null","","","null","12","","","","","","","","","","","","","","","NaN",""
"","S1","","html-keyboard-response","94","187186","0.0-1.0-119.0","0","0","14243","","null","","","null","13","","","","","","","","","","","","","","","",""
"","ISI","","html-keyboard-response","95","187703","0.0-1.0-120.0","0","0","14243","","null","","","null","13","NaN","","","","","","","","","","","","","","",""
"","S2","","html-keyboard-response","96","187956","0.0-1.0-121.0","0","0","14243","","null","","","null","13","","NaN","","","","","","","","","","","","","",""
"","response","","html-keyboard-response","97","188500","0.0-1.0-122.0-0.0","0","0","14243","","541","","","75","13","","","1","13","training","adjacent","DE","4","5","P.jpg","O.jpg","1","1","1","",""
"","feedback","","html-keyboard-response","98","189503","0.0-1.0-123.0-0.0","0","0","14243","","null","","","null","13","","","","","","","","","","","","","","","",""
"","ITI","","html-keyboard-response","99","190508","0.0-1.0-126.0","0","0","14243","","null","","","null","13","","","","","","","","","","","","","","","NaN",""
"","S1","","html-keyboard-response","100","190760","0.0-1.0-128.0","0","0","14243","","null","","","null","14","","","","","","","","","","","","","","","",""
"","ISI","","html-keyboard-response","101","191264","0.0-1.0-129.0","0","0","14243","","null","","","null","14","NaN","","","","","","","","","","","","","","",""
"","S2","","html-keyboard-response","102","191517","0.0-1.0-130.0","0","0","14243","","null","","","null","14","","NaN","","","","","","","","","","","","","",""
"","response","","html-keyboard-response","103","191924","0.0-1.0-131.0-0.0","0","0","14243","","403","","","75","14","","","1","14","training","adjacent","FG","6","7","L.jpg","M.jpg","1","1","1","",""
"","feedback","","html-keyboard-response","104","192929","0.0-1.0-132.0-0.0","0","0","14243","","null","","","null","14","","","","","","","","","","","","","","","",""
"","ITI","","html-keyboard-response","105","193932","0.0-1.0-135.0","0","0","14243","","null","","","null","14","","","","","","","","","","","","","","","NaN",""
"","S1","","html-keyboard-response","106","194186","0.0-1.0-137.0","0","0","14243","","null","","","null","15","","","","","","","","","","","","","","","",""
"","ISI","","html-keyboard-response","107","194689","0.0-1.0-138.0","0","0","14243","","null","","","null","15","NaN","","","","","","","","","","","","","","",""
"","S2","","html-keyboard-response","108","194944","0.0-1.0-139.0","0","0","14243","","null","","","null","15","","NaN","","","","","","","","","","","","","",""
"","response","","html-keyboard-response","109","195340","0.0-1.0-140.0-0.0","0","0","14243","","393","","","68","15","","","1","15","training","adjacent","CD","3","4","R.jpg","P.jpg","0","1","0","",""
"","feedback","","html-keyboard-response","110","196344","0.0-1.0-141.0-0.0","0","0","14243","","null","","","null","15","","","","","","","","","","","","","","","",""
"","time_out","","html-keyboard-response","111","198349","0.0-1.0-143.0-0.0","0","0","14243","","null","","","null","15","","","","","","","","","","","","","","","",""
"","ITI","","html-keyboard-response","112","199354","0.0-1.0-144.0","0","0","14243","","null","","","null","15","","","","","","","","","","","","","","","NaN",""
"","S1","","html-keyboard-response","113","199607","0.0-1.0-146.0","0","0","14243","","null","","","null","16","","","","","","","","","","","","","","","",""
"","ISI","","html-keyboard-response","114","200109","0.0-1.0-147.0","0","0","14243","","null","","","null","16","NaN","","","","","","","","","","","","","","",""
"","S2","","html-keyboard-response","115","200361","0.0-1.0-148.0","0","0","14243","","null","","","null","16","","NaN","","","","","","","","","","","","","",""
"","response","","html-keyboard-response","116","200804","0.0-1.0-149.0-0.0","0","0","14243","","439","","","75","16","","","1","16","training","adjacent","DE","4","5","P.jpg","O.jpg","1","1","1","",""
"","feedback","","html-keyboard-response","117","201809","0.0-1.0-150.0-0.0","0","0","14243","","null","","","null","16","","","","","","","","","","","","","","","",""
"","ITI","","html-keyboard-response","118","202813","0.0-1.0-153.0","0","0","14243","","null","","","null","16","","","","","","","","","","","","","","","NaN",""
"","S1","","html-keyboard-response","119","203067","0.0-1.0-155.0","0","0","14243","","null","","","null","17","","","","","","","","","","","","","","","",""
"","ISI","","html-keyboard-response","120","203573","0.0-1.0-156.0","0","0","14243","","null","","","null","17","NaN","","","","","","","","","","","","","","",""
"","S2","","html-keyboard-response","121","203825","0.0-1.0-157.0","0","0","14243","","null","","","null","17","","NaN","","","","","","","","","","","","","",""
"","response","","html-keyboard-response","122","204641","0.0-1.0-158.0-0.0","0","0","14243","","815","","","68","17","","","1","17","training","adjacent","CB","3","2","R.jpg","Q.jpg","0","0","1","",""
"","feedback","","html-keyboard-response","123","205643","0.0-1.0-159.0-0.0","0","0","14243","","null","","","null","17","","","","","","","","","","","","","","","",""
"","ITI","","html-keyboard-response","124","206646","0.0-1.0-162.0","0","0","14243","","null","","","null","17","","","","","","","","","","","","","","","NaN",""
"","S1","","html-keyboard-response","125","206899","0.0-1.0-164.0","0","0","14243","","null","","","null","18","","","","","","","","","","","","","","","",""
"","ISI","","html-keyboard-response","126","207400","0.0-1.0-165.0","0","0","14243","","null","","","null","18","NaN","","","","","","","","","","","","","","",""
"","S2","","html-keyboard-response","127","207653","0.0-1.0-166.0","0","0","14243","","null","","","null","18","","NaN","","","","","","","","","","","","","",""
"","response","","html-keyboard-response","128","208298","0.0-1.0-167.0-0.0","0","0","14243","","643","","","75","18","","","1","18","training","adjacent","EF","5","6","O.jpg","L.jpg","1","1","1","",""
"","feedback","","html-keyboard-response","129","209301","0.0-1.0-168.0-0.0","0","0","14243","","null","","","null","18","","","","","","","","","","","","","","","",""
"","ITI","","html-keyboard-response","130","210305","0.0-1.0-171.0","0","0","14243","","null","","","null","18","","","","","","","","","","","","","","","NaN",""
"","S1","","html-keyboard-response","131","210559","0.0-1.0-173.0","0","0","14243","","null","","","null","19","","","","","","","","","","","","","","","",""
"","ISI","","html-keyboard-response","132","211063","0.0-1.0-174.0","0","0","14243","","null","","","null","19","NaN","","","","","","","","","","","","","","",""
"","S2","","html-keyboard-response","133","211316","0.0-1.0-175.0","0","0","14243","","null","","","null","19","","NaN","","","","","","","","","","","","","",""
"","response","","html-keyboard-response","134","211921","0.0-1.0-176.0-0.0","0","0","14243","","604","","","75","19","","","1","19","training","adjacent","DE","4","5","P.jpg","O.jpg","1","1","1","",""
"","feedback","","html-keyboard-response","135","212923","0.0-1.0-177.0-0.0","0","0","14243","","null","","","null","19","","","","","","","","","","","","","","","",""
"","ITI","","html-keyboard-response","136","213926","0.0-1.0-180.0","0","0","14243","","null","","","null","19","","","","","","","","","","","","","","","NaN",""
"","S1","","html-keyboard-response","137","214180","0.0-1.0-182.0","0","0","14243","","null","","","null","20","","","","","","","","","","","","","","","",""
"","ISI","","html-keyboard-response","138","214683","0.0-1.0-183.0","0","0","14243","","null","","","null","20","NaN","","","","","","","","","","","","","","",""
"","S2","","html-keyboard-response","139","214937","0.0-1.0-184.0","0","0","14243","","null","","","null","20","","NaN","","","","","","","","","","","","","",""
"","response","","html-keyboard-response","140","215553","0.0-1.0-185.0-0.0","0","0","14243","","614","","","68","20","","","1","20","training","adjacent","CB","3","2","R.jpg","Q.jpg","0","0","1","",""
"","feedback","","html-keyboard-response","141","216557","0.0-1.0-186.0-0.0","0","0","14243","","null","","","null","20","","","","","","","","","","","","","","","",""
"","ITI","","html-keyboard-response","142","217566","0.0-1.0-189.0","0","0","14243","","null","","","null","20","","","","","","","","","","","","","","","NaN",""
"","S1","","html-keyboard-response","143","217828","0.0-1.0-191.0","0","0","14243","","null","","","null","21","","","","","","","","","","","","","","","",""
"","ISI","","html-keyboard-response","144","218331","0.0-1.0-192.0","0","0","14243","","null","","","null","21","NaN","","","","","","","","","","","","","","",""
"","S2","","html-keyboard-response","145","218583","0.0-1.0-193.0","0","0","14243","","null","","","null","21","","NaN","","","","","","","","","","","","","",""
"","response","","html-keyboard-response","146","219251","0.0-1.0-194.0-0.0","0","0","14243","","666","","","68","21","","","1","21","training","adjacent","EF","5","6","O.jpg","L.jpg","0","1","0","",""
"","feedback","","html-keyboard-response","147","220258","0.0-1.0-195.0-0.0","0","0","14243","","null","","","null","21","","","","","","","","","","","","","","","",""
"","time_out","","html-keyboard-response","148","222261","0.0-1.0-197.0-0.0","0","0","14243","","null","","","null","21","","","","","","","","","","","","","","","",""
"","ITI","","html-keyboard-response","149","223264","0.0-1.0-198.0","0","0","14243","","null","","","null","21","","","","","","","","","","","","","","","NaN",""
"","S1","","html-keyboard-response","150","223517","0.0-1.0-200.0","0","0","14243","","null","","","null","22","","","","","","","","","","","","","","","",""
"","ISI","","html-keyboard-response","151","224019","0.0-1.0-201.0","0","0","14243","","null","","","null","22","NaN","","","","","","","","","","","","","","",""
"","S2","","html-keyboard-response","152","224271","0.0-1.0-202.0","0","0","14243","","null","","","null","22","","NaN","","","","","","","","","","","","","",""
"","response","","html-keyboard-response","153","224819","0.0-1.0-203.0-0.0","0","0","14243","","546","","","68","22","","","1","22","training","adjacent","AB","1","2","N.jpg","Q.jpg","0","1","0","",""
"","feedback","","html-keyboard-response","154","225831","0.0-1.0-204.0-0.0","0","0","14243","","null","","","null","22","","","","","","","","","","","","","","","",""
"","time_out","","html-keyboard-response","155","227834","0.0-1.0-206.0-0.0","0","0","14243","","null","","","null","22","","","","","","","","","","","","","","","",""
"","ITI","","html-keyboard-response","156","228837","0.0-1.0-207.0","0","0","14243","","null","","","null","22","","","","","","","","","","","","","","","NaN",""
"","S1","","html-keyboard-response","157","229100","0.0-1.0-209.0","0","0","14243","","null","","","null","23","","","","","","","","","","","","","","","",""
"","ISI","","html-keyboard-response","158","229604","0.0-1.0-210.0","0","0","14243","","null","","","null","23","NaN","","","","","","","","","","","","","","",""
"","S2","","html-keyboard-response","159","229858","0.0-1.0-211.0","0","0","14243","","null","","","null","23","","NaN","","","","","","","","","","","","","",""
"","response","","html-keyboard-response","160","230540","0.0-1.0-212.0-0.0","0","0","14243","","679","","","68","23","","","1","23","training","adjacent","DC","4","3","P.jpg","R.jpg","0","0","1","",""
"","feedback","","html-keyboard-response","161","231545","0.0-1.0-213.0-0.0","0","0","14243","","null","","","null","23","","","","","","","","","","","","","","","",""
"","ITI","","html-keyboard-response","162","232550","0.0-1.0-216.0","0","0","14243","","null","","","null","23","","","","","","","","","","","","","","","NaN",""
"","S1","","html-keyboard-response","163","232803","0.0-1.0-218.0","0","0","14243","","null","","","null","24","","","","","","","","","","","","","","","",""
"","ISI","","html-keyboard-response","164","233305","0.0-1.0-219.0","0","0","14243","","null","","","null","24","NaN","","","","","","","","","","","","","","",""
"","S2","","html-keyboard-response","165","233558","0.0-1.0-220.0","0","0","14243","","null","","","null","24","","NaN","","","","","","","","","","","","","",""
"","response","","html-keyboard-response","166","233843","0.0-1.0-221.0-0.0","0","0","14243","","283","","","75","24","","","1","24","training","adjacent","ED","5","4","O.jpg","P.jpg","1","0","0","",""
"","feedback","","html-keyboard-response","167","234848","0.0-1.0-222.0-0.0","0","0","14243","","null","","","null","24","","","","","","","","","","","","","","","",""
"","time_out","","html-keyboard-response","168","236852","0.0-1.0-224.0-0.0","0","0","14243","","null","","","null","24","","","","","","","","","","","","","","","",""
"","ITI","","html-keyboard-response","169","237857","0.0-1.0-225.0","0","0","14243","","null","","","null","24","","","","","","","","","","","","","","","NaN",""
"","S1","","html-keyboard-response","170","238110","0.0-1.0-227.0","0","0","14243","","null","","","null","25","","","","","","","","","","","","","","","",""
"","ISI","","html-keyboard-response","171","238612","0.0-1.0-228.0","0","0","14243","","null","","","null","25","NaN","","","","","","","","","","","","","","",""
"","S2","","html-keyboard-response","172","238865","0.0-1.0-229.0","0","0","14243","","null","","","null","25","","NaN","","","","","","","","","","","","","",""
"","response","","html-keyboard-response","173","239771","0.0-1.0-230.0-0.0","0","0","14243","","903","","","75","25","","","1","25","training","adjacent","FE","6","5","L.jpg","O.jpg","1","0","0","",""
"","feedback","","html-keyboard-response","174","240775","0.0-1.0-231.0-0.0","0","0","14243","","null","","","null","25","","","","","","","","","","","","","","","",""
"","time_out","","html-keyboard-response","175","242778","0.0-1.0-233.0-0.0","0","0","14243","","null","","","null","25","","","","","","","","","","","","","","","",""
"","ITI","","html-keyboard-response","176","243783","0.0-1.0-234.0","0","0","14243","","null","","","null","25","","","","","","","","","","","","","","","NaN",""
"","S1","","html-keyboard-response","177","244038","0.0-1.0-236.0","0","0","14243","","null","","","null","26","","","","","","","","","","","","","","","",""
"","ISI","","html-keyboard-response","178","244542","0.0-1.0-237.0","0","0","14243","","null","","","null","26","NaN","","","","","","","","","","","","","","",""
"","S2","","html-keyboard-response","179","244797","0.0-1.0-238.0","0","0","14243","","null","","","null","26","","NaN","","","","","","","","","","","","","",""
"","response","","html-keyboard-response","180","245232","0.0-1.0-239.0-0.0","0","0","14243","","434","","","68","26","","","1","26","training","adjacent","FG","6","7","L.jpg","M.jpg","0","1","0","",""
"","feedback","","html-keyboard-response","181","246241","0.0-1.0-240.0-0.0","0","0","14243","","null","","","null","26","","","","","","","","","","","","","","","",""
"","time_out","","html-keyboard-response","182","248244","0.0-1.0-242.0-0.0","0","0","14243","","null","","","null","26","","","","","","","","","","","","","","","",""
"","ITI","","html-keyboard-response","183","249247","0.0-1.0-243.0","0","0","14243","","null","","","null","26","","","","","","","","","","","","","","","NaN",""
"","S1","","html-keyboard-response","184","249500","0.0-1.0-245.0","0","0","14243","","null","","","null","27","","","","","","","","","","","","","","","",""
"","ISI","","html-keyboard-response","185","250003","0.0-1.0-246.0","0","0","14243","","null","","","null","27","NaN","","","","","","","","","","","","","","",""
"","S2","","html-keyboard-response","186","250257","0.0-1.0-247.0","0","0","14243","","null","","","null","27","","NaN","","","","","","","","","","","","","",""
"","response","","html-keyboard-response","187","250817","0.0-1.0-248.0-0.0","0","0","14243","","558","","","75","27","","","1","27","training","adjacent","BC","2","3","Q.jpg","R.jpg","1","1","1","",""
"","feedback","","html-keyboard-response","188","251820","0.0-1.0-249.0-0.0","0","0","14243","","null","","","null","27","","","","","","","","","","","","","","","",""
"","ITI","","html-keyboard-response","189","252825","0.0-1.0-252.0","0","0","14243","","null","","","null","27","","","","","","","","","","","","","","","NaN",""
"","S1","","html-keyboard-response","190","253087","0.0-1.0-254.0","0","0","14243","","null","","","null","28","","","","","","","","","","","","","","","",""
"","ISI","","html-keyboard-response","191","253591","0.0-1.0-255.0","0","0","14243","","null","","","null","28","NaN","","","","","","","","","","","","","","",""
"","S2","","html-keyboard-response","192","253845","0.0-1.0-256.0","0","0","14243","","null","","","null","28","","NaN","","","","","","","","","","","","","",""
"","response","","html-keyboard-response","193","254523","0.0-1.0-257.0-0.0","0","0","14243","","675","","","68","28","","","1","28","training","adjacent","AB","1","2","N.jpg","Q.jpg","0","1","0","",""
"","feedback","","html-keyboard-response","194","255527","0.0-1.0-258.0-0.0","0","0","14243","","null","","","null","28","","","","","","","","","","","","","","","",""
"","time_out","","html-keyboard-response","195","257540","0.0-1.0-260.0-0.0","0","0","14243","","null","","","null","28","","","","","","","","","","","","","","","",""
"","ITI","","html-keyboard-response","196","258543","0.0-1.0-261.0","0","0","14243","","null","","","null","28","","","","","","","","","","","","","","","NaN",""
"","S1","","html-keyboard-response","197","258797","0.0-1.0-263.0","0","0","14243","","null","","","null","29","","","","","","","","","","","","","","","",""
"","ISI","","html-keyboard-response","198","259300","0.0-1.0-264.0","0","0","14243","","null","","","null","29","NaN","","","","","","","","","","","","","","",""
"","S2","","html-keyboard-response","199","259552","0.0-1.0-265.0","0","0","14243","","null","","","null","29","","NaN","","","","","","","","","","","","","",""
"","response","","html-keyboard-response","200","260049","0.0-1.0-266.0-0.0","0","0","14243","","497","","","68","29","","","1","29","training","adjacent","BC","2","3","Q.jpg","R.jpg","0","1","0","",""
"","feedback","","html-keyboard-response","201","261053","0.0-1.0-267.0-0.0","0","0","14243","","null","","","null","29","","","","","","","","","","","","","","","",""
"","time_out","","html-keyboard-response","202","263057","0.0-1.0-269.0-0.0","0","0","14243","","null","","","null","29","","","","","","","","","","","","","","","",""
"","ITI","","html-keyboard-response","203","264060","0.0-1.0-270.0","0","0","14243","","null","","","null","29","","","","","","","","","","","","","","","NaN",""
"","S1","","html-keyboard-response","204","264315","0.0-1.0-272.0","0","0","14243","","null","","","null","30","","","","","","","","","","","","","","","",""
"","ISI","","html-keyboard-response","205","264817","0.0-1.0-273.0","0","0","14243","","null","","","null","30","NaN","","","","","","","","","","","","","","",""
"","S2","","html-keyboard-response","206","265070","0.0-1.0-274.0","0","0","14243","","null","","","null","30","","NaN","","","","","","","","","","","","","",""
"","response","","html-keyboard-response","207","265873","0.0-1.0-275.0-0.0","0","0","14243","","801","","","75","30","","","1","30","training","adjacent","GF","7","6","M.jpg","L.jpg","1","0","0","",""
"","feedback","","html-keyboard-response","208","266875","0.0-1.0-276.0-0.0","0","0","14243","","null","","","null","30","","","","","","","","","","","","","","","",""
"","time_out","","html-keyboard-response","209","268878","0.0-1.0-278.0-0.0","0","0","14243","","null","","","null","30","","","","","","","","","","","","","","","",""
"","ITI","","html-keyboard-response","210","269882","0.0-1.0-279.0","0","0","14243","","null","","","null","30","","","","","","","","","","","","","","","NaN",""
"","S1","","html-keyboard-response","211","270151","0.0-1.0-281.0","0","0","14243","","null","","","null","31","","","","","","","","","","","","","","","",""
"","ISI","","html-keyboard-response","212","270653","0.0-1.0-282.0","0","0","14243","","null","","","null","31","NaN","","","","","","","","","","","","","","",""
"","S2","","html-keyboard-response","213","270906","0.0-1.0-283.0","0","0","14243","","null","","","null","31","","NaN","","","","","","","","","","","","","",""
"","response","","html-keyboard-response","214","271955","0.0-1.0-284.0-0.0","0","0","14243","","1046","","","68","31","","","1","31","training","adjacent","GF","7","6","M.jpg","L.jpg","0","0","1","",""
"","feedback","","html-keyboard-response","215","272959","0.0-1.0-285.0-0.0","0","0","14243","","null","","","null","31","","","","","","","","","","","","","","","",""
"","ITI","","html-keyboard-response","216","273961","0.0-1.0-288.0","0","0","14243","","null","","","null","31","","","","","","","","","","","","","","","NaN",""
"","S1","","html-keyboard-response","217","274215","0.0-1.0-290.0","0","0","14243","","null","","","null","32","","","","","","","","","","","","","","","",""
"","ISI","","html-keyboard-response","218","274718","0.0-1.0-291.0","0","0","14243","","null","","","null","32","NaN","","","","","","","","","","","","","","",""
"","S2","","html-keyboard-response","219","274971","0.0-1.0-292.0","0","0","14243","","null","","","null","32","","NaN","","","","","","","","","","","","","",""
"","response","","html-keyboard-response","220","275608","0.0-1.0-293.0-0.0","0","0","14243","","635","","","68","32","","","1","32","training","adjacent","AB","1","2","N.jpg","Q.jpg","0","1","0","",""
"","feedback","","html-keyboard-response","221","276610","0.0-1.0-294.0-0.0","0","0","14243","","null","","","null","32","","","","","","","","","","","","","","","",""
"","time_out","","html-keyboard-response","222","278614","0.0-1.0-296.0-0.0","0","0","14243","","null","","","null","32","","","","","","","","","","","","","","","",""
"","ITI","","html-keyboard-response","223","279617","0.0-1.0-297.0","0","0","14243","","null","","","null","32","","","","","","","","","","","","","","","NaN",""
"","S1","","html-keyboard-response","224","279871","0.0-1.0-299.0","0","0","14243","","null","","","null","33","","","","","","","","","","","","","","","",""
"","ISI","","html-keyboard-response","225","280373","0.0-1.0-300.0","0","0","14243","","null","","","null","33","NaN","","","","","","","","","","","","","","",""
"","S2","","html-keyboard-response","226","280625","0.0-1.0-301.0","0","0","14243","","null","","","null","33","","NaN","","","","","","","","","","","","","",""
"","response","","html-keyboard-response","227","280995","0.0-1.0-302.0-0.0","0","0","14243","","367","","","75","33","","","1","33","training","adjacent","DC","4","3","P.jpg","R.jpg","1","0","0","",""
"","feedback","","html-keyboard-response","228","281998","0.0-1.0-303.0-0.0","0","0","14243","","null","","","null","33","","","","","","","","","","","","","","","",""
"","time_out","","html-keyboard-response","229","284000","0.0-1.0-305.0-0.0","0","0","14243","","null","","","null","33","","","","","","","","","","","","","","","",""
"","ITI","","html-keyboard-response","230","285004","0.0-1.0-306.0","0","0","14243","","null","","","null","33","","","","","","","","","","","","","","","NaN",""
"","S1","","html-keyboard-response","231","285258","0.0-1.0-308.0","0","0","14243","","null","","","null","34","","","","","","","","","","","","","","","",""
"","ISI","","html-keyboard-response","232","285761","0.0-1.0-309.0","0","0","14243","","null","","","null","34","NaN","","","","","","","","","","","","","","",""
"","S2","","html-keyboard-response","233","286016","0.0-1.0-310.0","0","0","14243","","null","","","null","34","","NaN","","","","","","","","","","","","","",""
"","response","","html-keyboard-response","234","286561","0.0-1.0-311.0-0.0","0","0","14243","","544","","","75","34","","","1","34","training","adjacent","FE","6","5","L.jpg","O.jpg","1","0","0","",""
"","feedback","","html-keyboard-response","235","287564","0.0-1.0-312.0-0.0","0","0","14243","","null","","","null","34","","","","","","","","","","","","","","","",""
"","time_out","","html-keyboard-response","236","289567","0.0-1.0-314.0-0.0","0","0","14243","","null","","","null","34","","","","","","","","","","","","","","","",""
"","ITI","","html-keyboard-response","237","290569","0.0-1.0-315.0","0","0","14243","","null","","","null","34","","","","","","","","","","","","","","","NaN",""
"","S1","","html-keyboard-response","238","290822","0.0-1.0-317.0","0","0","14243","","null","","","null","35","","","","","","","","","","","","","","","",""
"","ISI","","html-keyboard-response","239","291325","0.0-1.0-318.0","0","0","14243","","null","","","null","35","NaN","","","","","","","","","","","","","","",""
"","S2","","html-keyboard-response","240","291580","0.0-1.0-319.0","0","0","14243","","null","","","null","35","","NaN","","","","","","","","","","","","","",""
"","response","","html-keyboard-response","241","292611","0.0-1.0-320.0-0.0","0","0","14243","","1027","","","68","35","","","1","35","training","adjacent","ED","5","4","O.jpg","P.jpg","0","0","1","",""
"","feedback","","html-keyboard-response","242","293622","0.0-1.0-321.0-0.0","0","0","14243","","null","","","null","35","","","","","","","","","","","","","","","",""
"","ITI","","html-keyboard-response","243","294624","0.0-1.0-324.0","0","0","14243","","null","","","null","35","","","","","","","","","","","","","","","NaN",""
"","S1","","html-keyboard-response","244","294876","0.0-1.0-326.0","0","0","14243","","null","","","null","36","","","","","","","","","","","","","","","",""
"","ISI","","html-keyboard-response","245","295383","0.0-1.0-327.0","0","0","14243","","null","","","null","36","NaN","","","","","","","","","","","","","","",""
"","S2","","html-keyboard-response","246","295637","0.0-1.0-328.0","0","0","14243","","null","","","null","36","","NaN","","","","","","","","","","","","","",""
"","response","","html-keyboard-response","247","296304","0.0-1.0-329.0-0.0","0","0","14243","","665","","","75","36","","","1","36","training","adjacent","AB","1","2","N.jpg","Q.jpg","1","1","1","",""
"","feedback","","html-keyboard-response","248","297306","0.0-1.0-330.0-0.0","0","0","14243","","null","","","null","36","","","","","","","","","","","","","","","",""
"","ITI","","html-keyboard-response","249","298308","0.0-1.0-333.0","0","0","14243","","null","","","null","36","","","","","","","","","","","","","","","NaN",""
"","S1","","html-keyboard-response","250","298561","0.0-1.0-335.0","0","0","14243","","null","","","null","37","","","","","","","","","","","","","","","",""
"","ISI","","html-keyboard-response","251","299065","0.0-1.0-336.0","0","0","14243","","null","","","null","37","NaN","","","","","","","","","","","","","","",""
"","S2","","html-keyboard-response","252","299318","0.0-1.0-337.0","0","0","14243","","null","","","null","37","","NaN","","","","","","","","","","","","","",""
"","response","","html-keyboard-response","253","299747","0.0-1.0-338.0-0.0","0","0","14243","","427","","","75","37","","","1","37","training","adjacent","CB","3","2","R.jpg","Q.jpg","1","0","0","",""
"","feedback","","html-keyboard-response","254","300753","0.0-1.0-339.0-0.0","0","0","14243","","null","","","null","37","","","","","","","","","","","","","","","",""
"","time_out","","html-keyboard-response","255","302757","0.0-1.0-341.0-0.0","0","0","14243","","null","","","null","37","","","","","","","","","","","","","","","",""
"","ITI","","html-keyboard-response","256","303760","0.0-1.0-342.0","0","0","14243","","null","","","null","37","","","","","","","","","","","","","","","NaN",""
"","S1","","html-keyboard-response","257","304014","0.0-1.0-344.0","0","0","14243","","null","","","null","38","","","","","","","","","","","","","","","",""
"","ISI","","html-keyboard-response","258","304517","0.0-1.0-345.0","0","0","14243","","null","","","null","38","NaN","","","","","","","","","","","","","","",""
"","S2","","html-keyboard-response","259","304772","0.0-1.0-346.0","0","0","14243","","null","","","null","38","","NaN","","","","","","","","","","","","","",""
"","response","","html-keyboard-response","260","305147","0.0-1.0-347.0-0.0","0","0","14243","","372","","","75","38","","","1","38","training","adjacent","BC","2","3","Q.jpg","R.jpg","1","1","1","",""
"","feedback","","html-keyboard-response","261","306151","0.0-1.0-348.0-0.0","0","0","14243","","null","","","null","38","","","","","","","","","","","","","","","",""
"","ITI","","html-keyboard-response","262","307156","0.0-1.0-351.0","0","0","14243","","null","","","null","38","","","","","","","","","","","","","","","NaN",""
"","S1","","html-keyboard-response","263","307411","0.0-1.0-353.0","0","0","14243","","null","","","null","39","","","","","","","","","","","","","","","",""
"","ISI","","html-keyboard-response","264","307914","0.0-1.0-354.0","0","0","14243","","null","","","null","39","NaN","","","","","","","","","","","","","","",""
"","S2","","html-keyboard-response","265","308168","0.0-1.0-355.0","0","0","14243","","null","","","null","39","","NaN","","","","","","","","","","","","","",""
"","response","","html-keyboard-response","266","308728","0.0-1.0-356.0-0.0","0","0","14243","","558","","","68","39","","","1","39","training","adjacent","FE","6","5","L.jpg","O.jpg","0","0","1","",""
"","feedback","","html-keyboard-response","267","309730","0.0-1.0-357.0-0.0","0","0","14243","","null","","","null","39","","","","","","","","","","","","","","","",""
"","ITI","","html-keyboard-response","268","310732","0.0-1.0-360.0","0","0","14243","","null","","","null","39","","","","","","","","","","","","","","","NaN",""
"","S1","","html-keyboard-response","269","310985","0.0-1.0-362.0","0","0","14243","","null","","","null","40","","","","","","","","","","","","","","","",""
"","ISI","","html-keyboard-response","270","311489","0.0-1.0-363.0","0","0","14243","","null","","","null","40","NaN","","","","","","","","","","","","","","",""
"","S2","","html-keyboard-response","271","311743","0.0-1.0-364.0","0","0","14243","","null","","","null","40","","NaN","","","","","","","","","","","","","",""
"","response","","html-keyboard-response","272","312066","0.0-1.0-365.0-0.0","0","0","14243","","321","","","68","40","","","1","40","training","adjacent","DE","4","5","P.jpg","O.jpg","0","1","0","",""
"","feedback","","html-keyboard-response","273","313069","0.0-1.0-366.0-0.0","0","0","14243","","null","","","null","40","","","","","","","","","","","","","","","",""
"","time_out","","html-keyboard-response","274","315072","0.0-1.0-368.0-0.0","0","0","14243","","null","","","null","40","","","","","","","","","","","","","","","",""
"","ITI","","html-keyboard-response","275","316077","0.0-1.0-369.0","0","0","14243","","null","","","null","40","","","","","","","","","","","","","","","NaN",""
"","S1","","html-keyboard-response","276","316330","0.0-1.0-371.0","0","0","14243","","null","","","null","41","","","","","","","","","","","","","","","",""
"","ISI","","html-keyboard-response","277","316834","0.0-1.0-372.0","0","0","14243","","null","","","null","41","NaN","","","","","","","","","","","","","","",""
"","S2","","html-keyboard-response","278","317088","0.0-1.0-373.0","0","0","14243","","null","","","null","41","","NaN","","","","","","","","","","","","","",""
"","response","","html-keyboard-response","279","317499","0.0-1.0-374.0-0.0","0","0","14243","","408","","","68","41","","","1","41","training","adjacent","FE","6","5","L.jpg","O.jpg","0","0","1","",""
"","feedback","","html-keyboard-response","280","318502","0.0-1.0-375.0-0.0","0","0","14243","","null","","","null","41","","","","","","","","","","","","","","","",""
"","ITI","","html-keyboard-response","281","319504","0.0-1.0-378.0","0","0","14243","","null","","","null","41","","","","","","","","","","","","","","","NaN",""
"","S1","","html-keyboard-response","282","319757","0.0-1.0-380.0","0","0","14243","","null","","","null","42","","","","","","","","","","","","","","","",""
"","ISI","","html-keyboard-response","283","320260","0.0-1.0-381.0","0","0","14243","","null","","","null","42","NaN","","","","","","","","","","","","","","",""
"","S2","","html-keyboard-response","284","320512","0.0-1.0-382.0","0","0","14243","","null","","","null","42","","NaN","","","","","","","","","","","","","",""
"","response","","html-keyboard-response","285","321060","0.0-1.0-383.0-0.0","0","0","14243","","544","","","75","42","","","1","42","training","adjacent","DC","4","3","P.jpg","R.jpg","1","0","0","",""
"","feedback","","html-keyboard-response","286","322063","0.0-1.0-384.0-0.0","0","0","14243","","null","","","null","42","","","","","","","","","","","","","","","",""
"","time_out","","html-keyboard-response","287","324068","0.0-1.0-386.0-0.0","0","0","14243","","null","","","null","42","","","","","","","","","","","","","","","",""
"","ITI","","html-keyboard-response","288","325072","0.0-1.0-387.0","0","0","14243","","null","","","null","42","","","","","","","","","","","","","","","NaN",""
"","S1","","html-keyboard-response","289","325325","0.0-1.0-389.0","0","0","14243","","null","","","null","43","","","","","","","","","","","","","","","",""
"","ISI","","html-keyboard-response","290","325829","0.0-1.0-390.0","0","0","14243","","null","","","null","43","NaN","","","","","","","","","","","","","","",""
"","S2","","html-keyboard-response","291","326081","0.0-1.0-391.0","0","0","14243","","null","","","null","43","","NaN","","","","","","","","","","","","","",""
"","response","","html-keyboard-response","292","326419","0.0-1.0-392.0-0.0","0","0","14243","","335","","","75","43","","","1","43","training","adjacent","CB","3","2","R.jpg","Q.jpg","1","0","0","",""
"","feedback","","html-keyboard-response","293","327424","0.0-1.0-393.0-0.0","0","0","14243","","null","","","null","43","","","","","","","","","","","","","","","",""
"","time_out","","html-keyboard-response","294","329427","0.0-1.0-395.0-0.0","0","0","14243","","null","","","null","43","","","","","","","","","","","","","","","",""
"","ITI","","html-keyboard-response","295","330429","0.0-1.0-396.0","0","0","14243","","null","","","null","43","","","","","","","","","","","","","","","NaN",""
"","S1","","html-keyboard-response","296","330682","0.0-1.0-398.0","0","0","14243","","null","","","null","44","","","","","","","","","","","","","","","",""
"","ISI","","html-keyboard-response","297","331184","0.0-1.0-399.0","0","0","14243","","null","","","null","44","NaN","","","","","","","","","","","","","","",""
"","S2","","html-keyboard-response","298","331438","0.0-1.0-400.0","0","0","14243","","null","","","null","44","","NaN","","","","","","","","","","","","","",""
"","response","","html-keyboard-response","299","332080","0.0-1.0-401.0-0.0","0","0","14243","","640","","","75","44","","","1","44","training","adjacent","FG","6","7","L.jpg","M.jpg","1","1","1","",""
"","feedback","","html-keyboard-response","300","333085","0.0-1.0-402.0-0.0","0","0","14243","","null","","","null","44","","","","","","","","","","","","","","","",""
"","ITI","","html-keyboard-response","301","334100","0.0-1.0-405.0","0","0","14243","","null","","","null","44","","","","","","","","","","","","","","","NaN",""
"","S1","","html-keyboard-response","302","334354","0.0-1.0-407.0","0","0","14243","","null","","","null","45","","","","","","","","","","","","","","","",""
"","ISI","","html-keyboard-response","303","334856","0.0-1.0-408.0","0","0","14243","","null","","","null","45","NaN","","","","","","","","","","","","","","",""
"","S2","","html-keyboard-response","304","335110","0.0-1.0-409.0","0","0","14243","","null","","","null","45","","NaN","","","","","","","","","","","","","",""
"","response","","html-keyboard-response","305","335472","0.0-1.0-410.0-0.0","0","0","14243","","361","","","75","45","","","1","45","training","adjacent","BA","2","1","Q.jpg","N.jpg","1","0","0","",""
"","feedback","","html-keyboard-response","306","336477","0.0-1.0-411.0-0.0","0","0","14243","","null","","","null","45","","","","","","","","","","","","","","","",""
"","time_out","","html-keyboard-response","307","338481","0.0-1.0-413.0-0.0","0","0","14243","","null","","","null","45","","","","","","","","","","","","","","","",""
"","ITI","","html-keyboard-response","308","339485","0.0-1.0-414.0","0","0","14243","","null","","","null","45","","","","","","","","","","","","","","","NaN",""
"","S1","","html-keyboard-response","309","339743","0.0-1.0-416.0","0","0","14243","","null","","","null","46","","","","","","","","","","","","","","","",""
"","ISI","","html-keyboard-response","310","340247","0.0-1.0-417.0","0","0","14243","","null","","","null","46","NaN","","","","","","","","","","","","","","",""
"","S2","","html-keyboard-response","311","340501","0.0-1.0-418.0","0","0","14243","","null","","","null","46","","NaN","","","","","","","","","","","","","",""
"","response","","html-keyboard-response","312","340978","0.0-1.0-419.0-0.0","0","0","14243","","475","","","68","46","","","1","46","training","adjacent","CD","3","4","R.jpg","P.jpg","0","1","0","",""
"","feedback","","html-keyboard-response","313","341980","0.0-1.0-420.0-0.0","0","0","14243","","null","","","null","46","","","","","","","","","","","","","","","",""
"","time_out","","html-keyboard-response","314","343983","0.0-1.0-422.0-0.0","0","0","14243","","null","","","null","46","","","","","","","","","","","","","","","",""
"","ITI","","html-keyboard-response","315","344986","0.0-1.0-423.0","0","0","14243","","null","","","null","46","","","","","","","","","","","","","","","NaN",""
"","S1","","html-keyboard-response","316","345240","0.0-1.0-425.0","0","0","14243","","null","","","null","47","","","","","","","","","","","","","","","",""
"","ISI","","html-keyboard-response","317","345744","0.0-1.0-426.0","0","0","14243","","null","","","null","47","NaN","","","","","","","","","","","","","","",""
"","S2","","html-keyboard-response","318","345998","0.0-1.0-427.0","0","0","14243","","null","","","null","47","","NaN","","","","","","","","","","","","","",""
"","response","","html-keyboard-response","319","346363","0.0-1.0-428.0-0.0","0","0","14243","","362","","","75","47","","","1","47","training","adjacent","ED","5","4","O.jpg","P.jpg","1","0","0","",""
"","feedback","","html-keyboard-response","320","347368","0.0-1.0-429.0-0.0","0","0","14243","","null","","","null","47","","","","","","","","","","","","","","","",""
"","time_out","","html-keyboard-response","321","349371","0.0-1.0-431.0-0.0","0","0","14243","","null","","","null","47","","","","","","","","","","","","","","","",""
"","ITI","","html-keyboard-response","322","350374","0.0-1.0-432.0","0","0","14243","","null","","","null","47","","","","","","","","","","","","","","","NaN",""
"","block_over","","html-keyboard-response","323","365449","0.0-1.0-433.0-0.0","0","0","14243","","15072","","","32","47","","","","","","","","","","","","","","","",""
"","S1","","html-keyboard-response","324","365702","0.0-1.0-434.0","0","0","14243","","null","","","null","48","","","","","","","","","","","","","","","",""
"","ISI","","html-keyboard-response","325","366220","0.0-1.0-435.0","0","0","14243","","null","","","null","48","NaN","","","","","","","","","","","","","","",""
"","S2","","html-keyboard-response","326","366475","0.0-1.0-436.0","0","0","14243","","null","","","null","48","","NaN","","","","","","","","","","","","","",""
"","response","","html-keyboard-response","327","366908","0.0-1.0-437.0-0.0","0","0","14243","","430","","","75","48","","","2","48","training","adjacent","DC","4","3","P.jpg","R.jpg","1","0","0","",""
"","feedback","","html-keyboard-response","328","367912","0.0-1.0-438.0-0.0","0","0","14243","","null","","","null","48","","","","","","","","","","","","","","","",""
"","time_out","","html-keyboard-response","329","369916","0.0-1.0-440.0-0.0","0","0","14243","","null","","","null","48","","","","","","","","","","","","","","","",""
"","ITI","","html-keyboard-response","330","370920","0.0-1.0-441.0","0","0","14243","","null","","","null","48","","","","","","","","","","","","","","","NaN",""
"","S1","","html-keyboard-response","331","371173","0.0-1.0-443.0","0","0","14243","","null","","","null","49","","","","","","","","","","","","","","","",""
"","ISI","","html-keyboard-response","332","371676","0.0-1.0-444.0","0","0","14243","","null","","","null","49","NaN","","","","","","","","","","","","","","",""
"","S2","","html-keyboard-response","333","371931","0.0-1.0-445.0","0","0","14243","","null","","","null","49","","NaN","","","","","","","","","","","","","",""
"","response","","html-keyboard-response","334","372556","0.0-1.0-446.0-0.0","0","0","14243","","624","","","75","49","","","2","49","training","adjacent","CB","3","2","R.jpg","Q.jpg","1","0","0","",""
"","feedback","","html-keyboard-response","335","373559","0.0-1.0-447.0-0.0","0","0","14243","","null","","","null","49","","","","","","","","","","","","","","","",""
"","time_out","","html-keyboard-response","336","375564","0.0-1.0-449.0-0.0","0","0","14243","","null","","","null","49","","","","","","","","","","","","","","","",""
"","ITI","","html-keyboard-response","337","376567","0.0-1.0-450.0","0","0","14243","","null","","","null","49","","","","","","","","","","","","","","","NaN",""
"","S1","","html-keyboard-response","338","376821","0.0-1.0-452.0","0","0","14243","","null","","","null","50","","","","","","","","","","","","","","","",""
"","ISI","","html-keyboard-response","339","377325","0.0-1.0-453.0","0","0","14243","","null","","","null","50","NaN","","","","","","","","","","","","","","",""
"","S2","","html-keyboard-response","340","377579","0.0-1.0-454.0","0","0","14243","","null","","","null","50","","NaN","","","","","","","","","","","","","",""
"","response","","html-keyboard-response","341","377961","0.0-1.0-455.0-0.0","0","0","14243","","380","","","68","50","","","2","50","training","adjacent","FE","6","5","L.jpg","O.jpg","0","0","1","",""
"","feedback","","html-keyboard-response","342","378964","0.0-1.0-456.0-0.0","0","0","14243","","null","","","null","50","","","","","","","","","","","","","","","",""
"","ITI","","html-keyboard-response","343","379966","0.0-1.0-459.0","0","0","14243","","null","","","null","50","","","","","","","","","","","","","","","NaN",""
"","S1","","html-keyboard-response","344","380220","0.0-1.0-461.0","0","0","14243","","null","","","null","51","","","","","","","","","","","","","","","",""
"","ISI","","html-keyboard-response","345","380723","0.0-1.0-462.0","0","0","14243","","null","","","null","51","NaN","","","","","","","","","","","","","","",""
"","S2","","html-keyboard-response","346","380977","0.0-1.0-463.0","0","0","14243","","null","","","null","51","","NaN","","","","","","","","","","","","","",""
"","response","","html-keyboard-response","347","381292","0.0-1.0-464.0-0.0","0","0","14243","","312","","","68","51","","","2","51","training","adjacent","FE","6","5","L.jpg","O.jpg","0","0","1","",""
"","feedback","","html-keyboard-response","348","382297","0.0-1.0-465.0-0.0","0","0","14243","","null","","","null","51","","","","","","","","","","","","","","","",""
"","ITI","","html-keyboard-response","349","383301","0.0-1.0-468.0","0","0","14243","","null","","","null","51","","","","","","","","","","","","","","","NaN",""
"","S1","","html-keyboard-response","350","383554","0.0-1.0-470.0","0","0","14243","","null","","","null","52","","","","","","","","","","","","","","","",""
"","ISI","","html-keyboard-response","351","384058","0.0-1.0-471.0","0","0","14243","","null","","","null","52","NaN","","","","","","","","","","","","","","",""
"","S2","","html-keyboard-response","352","384312","0.0-1.0-472.0","0","0","14243","","null","","","null","52","","NaN","","","","","","","","","","","","","",""
"","response","","html-keyboard-response","353","384733","0.0-1.0-473.0-0.0","0","0","14243","","418","","","75","52","","","2","52","training","adjacent","DC","4","3","P.jpg","R.jpg","1","0","0","",""
"","feedback","","html-keyboard-response","354","385737","0.0-1.0-474.0-0.0","0","0","14243","","null","","","null","52","","","","","","","","","","","","","","","",""
"","time_out","","html-keyboard-response","355","387740","0.0-1.0-476.0-0.0","0","0","14243","","null","","","null","52","","","","","","","","","","","","","","","",""
"","ITI","","html-keyboard-response","356","388742","0.0-1.0-477.0","0","0","14243","","null","","","null","52","","","","","","","","","","","","","","","NaN",""
"","S1","","html-keyboard-response","357","388995","0.0-1.0-479.0","0","0","14243","","null","","","null","53","","","","","","","","","","","","","","","",""
"","ISI","","html-keyboard-response","358","389498","0.0-1.0-480.0","0","0","14243","","null","","","null","53","NaN","","","","","","","","","","","","","","",""
"","S2","","html-keyboard-response","359","389753","0.0-1.0-481.0","0","0","14243","","null","","","null","53","","NaN","","","","","","","","","","","","","",""
"","response","","html-keyboard-response","360","390156","0.0-1.0-482.0-0.0","0","0","14243","","402","","","68","53","","","2","53","training","adjacent","DE","4","5","P.jpg","O.jpg","0","1","0","",""
"","feedback","","html-keyboard-response","361","391160","0.0-1.0-483.0-0.0","0","0","14243","","null","","","null","53","","","","","","","","","","","","","","","",""
"","time_out","","html-keyboard-response","362","393164","0.0-1.0-485.0-0.0","0","0","14243","","null","","","null","53","","","","","","","","","","","","","","","",""
"","ITI","","html-keyboard-response","363","394167","0.0-1.0-486.0","0","0","14243","","null","","","null","53","","","","","","","","","","","","","","","NaN",""
"","S1","","html-keyboard-response","364","394420","0.0-1.0-488.0","0","0","14243","","null","","","null","54","","","","","","","","","","","","","","","",""
"","ISI","","html-keyboard-response","365","394922","0.0-1.0-489.0","0","0","14243","","null","","","null","54","NaN","","","","","","","","","","","","","","",""
"","S2","","html-keyboard-response","366","395176","0.0-1.0-490.0","0","0","14243","","null","","","null","54","","NaN","","","","","","","","","","","","","",""
"","response","","html-keyboard-response","367","395627","0.0-1.0-491.0-0.0","0","0","14243","","449","","","68","54","","","2","54","training","adjacent","AB","1","2","N.jpg","Q.jpg","0","1","0","",""
"","feedback","","html-keyboard-response","368","396631","0.0-1.0-492.0-0.0","0","0","14243","","null","","","null","54","","","","","","","","","","","","","","","",""
"","time_out","","html-keyboard-response","369","398634","0.0-1.0-494.0-0.0","0","0","14243","","null","","","null","54","","","","","","","","","","","","","","","",""
"","ITI","","html-keyboard-response","370","399636","0.0-1.0-495.0","0","0","14243","","null","","","null","54","","","","","","","","","","","","","","","NaN",""
"","S1","","html-keyboard-response","371","399889","0.0-1.0-497.0","0","0","14243","","null","","","null","55","","","","","","","","","","","","","","","",""
"","ISI","","html-keyboard-response","372","400391","0.0-1.0-498.0","0","0","14243","","null","","","null","55","NaN","","","","","","","","","","","","","","",""
"","S2","","html-keyboard-response","373","400644","0.0-1.0-499.0","0","0","14243","","null","","","null","55","","NaN","","","","","","","","","","","","","",""
"","response","","html-keyboard-response","374","401004","0.0-1.0-500.0-0.0","0","0","14243","","358","","","75","55","","","2","55","training","adjacent","BA","2","1","Q.jpg","N.jpg","1","0","0","",""
"","feedback","","html-keyboard-response","375","402009","0.0-1.0-501.0-0.0","0","0","14243","","null","","","null","55","","","","","","","","","","","","","","","",""
"","time_out","","html-keyboard-response","376","404013","0.0-1.0-503.0-0.0","0","0","14243","","null","","","null","55","","","","","","","","","","","","","","","",""
"","ITI","","html-keyboard-response","377","405016","0.0-1.0-504.0","0","0","14243","","null","","","null","55","","","","","","","","","","","","","","","NaN",""
"","S1","","html-keyboard-response","378","405285","0.0-1.0-506.0","0","0","14243","","null","","","null","56","","","","","","","","","","","","","","","",""
"","ISI","","html-keyboard-response","379","405788","0.0-1.0-507.0","0","0","14243","","null","","","null","56","NaN","","","","","","","","","","","","","","",""
"","S2","","html-keyboard-response","380","406039","0.0-1.0-508.0","0","0","14243","","null","","","null","56","","NaN","","","","","","","","","","","","","",""
"","response","","html-keyboard-response","381","406364","0.0-1.0-509.0-0.0","0","0","14243","","321","","","68","56","","","2","56","training","adjacent","FE","6","5","L.jpg","O.jpg","0","0","1","",""
"","feedback","","html-keyboard-response","382","407372","0.0-1.0-510.0-0.0","0","0","14243","","null","","","null","56","","","","","","","","","","","","","","","",""
"","ITI","","html-keyboard-response","383","408375","0.0-1.0-513.0","0","0","14243","","null","","","null","56","","","","","","","","","","","","","","","NaN",""
"","S1","","html-keyboard-response","384","408628","0.0-1.0-515.0","0","0","14243","","null","","","null","57","","","","","","","","","","","","","","","",""
"","ISI","","html-keyboard-response","385","409132","0.0-1.0-516.0","0","0","14243","","null","","","null","57","NaN","","","","","","","","","","","","","","",""
"","S2","","html-keyboard-response","386","409387","0.0-1.0-517.0","0","0","14243","","null","","","null","57","","NaN","","","","","","","","","","","","","",""
"","response","","html-keyboard-response","387","409961","0.0-1.0-518.0-0.0","0","0","14243","","572","","","75","57","","","2","57","training","adjacent","BA","2","1","Q.jpg","N.jpg","1","0","0","",""
"","feedback","","html-keyboard-response","388","410963","0.0-1.0-519.0-0.0","0","0","14243","","null","","","null","57","","","","","","","","","","","","","","","",""
"","time_out","","html-keyboard-response","389","412966","0.0-1.0-521.0-0.0","0","0","14243","","null","","","null","57","","","","","","","","","","","","","","","",""
"","ITI","","html-keyboard-response","390","413971","0.0-1.0-522.0","0","0","14243","","null","","","null","57","","","","","","","","","","","","","","","NaN",""
"","S1","","html-keyboard-response","391","414225","0.0-1.0-524.0","0","0","14243","","null","","","null","58","","","","","","","","","","","","","","","",""
"","ISI","","html-keyboard-response","392","414730","0.0-1.0-525.0","0","0","14243","","null","","","null","58","NaN","","","","","","","","","","","","","","",""
"","S2","","html-keyboard-response","393","414983","0.0-1.0-526.0","0","0","14243","","null","","","null","58","","NaN","","","","","","","","","","","","","",""
"","response","","html-keyboard-response","394","415236","0.0-1.0-527.0-0.0","0","0","14243","","249","","","68","58","","","2","58","training","adjacent","FE","6","5","L.jpg","O.jpg","0","0","1","",""
"","feedback","","html-keyboard-response","395","416240","0.0-1.0-528.0-0.0","0","0","14243","","null","","","null","58","","","","","","","","","","","","","","","",""
"","ITI","","html-keyboard-response","396","417243","0.0-1.0-531.0","0","0","14243","","null","","","null","58","","","","","","","","","","","","","","","NaN",""
"","S1","","html-keyboard-response","397","417495","0.0-1.0-533.0","0","0","14243","","null","","","null","59","","","","","","","","","","","","","","","",""
"","ISI","","html-keyboard-response","398","417998","0.0-1.0-534.0","0","0","14243","","null","","","null","59","NaN","","","","","","","","","","","","","","",""
"","S2","","html-keyboard-response","399","418252","0.0-1.0-535.0","0","0","14243","","null","","","null","59","","NaN","","","","","","","","","","","","","",""
"","response","","html-keyboard-response","400","418803","0.0-1.0-536.0-0.0","0","0","14243","","548","","","68","59","","","2","59","training","adjacent","GF","7","6","M.jpg","L.jpg","0","0","1","",""
"","feedback","","html-keyboard-response","401","419808","0.0-1.0-537.0-0.0","0","0","14243","","null","","","null","59","","","","","","","","","","","","","","","",""
"","ITI","","html-keyboard-response","402","420812","0.0-1.0-540.0","0","0","14243","","null","","","null","59","","","","","","","","","","","","","","","NaN",""
"","S1","","html-keyboard-response","403","421067","0.0-1.0-542.0","0","0","14243","","null","","","null","60","","","","","","","","","","","","","","","",""
"","ISI","","html-keyboard-response","404","421570","0.0-1.0-543.0","0","0","14243","","null","","","null","60","NaN","","","","","","","","","","","","","","",""
"","S2","","html-keyboard-response","405","421823","0.0-1.0-544.0","0","0","14243","","null","","","null","60","","NaN","","","","","","","","","","","","","",""
"","response","","html-keyboard-response","406","422308","0.0-1.0-545.0-0.0","0","0","14243","","481","","","68","60","","","2","60","training","adjacent","CD","3","4","R.jpg","P.jpg","0","1","0","",""
"","feedback","","html-keyboard-response","407","423311","0.0-1.0-546.0-0.0","0","0","14243","","null","","","null","60","","","","","","","","","","","","","","","",""
"","time_out","","html-keyboard-response","408","425314","0.0-1.0-548.0-0.0","0","0","14243","","null","","","null","60","","","","","","","","","","","","","","","",""
"","ITI","","html-keyboard-response","409","426317","0.0-1.0-549.0","0","0","14243","","null","","","null","60","","","","","","","","","","","","","","","NaN",""
"","S1","","html-keyboard-response","410","426571","0.0-1.0-551.0","0","0","14243","","null","","","null","61","","","","","","","","","","","","","","","",""
"","ISI","","html-keyboard-response","411","427074","0.0-1.0-552.0","0","0","14243","","null","","","null","61","NaN","","","","","","","","","","","","","","",""
"","S2","","html-keyboard-response","412","427329","0.0-1.0-553.0","0","0","14243","","null","","","null","61","","NaN","","","","","","","","","","","","","",""
"","response","","html-keyboard-response","413","428539","0.0-1.0-554.0-0.0","0","0","14243","","1208","","","75","61","","","2","61","training","adjacent","ED","5","4","O.jpg","P.jpg","1","0","0","",""
"","feedback","","html-keyboard-response","414","429556","0.0-1.0-555.0-0.0","0","0","14243","","null","","","null","61","","","","","","","","","","","","","","","",""
"","time_out","","html-keyboard-response","415","431566","0.0-1.0-557.0-0.0","0","0","14243","","null","","","null","61","","","","","","","","","","","","","","","",""
"","ITI","","html-keyboard-response","416","432568","0.0-1.0-558.0","0","0","14243","","null","","","null","61","","","","","","","","","","","","","","","NaN",""
"","S1","","html-keyboard-response","417","432821","0.0-1.0-560.0","0","0","14243","","null","","","null","62","","","","","","","","","","","","","","","",""
"","ISI","","html-keyboard-response","418","433324","0.0-1.0-561.0","0","0","14243","","null","","","null","62","NaN","","","","","","","","","","","","","","",""
"","S2","","html-keyboard-response","419","433578","0.0-1.0-562.0","0","0","14243","","null","","","null","62","","NaN","","","","","","","","","","","","","",""
"","response","","html-keyboard-response","420","434123","0.0-1.0-563.0-0.0","0","0","14243","","542","","","75","62","","","2","62","training","adjacent","BC","2","3","Q.jpg","R.jpg","1","1","1","",""
"","feedback","","html-keyboard-response","421","435128","0.0-1.0-564.0-0.0","0","0","14243","","null","","","null","62","","","","","","","","","","","","","","","",""
"","ITI","","html-keyboard-response","422","436132","0.0-1.0-567.0","0","0","14243","","null","","","null","62","","","","","","","","","","","","","","","NaN",""
"","S1","","html-keyboard-response","423","436387","0.0-1.0-569.0","0","0","14243","","null","","","null","63","","","","","","","","","","","","","","","",""
"","ISI","","html-keyboard-response","424","436890","0.0-1.0-570.0","0","0","14243","","null","","","null","63","NaN","","","","","","","","","","","","","","",""
"","S2","","html-keyboard-response","425","437146","0.0-1.0-571.0","0","0","14243","","null","","","null","63","","NaN","","","","","","","","","","","","","",""
"","response","","html-keyboard-response","426","437640","0.0-1.0-572.0-0.0","0","0","14243","","492","","","75","63","","","2","63","training","adjacent","CD","3","4","R.jpg","P.jpg","1","1","1","",""
"","feedback","","html-keyboard-response","427","438643","0.0-1.0-573.0-0.0","0","0","14243","","null","","","null","63","","","","","","","","","","","","","","","",""
"","ITI","","html-keyboard-response","428","439646","0.0-1.0-576.0","0","0","14243","","null","","","null","63","","","","","","","","","","","","","","","NaN",""
"","S1","","html-keyboard-response","429","439899","0.0-1.0-578.0","0","0","14243","","null","","","null","64","","","","","","","","","","","","","","","",""
"","ISI","","html-keyboard-response","430","440402","0.0-1.0-579.0","0","0","14243","","null","","","null","64","NaN","","","","","","","","","","","","","","",""
"","S2","","html-keyboard-response","431","440656","0.0-1.0-580.0","0","0","14243","","null","","","null","64","","NaN","","","","","","","","","","","","","",""
"","response","","html-keyboard-response","432","441329","0.0-1.0-581.0-0.0","0","0","14243","","672","","","68","64","","","2","64","training","adjacent","CB","3","2","R.jpg","Q.jpg","0","0","1","",""
"","feedback","","html-keyboard-response","433","442330","0.0-1.0-582.0-0.0","0","0","14243","","null","","","null","64","","","","","","","","","","","","","","","",""
"","ITI","","html-keyboard-response","434","443334","0.0-1.0-585.0","0","0","14243","","null","","","null","64","","","","","","","","","","","","","","","NaN",""
"","S1","","html-keyboard-response","435","443588","0.0-1.0-587.0","0","0","14243","","null","","","null","65","","","","","","","","","","","","","","","",""
"","ISI","","html-keyboard-response","436","444092","0.0-1.0-588.0","0","0","14243","","null","","","null","65","NaN","","","","","","","","","","","","","","",""
"","S2","","html-keyboard-response","437","444346","0.0-1.0-589.0","0","0","14243","","null","","","null","65","","NaN","","","","","","","","","","","","","",""
"","response","","html-keyboard-response","438","444937","0.0-1.0-590.0-0.0","0","0","14243","","589","","","75","65","","","2","65","training","adjacent","CD","3","4","R.jpg","P.jpg","1","1","1","",""
"","feedback","","html-keyboard-response","439","445939","0.0-1.0-591.0-0.0","0","0","14243","","null","","","null","65","","","","","","","","","","","","","","","",""
"","ITI","","html-keyboard-response","440","446942","0.0-1.0-594.0","0","0","14243","","null","","","null","65","","","","","","","","","","","","","","","NaN",""
"","S1","","html-keyboard-response","441","447197","0.0-1.0-596.0","0","0","14243","","null","","","null","66","","","","","","","","","","","","","","","",""
"","ISI","","html-keyboard-response","442","447701","0.0-1.0-597.0","0","0","14243","","null","","","null","66","NaN","","","","","","","","","","","","","","",""
"","S2","","html-keyboard-response","443","447954","0.0-1.0-598.0","0","0","14243","","null","","","null","66","","NaN","","","","","","","","","","","","","",""
"","response","","html-keyboard-response","444","448577","0.0-1.0-599.0-0.0","0","0","14243","","621","","","75","66","","","2","66","training","adjacent","EF","5","6","O.jpg","L.jpg","1","1","1","",""
"","feedback","","html-keyboard-response","445","449579","0.0-1.0-600.0-0.0","0","0","14243","","null","","","null","66","","","","","","","","","","","","","","","",""
"","ITI","","html-keyboard-response","446","450582","0.0-1.0-603.0","0","0","14243","","null","","","null","66","","","","","","","","","","","","","","","NaN",""
"","S1","","html-keyboard-response","447","450837","0.0-1.0-605.0","0","0","14243","","null","","","null","67","","","","","","","","","","","","","","","",""
"","ISI","","html-keyboard-response","448","451341","0.0-1.0-606.0","0","0","14243","","null","","","null","67","NaN","","","","","","","","","","","","","","",""
"","S2","","html-keyboard-response","449","451594","0.0-1.0-607.0","0","0","14243","","null","","","null","67","","NaN","","","","","","","","","","","","","",""
"","response","","html-keyboard-response","450","452065","0.0-1.0-608.0-0.0","0","0","14243","","469","","","75","67","","","2","67","training","adjacent","ED","5","4","O.jpg","P.jpg","1","0","0","",""
"","feedback","","html-keyboard-response","451","453067","0.0-1.0-609.0-0.0","0","0","14243","","null","","","null","67","","","","","","","","","","","","","","","",""
"","time_out","","html-keyboard-response","452","455070","0.0-1.0-611.0-0.0","0","0","14243","","null","","","null","67","","","","","","","","","","","","","","","",""
"","ITI","","html-keyboard-response","453","456074","0.0-1.0-612.0","0","0","14243","","null","","","null","67","","","","","","","","","","","","","","","NaN",""
"","S1","","html-keyboard-response","454","456328","0.0-1.0-614.0","0","0","14243","","null","","","null","68","","","","","","","","","","","","","","","",""
"","ISI","","html-keyboard-response","455","456833","0.0-1.0-615.0","0","0","14243","","null","","","null","68","NaN","","","","","","","","","","","","","","",""
"","S2","","html-keyboard-response","456","457088","0.0-1.0-616.0","0","0","14243","","null","","","null","68","","NaN","","","","","","","","","","","","","",""
"","response","","html-keyboard-response","457","457675","0.0-1.0-617.0-0.0","0","0","14243","","583","","","68","68","","","2","68","training","adjacent","ED","5","4","O.jpg","P.jpg","0","0","1","",""
"","feedback","","html-keyboard-response","458","458679","0.0-1.0-618.0-0.0","0","0","14243","","null","","","null","68","","","","","","","","","","","","","","","",""
"","ITI","","html-keyboard-response","459","459682","0.0-1.0-621.0","0","0","14243","","null","","","null","68","","","","","","","","","","","","","","","NaN",""
"","S1","","html-keyboard-response","460","459935","0.0-1.0-623.0","0","0","14243","","null","","","null","69","","","","","","","","","","","","","","","",""
"","ISI","","html-keyboard-response","461","460440","0.0-1.0-624.0","0","0","14243","","null","","","null","69","NaN","","","","","","","","","","","","","","",""
"","S2","","html-keyboard-response","462","460695","0.0-1.0-625.0","0","0","14243","","null","","","null","69","","NaN","","","","","","","","","","","","","",""
"","response","","html-keyboard-response","463","461123","0.0-1.0-626.0-0.0","0","0","14243","","425","","","75","69","","","2","69","training","adjacent","FG","6","7","L.jpg","M.jpg","1","1","1","",""
"","feedback","","html-keyboard-response","464","462128","0.0-1.0-627.0-0.0","0","0","14243","","null","","","null","69","","","","","","","","","","","","","","","",""
"","ITI","","html-keyboard-response","465","463131","0.0-1.0-630.0","0","0","14243","","null","","","null","69","","","","","","","","","","","","","","","NaN",""
"","S1","","html-keyboard-response","466","463384","0.0-1.0-632.0","0","0","14243","","null","","","null","70","","","","","","","","","","","","","","","",""
"","ISI","","html-keyboard-response","467","463893","0.0-1.0-633.0","0","0","14243","","null","","","null","70","NaN","","","","","","","","","","","","","","",""
"","S2","","html-keyboard-response","468","464148","0.0-1.0-634.0","0","0","14243","","null","","","null","70","","NaN","","","","","","","","","","","","","",""
"","response","","html-keyboard-response","469","464923","0.0-1.0-635.0-0.0","0","0","14243","","772","","","75","70","","","2","70","training","adjacent","AB","1","2","N.jpg","Q.jpg","1","1","1","",""
"","feedback","","html-keyboard-response","470","465927","0.0-1.0-636.0-0.0","0","0","14243","","null","","","null","70","","","","","","","","","","","","","","","",""
"","ITI","","html-keyboard-response","471","466932","0.0-1.0-639.0","0","0","14243","","null","","","null","70","","","","","","","","","","","","","","","NaN",""
"","S1","","html-keyboard-response","472","467184","0.0-1.0-641.0","0","0","14243","","null","","","null","71","","","","","","","","","","","","","","","",""
"","ISI","","html-keyboard-response","473","467687","0.0-1.0-642.0","0","0","14243","","null","","","null","71","NaN","","","","","","","","","","","","","","",""
"","S2","","html-keyboard-response","474","467942","0.0-1.0-643.0","0","0","14243","","null","","","null","71","","NaN","","","","","","","","","","","","","",""
"","response","","html-keyboard-response","475","468963","0.0-1.0-644.0-0.0","0","0","14243","","1018","","","75","71","","","2","71","training","adjacent","EF","5","6","O.jpg","L.jpg","1","1","1","",""
"","feedback","","html-keyboard-response","476","469966","0.0-1.0-645.0-0.0","0","0","14243","","null","","","null","71","","","","","","","","","","","","","","","",""
"","ITI","","html-keyboard-response","477","470969","0.0-1.0-648.0","0","0","14243","","null","","","null","71","","","","","","","","","","","","","","","NaN",""
"","S1","","html-keyboard-response","478","471224","0.0-1.0-650.0","0","0","14243","","null","","","null","72","","","","","","","","","","","","","","","",""
"","ISI","","html-keyboard-response","479","471727","0.0-1.0-651.0","0","0","14243","","null","","","null","72","NaN","","","","","","","","","","","","","","",""
"","S2","","html-keyboard-response","480","471981","0.0-1.0-652.0","0","0","14243","","null","","","null","72","","NaN","","","","","","","","","","","","","",""
"","response","","html-keyboard-response","481","472539","0.0-1.0-653.0-0.0","0","0","14243","","554","","","75","72","","","2","72","training","adjacent","FG","6","7","L.jpg","M.jpg","1","1","1","",""
"","feedback","","html-keyboard-response","482","473544","0.0-1.0-654.0-0.0","0","0","14243","","null","","","null","72","","","","","","","","","","","","","","","",""
"","ITI","","html-keyboard-response","483","474550","0.0-1.0-657.0","0","0","14243","","null","","","null","72","","","","","","","","","","","","","","","NaN",""
"","S1","","html-keyboard-response","484","474804","0.0-1.0-659.0","0","0","14243","","null","","","null","73","","","","","","","","","","","","","","","",""
"","ISI","","html-keyboard-response","485","475309","0.0-1.0-660.0","0","0","14243","","null","","","null","73","NaN","","","","","","","","","","","","","","",""
"","S2","","html-keyboard-response","486","475563","0.0-1.0-661.0","0","0","14243","","null","","","null","73","","NaN","","","","","","","","","","","","","",""
"","response","","html-keyboard-response","487","475933","0.0-1.0-662.0-0.0","0","0","14243","","366","","","68","73","","","2","73","training","adjacent","AB","1","2","N.jpg","Q.jpg","0","1","0","",""
"","feedback","","html-keyboard-response","488","476938","0.0-1.0-663.0-0.0","0","0","14243","","null","","","null","73","","","","","","","","","","","","","","","",""
"","time_out","","html-keyboard-response","489","478949","0.0-1.0-665.0-0.0","0","0","14243","","null","","","null","73","","","","","","","","","","","","","","","",""
"","ITI","","html-keyboard-response","490","479953","0.0-1.0-666.0","0","0","14243","","null","","","null","73","","","","","","","","","","","","","","","NaN",""
"","S1","","html-keyboard-response","491","480207","0.0-1.0-668.0","0","0","14243","","null","","","null","74","","","","","","","","","","","","","","","",""
"","ISI","","html-keyboard-response","492","480709","0.0-1.0-669.0","0","0","14243","","null","","","null","74","NaN","","","","","","","","","","","","","","",""
"","S2","","html-keyboard-response","493","480961","0.0-1.0-670.0","0","0","14243","","null","","","null","74","","NaN","","","","","","","","","","","","","",""
"","response","","html-keyboard-response","494","481513","0.0-1.0-671.0-0.0","0","0","14243","","550","","","75","74","","","2","74","training","adjacent","FG","6","7","L.jpg","M.jpg","1","1","1","",""
"","feedback","","html-keyboard-response","495","482516","0.0-1.0-672.0-0.0","0","0","14243","","null","","","null","74","","","","","","","","","","","","","","","",""
"","ITI","","html-keyboard-response","496","483522","0.0-1.0-675.0","0","0","14243","","null","","","null","74","","","","","","","","","","","","","","","NaN",""
"","S1","","html-keyboard-response","497","483775","0.0-1.0-677.0","0","0","14243","","null","","","null","75","","","","","","","","","","","","","","","",""
"","ISI","","html-keyboard-response","498","484280","0.0-1.0-678.0","0","0","14243","","null","","","null","75","NaN","","","","","","","","","","","","","","",""
"","S2","","html-keyboard-response","499","484534","0.0-1.0-679.0","0","0","14243","","null","","","null","75","","NaN","","","","","","","","","","","","","",""
"","response","","html-keyboard-response","500","485115","0.0-1.0-680.0-0.0","0","0","14243","","578","","","75","75","","","2","75","training","adjacent","EF","5","6","O.jpg","L.jpg","1","1","1","",""
"","feedback","","html-keyboard-response","501","486120","0.0-1.0-681.0-0.0","0","0","14243","","null","","","null","75","","","","","","","","","","","","","","","",""
"","ITI","","html-keyboard-response","502","487125","0.0-1.0-684.0","0","0","14243","","null","","","null","75","","","","","","","","","","","","","","","NaN",""
"","S1","","html-keyboard-response","503","487379","0.0-1.0-686.0","0","0","14243","","null","","","null","76","","","","","","","","","","","","","","","",""
"","ISI","","html-keyboard-response","504","487883","0.0-1.0-687.0","0","0","14243","","null","","","null","76","NaN","","","","","","","","","","","","","","",""
"","S2","","html-keyboard-response","505","488136","0.0-1.0-688.0","0","0","14243","","null","","","null","76","","NaN","","","","","","","","","","","","","",""
"","response","","html-keyboard-response","506","488988","0.0-1.0-689.0-0.0","0","0","14243","","848","","","75","76","","","2","76","training","adjacent","BA","2","1","Q.jpg","N.jpg","1","0","0","",""
"","feedback","","html-keyboard-response","507","489992","0.0-1.0-690.0-0.0","0","0","14243","","null","","","null","76","","","","","","","","","","","","","","","",""
"","time_out","","html-keyboard-response","508","491996","0.0-1.0-692.0-0.0","0","0","14243","","null","","","null","76","","","","","","","","","","","","","","","",""
"","ITI","","html-keyboard-response","509","493000","0.0-1.0-693.0","0","0","14243","","null","","","null","76","","","","","","","","","","","","","","","NaN",""
"","S1","","html-keyboard-response","510","493252","0.0-1.0-695.0","0","0","14243","","null","","","null","77","","","","","","","","","","","","","","","",""
"","ISI","","html-keyboard-response","511","493756","0.0-1.0-696.0","0","0","14243","","null","","","null","77","NaN","","","","","","","","","","","","","","",""
"","S2","","html-keyboard-response","512","494009","0.0-1.0-697.0","0","0","14243","","null","","","null","77","","NaN","","","","","","","","","","","","","",""
"","response","","html-keyboard-response","513","495131","0.0-1.0-698.0-0.0","0","0","14243","","1120","","","68","77","","","2","77","training","adjacent","GF","7","6","M.jpg","L.jpg","0","0","1","",""
"","feedback","","html-keyboard-response","514","496135","0.0-1.0-699.0-0.0","0","0","14243","","null","","","null","77","","","","","","","","","","","","","","","",""
"","ITI","","html-keyboard-response","515","497139","0.0-1.0-702.0","0","0","14243","","null","","","null","77","","","","","","","","","","","","","","","NaN",""
"","S1","","html-keyboard-response","516","497392","0.0-1.0-704.0","0","0","14243","","null","","","null","78","","","","","","","","","","","","","","","",""
"","ISI","","html-keyboard-response","517","497894","0.0-1.0-705.0","0","0","14243","","null","","","null","78","NaN","","","","","","","","","","","","","","",""
"","S2","","html-keyboard-response","518","498147","0.0-1.0-706.0","0","0","14243","","null","","","null","78","","NaN","","","","","","","","","","","","","",""
"","response","","html-keyboard-response","519","499440","0.0-1.0-707.0-0.0","0","0","14243","","1291","","","68","78","","","2","78","training","adjacent","BC","2","3","Q.jpg","R.jpg","0","1","0","",""
"","feedback","","html-keyboard-response","520","500443","0.0-1.0-708.0-0.0","0","0","14243","","null","","","null","78","","","","","","","","","","","","","","","",""
"","time_out","","html-keyboard-response","521","502447","0.0-1.0-710.0-0.0","0","0","14243","","null","","","null","78","","","","","","","","","","","","","","","",""
"","ITI","","html-keyboard-response","522","503452","0.0-1.0-711.0","0","0","14243","","null","","","null","78","","","","","","","","","","","","","","","NaN",""
"","S1","","html-keyboard-response","523","503705","0.0-1.0-713.0","0","0","14243","","null","","","null","79","","","","","","","","","","","","","","","",""
"","ISI","","html-keyboard-response","524","504208","0.0-1.0-714.0","0","0","14243","","null","","","null","79","NaN","","","","","","","","","","","","","","",""
"","S2","","html-keyboard-response","525","504462","0.0-1.0-715.0","0","0","14243","","null","","","null","79","","NaN","","","","","","","","","","","","","",""
"","response","","html-keyboard-response","526","505003","0.0-1.0-716.0-0.0","0","0","14243","","538","","","68","79","","","2","79","training","adjacent","ED","5","4","O.jpg","P.jpg","0","0","1","",""
"","feedback","","html-keyboard-response","527","506008","0.0-1.0-717.0-0.0","0","0","14243","","null","","","null","79","","","","","","","","","","","","","","","",""
"","ITI","","html-keyboard-response","528","507013","0.0-1.0-720.0","0","0","14243","","null","","","null","79","","","","","","","","","","","","","","","NaN",""
"","S1","","html-keyboard-response","529","507267","0.0-1.0-722.0","0","0","14243","","null","","","null","80","","","","","","","","","","","","","","","",""
"","ISI","","html-keyboard-response","530","507772","0.0-1.0-723.0","0","0","14243","","null","","","null","80","NaN","","","","","","","","","","","","","","",""
"","S2","","html-keyboard-response","531","508025","0.0-1.0-724.0","0","0","14243","","null","","","null","80","","NaN","","","","","","","","","","","","","",""
"","response","","html-keyboard-response","532","509729","0.0-1.0-725.0-0.0","0","0","14243","","1703","","","68","80","","","2","80","training","adjacent","CB","3","2","R.jpg","Q.jpg","0","0","1","",""
"","feedback","","html-keyboard-response","533","510731","0.0-1.0-726.0-0.0","0","0","14243","","null","","","null","80","","","","","","","","","","","","","","","",""
"","ITI","","html-keyboard-response","534","511733","0.0-1.0-729.0","0","0","14243","","null","","","null","80","","","","","","","","","","","","","","","NaN",""
"","S1","","html-keyboard-response","535","511987","0.0-1.0-731.0","0","0","14243","","null","","","null","81","","","","","","","","","","","","","","","",""
"","ISI","","html-keyboard-response","536","512491","0.0-1.0-732.0","0","0","14243","","null","","","null","81","NaN","","","","","","","","","","","","","","",""
"","S2","","html-keyboard-response","537","512743","0.0-1.0-733.0","0","0","14243","","null","","","null","81","","NaN","","","","","","","","","","","","","",""
"","response","","html-keyboard-response","538","513468","0.0-1.0-734.0-0.0","0","0","14243","","720","","","75","81","","","2","81","training","adjacent","AB","1","2","N.jpg","Q.jpg","1","1","1","",""
"","feedback","","html-keyboard-response","539","514473","0.0-1.0-735.0-0.0","0","0","14243","","null","","","null","81","","","","","","","","","","","","","","","",""
"","ITI","","html-keyboard-response","540","515475","0.0-1.0-738.0","0","0","14243","","null","","","null","81","","","","","","","","","","","","","","","NaN",""
"","S1","","html-keyboard-response","541","515727","0.0-1.0-740.0","0","0","14243","","null","","","null","82","","","","","","","","","","","","","","","",""
"","ISI","","html-keyboard-response","542","516231","0.0-1.0-741.0","0","0","14243","","null","","","null","82","NaN","","","","","","","","","","","","","","",""
"","S2","","html-keyboard-response","543","516484","0.0-1.0-742.0","0","0","14243","","null","","","null","82","","NaN","","","","","","","","","","","","","",""
"","response","","html-keyboard-response","544","518075","0.0-1.0-743.0-0.0","0","0","14243","","1588","","","68","82","","","2","82","training","adjacent","EF","5","6","O.jpg","L.jpg","0","1","0","",""
"","feedback","","html-keyboard-response","545","519080","0.0-1.0-744.0-0.0","0","0","14243","","null","","","null","82","","","","","","","","","","","","","","","",""
"","time_out","","html-keyboard-response","546","521084","0.0-1.0-746.0-0.0","0","0","14243","","null","","","null","82","","","","","","","","","","","","","","","",""
"","ITI","","html-keyboard-response","547","522089","0.0-1.0-747.0","0","0","14243","","null","","","null","82","","","","","","","","","","","","","","","NaN",""
"","S1","","html-keyboard-response","548","522341","0.0-1.0-749.0","0","0","14243","","null","","","null","83","","","","","","","","","","","","","","","",""
"","ISI","","html-keyboard-response","549","522846","0.0-1.0-750.0","0","0","14243","","null","","","null","83","NaN","","","","","","","","","","","","","","",""
"","S2","","html-keyboard-response","550","523099","0.0-1.0-751.0","0","0","14243","","null","","","null","83","","NaN","","","","","","","","","","","","","",""
"","response","","html-keyboard-response","551","523712","0.0-1.0-752.0-0.0","0","0","14243","","612","","","75","83","","","2","83","training","adjacent","FG","6","7","L.jpg","M.jpg","1","1","1","",""
"","feedback","","html-keyboard-response","552","524716","0.0-1.0-753.0-0.0","0","0","14243","","null","","","null","83","","","","","","","","","","","","","","","",""
"","ITI","","html-keyboard-response","553","525721","0.0-1.0-756.0","0","0","14243","","null","","","null","83","","","","","","","","","","","","","","","NaN",""
"","S1","","html-keyboard-response","554","525975","0.0-1.0-758.0","0","0","14243","","null","","","null","84","","","","","","","","","","","","","","","",""
"","ISI","","html-keyboard-response","555","526480","0.0-1.0-759.0","0","0","14243","","null","","","null","84","NaN","","","","","","","","","","","","","","",""
"","S2","","html-keyboard-response","556","526733","0.0-1.0-760.0","0","0","14243","","null","","","null","84","","NaN","","","","","","","","","","","","","",""
"","response","","html-keyboard-response","557","527427","0.0-1.0-761.0-0.0","0","0","14243","","692","","","68","84","","","2","84","training","adjacent","DE","4","5","P.jpg","O.jpg","0","1","0","",""
"","feedback","","html-keyboard-response","558","528431","0.0-1.0-762.0-0.0","0","0","14243","","null","","","null","84","","","","","","","","","","","","","","","",""
"","time_out","","html-keyboard-response","559","530437","0.0-1.0-764.0-0.0","0","0","14243","","null","","","null","84","","","","","","","","","","","","","","","",""
"","ITI","","html-keyboard-response","560","531442","0.0-1.0-765.0","0","0","14243","","null","","","null","84","","","","","","","","","","","","","","","NaN",""
"","S1","","html-keyboard-response","561","531696","0.0-1.0-767.0","0","0","14243","","null","","","null","85","","","","","","","","","","","","","","","",""
"","ISI","","html-keyboard-response","562","532198","0.0-1.0-768.0","0","0","14243","","null","","","null","85","NaN","","","","","","","","","","","","","","",""
"","S2","","html-keyboard-response","563","532453","0.0-1.0-769.0","0","0","14243","","null","","","null","85","","NaN","","","","","","","","","","","","","",""
"","response","","html-keyboard-response","564","533163","0.0-1.0-770.0-0.0","0","0","14243","","707","","","75","85","","","2","85","training","adjacent","DC","4","3","P.jpg","R.jpg","1","0","0","",""
"","feedback","","html-keyboard-response","565","534167","0.0-1.0-771.0-0.0","0","0","14243","","null","","","null","85","","","","","","","","","","","","","","","",""
"","time_out","","html-keyboard-response","566","536171","0.0-1.0-773.0-0.0","0","0","14243","","null","","","null","85","","","","","","","","","","","","","","","",""
"","ITI","","html-keyboard-response","567","537173","0.0-1.0-774.0","0","0","14243","","null","","","null","85","","","","","","","","","","","","","","","NaN",""
"","S1","","html-keyboard-response","568","537425","0.0-1.0-776.0","0","0","14243","","null","","","null","86","","","","","","","","","","","","","","","",""
"","ISI","","html-keyboard-response","569","537927","0.0-1.0-777.0","0","0","14243","","null","","","null","86","NaN","","","","","","","","","","","","","","",""
"","S2","","html-keyboard-response","570","538180","0.0-1.0-778.0","0","0","14243","","null","","","null","86","","NaN","","","","","","","","","","","","","",""
"","response","","html-keyboard-response","571","538753","0.0-1.0-779.0-0.0","0","0","14243","","571","","","68","86","","","2","86","training","adjacent","GF","7","6","M.jpg","L.jpg","0","0","1","",""
"","feedback","","html-keyboard-response","572","539756","0.0-1.0-780.0-0.0","0","0","14243","","null","","","null","86","","","","","","","","","","","","","","","",""
"","ITI","","html-keyboard-response","573","540764","0.0-1.0-783.0","0","0","14243","","null","","","null","86","","","","","","","","","","","","","","","NaN",""
"","S1","","html-keyboard-response","574","541017","0.0-1.0-785.0","0","0","14243","","null","","","null","87","","","","","","","","","","","","","","","",""
"","ISI","","html-keyboard-response","575","541520","0.0-1.0-786.0","0","0","14243","","null","","","null","87","NaN","","","","","","","","","","","","","","",""
"","S2","","html-keyboard-response","576","541772","0.0-1.0-787.0","0","0","14243","","null","","","null","87","","NaN","","","","","","","","","","","","","",""
"","response","","html-keyboard-response","577","542416","0.0-1.0-788.0-0.0","0","0","14243","","643","","","75","87","","","2","87","training","adjacent","DC","4","3","P.jpg","R.jpg","1","0","0","",""
"","feedback","","html-keyboard-response","578","543419","0.0-1.0-789.0-0.0","0","0","14243","","null","","","null","87","","","","","","","","","","","","","","","",""
"","time_out","","html-keyboard-response","579","545421","0.0-1.0-791.0-0.0","0","0","14243","","null","","","null","87","","","","","","","","","","","","","","","",""
"","ITI","","html-keyboard-response","580","546424","0.0-1.0-792.0","0","0","14243","","null","","","null","87","","","","","","","","","","","","","","","NaN",""
