"success","ttype","start_time","trial_type","trial_index","time_elapsed","internal_node_id","warning","missed_checkup","PID","view_history","rt","responses","repeat_instructions","key_press","index","keypress_isi","keypress_S2","block","trial_num","phase","group_type","pair_type","S1_stim","S2_stim","S1_img","S2_img","S1_chosen","S1_higher","accuracy","keypress_iti","total_bonus_tally"
"true","full_screen","d04062023hr1956","fullscreen","0","9578","0.0-0.0","0","0","99727","","","","","","","","","","","","","","","","","","","","","",""
"","instructions","","instructions","1","66257","0.0-1.0-0.0-0.0","0","0","99727","[{""page_index"":0,""viewing_time"":5259},{""page_index"":1,""viewing_time"":34297},{""page_index"":2,""viewing_time"":15315},{""page_index"":3,""viewing_time"":1804}]","56676","","","","","","","","","","","","","","","","","","","",""
"","comprehension_check","","survey-multi-choice","2","88298","0.0-1.0-0.0-1.0","0","0","99727","","22036","{""Q0"":""True"",""Q1"":""K"",""Q2"":""Only when the screen 'MAKE A CHOICE' is shown"",""Q3"":""Green mark"",""Q4"":""either D or K""}","1","","","","","","","","","","","","","","","","","",""
"","missed_instruction_checkup","","html-keyboard-response","3","90297","0.0-1.0-0.0-2.0-0.0","0","1","99727","","1997","","","32","","","","","","","","","","","","","","","","",""
"","instructions","","instructions","4","115328","0.0-1.0-0.1-0.1","0","0","99727","[{""page_index"":0,""viewing_time"":3671},{""page_index"":1,""viewing_time"":16851},{""page_index"":2,""viewing_time"":3816},{""page_index"":3,""viewing_time"":691}]","25029","","","","","","","","","","","","","","","","","","","",""
"","comprehension_check","","survey-multi-choice","5","132816","0.0-1.0-0.1-1.1","0","0","99727","","17484","{""Q0"":""True"",""Q1"":""K"",""Q2"":""Once the second image appears and while the screen 'MAKE A CHOICE' is shown"",""Q3"":""Green mark"",""Q4"":""either D or K""}","0","","","","","","","","","","","","","","","","","",""
"","start_exp","","html-keyboard-response","6","134402","0.0-1.0-1.0","0","0","99727","","1582","","","32","","","","","","","","","","","","","","","","",""
"","S1","","html-keyboard-response","7","134558","0.0-1.0-2.0","0","0","99727","","null","","","null","0","","","","","","","","","","","","","","","",""
"","ISI","","html-keyboard-response","8","136563","0.0-1.0-3.0","0","0","99727","","null","","","null","0","NaN","","","","","","","","","","","","","","",""
"","S2","","html-keyboard-response","9","136719","0.0-1.0-4.0","0","0","99727","","null","","","null","0","","NaN","","","","","","","","","","","","","",""
"","response","","html-keyboard-response","10","138406","0.0-1.0-5.0-0.0","0","0","99727","","1684","","","75","0","","","1","0","training","adjacent","BC","2","3","L.jpg","M.jpg","1","1","1","",""
"","feedback","","html-keyboard-response","11","139411","0.0-1.0-6.0-0.0","0","0","99727","","null","","","null","0","","","","","","","","","","","","","","","",""
"","ITI","","html-keyboard-response","12","140416","0.0-1.0-9.0","0","0","99727","","null","","","null","0","","","","","","","","","","","","","","","NaN",""
"","S1","","html-keyboard-response","13","140571","0.0-1.0-11.0","0","0","99727","","null","","","null","1","","","","","","","","","","","","","","","",""
"","ISI","","html-keyboard-response","14","142576","0.0-1.0-12.0","0","0","99727","","null","","","null","1","NaN","","","","","","","","","","","","","","",""
"","S2","","html-keyboard-response","15","142731","0.0-1.0-13.0","0","0","99727","","null","","","null","1","","NaN","","","","","","","","","","","","","",""
"","response","","html-keyboard-response","16","143769","0.0-1.0-14.0-0.0","0","0","99727","","1035","","","75","1","","","1","1","training","adjacent","CD","3","4","M.jpg","R.jpg","1","1","1","",""
"","feedback","","html-keyboard-response","17","144774","0.0-1.0-15.0-0.0","0","0","99727","","null","","","null","1","","","","","","","","","","","","","","","",""
"","ITI","","html-keyboard-response","18","145778","0.0-1.0-18.0","0","0","99727","","null","","","null","1","","","","","","","","","","","","","","","NaN",""
"","S1","","html-keyboard-response","19","145931","0.0-1.0-20.0","0","0","99727","","null","","","null","2","","","","","","","","","","","","","","","",""
"","ISI","","html-keyboard-response","20","147935","0.0-1.0-21.0","0","0","99727","","null","","","null","2","NaN","","","","","","","","","","","","","","",""
"","S2","","html-keyboard-response","21","148088","0.0-1.0-22.0","0","0","99727","","null","","","null","2","","NaN","","","","","","","","","","","","","",""
"","response","","html-keyboard-response","22","148833","0.0-1.0-23.0-0.0","0","0","99727","","742","","","68","2","","","1","2","training","adjacent","AB","1","2","Q.jpg","L.jpg","0","1","0","",""
"","feedback","","html-keyboard-response","23","149839","0.0-1.0-24.0-0.0","0","0","99727","","null","","","null","2","","","","","","","","","","","","","","","",""
"","time_out","","html-keyboard-response","24","151843","0.0-1.0-26.0-0.0","0","0","99727","","null","","","null","2","","","","","","","","","","","","","","","",""
"","ITI","","html-keyboard-response","25","152847","0.0-1.0-27.0","0","0","99727","","null","","","null","2","","","","","","","","","","","","","","","NaN",""
"","S1","","html-keyboard-response","26","153012","0.0-1.0-29.0","0","0","99727","","null","","","null","3","","","","","","","","","","","","","","","",""
"","ISI","","html-keyboard-response","27","155016","0.0-1.0-30.0","0","0","99727","","null","","","null","3","NaN","","","","","","","","","","","","","","",""
"","S2","","html-keyboard-response","28","155171","0.0-1.0-31.0","0","0","99727","","null","","","null","3","","NaN","","","","","","","","","","","","","",""
"","response","","html-keyboard-response","29","155783","0.0-1.0-32.0-0.0","0","0","99727","","609","","","68","3","","","1","3","training","adjacent","AB","1","2","Q.jpg","L.jpg","0","1","0","",""
"","feedback","","html-keyboard-response","30","156788","0.0-1.0-33.0-0.0","0","0","99727","","null","","","null","3","","","","","","","","","","","","","","","",""
"","time_out","","html-keyboard-response","31","158792","0.0-1.0-35.0-0.0","0","0","99727","","null","","","null","3","","","","","","","","","","","","","","","",""
"","ITI","","html-keyboard-response","32","159797","0.0-1.0-36.0","0","0","99727","","null","","","null","3","","","","","","","","","","","","","","","NaN",""
"","S1","","html-keyboard-response","33","159951","0.0-1.0-38.0","0","0","99727","","null","","","null","4","","","","","","","","","","","","","","","",""
"","ISI","","html-keyboard-response","34","161956","0.0-1.0-39.0","0","0","99727","","null","","","null","4","NaN","","","","","","","","","","","","","","",""
"","S2","","html-keyboard-response","35","162111","0.0-1.0-40.0","0","0","99727","","null","","","null","4","","NaN","","","","","","","","","","","","","",""
"","response","","html-keyboard-response","36","162362","0.0-1.0-41.0-0.0","0","0","99727","","248","","","75","4","","","1","4","training","adjacent","DE","4","5","R.jpg","O.jpg","1","1","1","",""
"","feedback","","html-keyboard-response","37","163367","0.0-1.0-42.0-0.0","0","0","99727","","null","","","null","4","","","","","","","","","","","","","","","",""
"","ITI","","html-keyboard-response","38","164370","0.0-1.0-45.0","0","0","99727","","null","","","null","4","","","","","","","","","","","","","","","NaN",""
"","S1","","html-keyboard-response","39","164525","0.0-1.0-47.0","0","0","99727","","null","","","null","5","","","","","","","","","","","","","","","",""
"","ISI","","html-keyboard-response","40","166529","0.0-1.0-48.0","0","0","99727","","null","","","null","5","NaN","","","","","","","","","","","","","","",""
"","S2","","html-keyboard-response","41","166685","0.0-1.0-49.0","0","0","99727","","null","","","null","5","","NaN","","","","","","","","","","","","","",""
"","response","","html-keyboard-response","42","167351","0.0-1.0-50.0-0.0","0","0","99727","","665","","","75","5","","","1","5","training","adjacent","EF","5","6","O.jpg","N.jpg","1","1","1","",""
"","feedback","","html-keyboard-response","43","168356","0.0-1.0-51.0-0.0","0","0","99727","","null","","","null","5","","","","","","","","","","","","","","","",""
"","ITI","","html-keyboard-response","44","169360","0.0-1.0-54.0","0","0","99727","","null","","","null","5","","","","","","","","","","","","","","","NaN",""
"","S1","","html-keyboard-response","45","169513","0.0-1.0-56.0","0","0","99727","","null","","","null","6","","","","","","","","","","","","","","","",""
"","ISI","","html-keyboard-response","46","171528","0.0-1.0-57.0","0","0","99727","","null","","","null","6","NaN","","","","","","","","","","","","","","",""
"","S2","","html-keyboard-response","47","171686","0.0-1.0-58.0","0","0","99727","","null","","","null","6","","NaN","","","","","","","","","","","","","",""
"","response","","html-keyboard-response","48","171970","0.0-1.0-59.0-0.0","0","0","99727","","279","","","75","6","","","1","6","training","adjacent","FE","6","5","N.jpg","O.jpg","1","0","0","",""
"","feedback","","html-keyboard-response","49","172975","0.0-1.0-60.0-0.0","0","0","99727","","null","","","null","6","","","","","","","","","","","","","","","",""
"","time_out","","html-keyboard-response","50","174979","0.0-1.0-62.0-0.0","0","0","99727","","null","","","null","6","","","","","","","","","","","","","","","",""
"","ITI","","html-keyboard-response","51","175983","0.0-1.0-63.0","0","0","99727","","null","","","null","6","","","","","","","","","","","","","","","NaN",""
"","S1","","html-keyboard-response","52","176136","0.0-1.0-65.0","0","0","99727","","null","","","null","7","","","","","","","","","","","","","","","",""
"","ISI","","html-keyboard-response","53","178139","0.0-1.0-66.0","0","0","99727","","null","","","null","7","NaN","","","","","","","","","","","","","","",""
"","S2","","html-keyboard-response","54","178294","0.0-1.0-67.0","0","0","99727","","null","","","null","7","","NaN","","","","","","","","","","","","","",""
"","response","","html-keyboard-response","55","178634","0.0-1.0-68.0-0.0","0","0","99727","","336","","","68","7","","","1","7","training","adjacent","AB","1","2","Q.jpg","L.jpg","0","1","0","",""
"","feedback","","html-keyboard-response","56","179638","0.0-1.0-69.0-0.0","0","0","99727","","null","","","null","7","","","","","","","","","","","","","","","",""
"","time_out","","html-keyboard-response","57","181642","0.0-1.0-71.0-0.0","0","0","99727","","null","","","null","7","","","","","","","","","","","","","","","",""
"","ITI","","html-keyboard-response","58","182646","0.0-1.0-72.0","0","0","99727","","null","","","null","7","","","","","","","","","","","","","","","NaN",""
"","S1","","html-keyboard-response","59","182800","0.0-1.0-74.0","0","0","99727","","null","","","null","8","","","","","","","","","","","","","","","",""
"","ISI","","html-keyboard-response","60","184805","0.0-1.0-75.0","0","0","99727","","null","","","null","8","NaN","","","","","","","","","","","","","","",""
"","S2","","html-keyboard-response","61","184958","0.0-1.0-76.0","0","0","99727","","null","","","null","8","","NaN","","","","","","","","","","","","","",""
"","response","","html-keyboard-response","62","185344","0.0-1.0-77.0-0.0","0","0","99727","","384","","","75","8","","","1","8","training","adjacent","DE","4","5","R.jpg","O.jpg","1","1","1","",""
"","feedback","","html-keyboard-response","63","186349","0.0-1.0-78.0-0.0","0","0","99727","","null","","","null","8","","","","","","","","","","","","","","","",""
"","ITI","","html-keyboard-response","64","187353","0.0-1.0-81.0","0","0","99727","","null","","","null","8","","","","","","","","","","","","","","","NaN",""
"","S1","","html-keyboard-response","65","187510","0.0-1.0-83.0","0","0","99727","","null","","","null","9","","","","","","","","","","","","","","","",""
"","ISI","","html-keyboard-response","66","189514","0.0-1.0-84.0","0","0","99727","","null","","","null","9","NaN","","","","","","","","","","","","","","",""
"","S2","","html-keyboard-response","67","189669","0.0-1.0-85.0","0","0","99727","","null","","","null","9","","NaN","","","","","","","","","","","","","",""
"","response","","html-keyboard-response","68","190073","0.0-1.0-86.0-0.0","0","0","99727","","400","","","75","9","","","1","9","training","adjacent","CD","3","4","M.jpg","R.jpg","1","1","1","",""
"","feedback","","html-keyboard-response","69","191077","0.0-1.0-87.0-0.0","0","0","99727","","null","","","null","9","","","","","","","","","","","","","","","",""
"","ITI","","html-keyboard-response","70","192080","0.0-1.0-90.0","0","0","99727","","null","","","null","9","","","","","","","","","","","","","","","NaN",""
"","S1","","html-keyboard-response","71","192233","0.0-1.0-92.0","0","0","99727","","null","","","null","10","","","","","","","","","","","","","","","",""
"","ISI","","html-keyboard-response","72","194238","0.0-1.0-93.0","0","0","99727","","null","","","null","10","NaN","","","","","","","","","","","","","","",""
"","S2","","html-keyboard-response","73","194393","0.0-1.0-94.0","0","0","99727","","null","","","null","10","","NaN","","","","","","","","","","","","","",""
"","response","","html-keyboard-response","74","194928","0.0-1.0-95.0-0.0","0","0","99727","","532","","","75","10","","","1","10","training","adjacent","FE","6","5","N.jpg","O.jpg","1","0","0","",""
"","feedback","","html-keyboard-response","75","195931","0.0-1.0-96.0-0.0","0","0","99727","","null","","","null","10","","","","","","","","","","","","","","","",""
"","time_out","","html-keyboard-response","76","197933","0.0-1.0-98.0-0.0","0","0","99727","","null","","","null","10","","","","","","","","","","","","","","","",""
"","ITI","","html-keyboard-response","77","198937","0.0-1.0-99.0","0","0","99727","","null","","","null","10","","","","","","","","","","","","","","","NaN",""
"","S1","","html-keyboard-response","78","199092","0.0-1.0-101.0","0","0","99727","","null","","","null","11","","","","","","","","","","","","","","","",""
"","ISI","","html-keyboard-response","79","201096","0.0-1.0-102.0","0","0","99727","","null","","","null","11","NaN","","","","","","","","","","","","","","",""
"","S2","","html-keyboard-response","80","201251","0.0-1.0-103.0","0","0","99727","","null","","","null","11","","NaN","","","","","","","","","","","","","",""
"","response","","html-keyboard-response","81","201601","0.0-1.0-104.0-0.0","0","0","99727","","347","","","68","11","","","1","11","training","adjacent","BA","2","1","L.jpg","Q.jpg","0","0","1","",""
"","feedback","","html-keyboard-response","82","202604","0.0-1.0-105.0-0.0","0","0","99727","","null","","","null","11","","","","","","","","","","","","","","","",""
"","ITI","","html-keyboard-response","83","203620","0.0-1.0-108.0","0","0","99727","","null","","","null","11","","","","","","","","","","","","","","","NaN",""
"","S1","","html-keyboard-response","84","203774","0.0-1.0-110.0","0","0","99727","","null","","","null","12","","","","","","","","","","","","","","","",""
"","ISI","","html-keyboard-response","85","205779","0.0-1.0-111.0","0","0","99727","","null","","","null","12","NaN","","","","","","","","","","","","","","",""
"","S2","","html-keyboard-response","86","205933","0.0-1.0-112.0","0","0","99727","","null","","","null","12","","NaN","","","","","","","","","","","","","",""
"","response","","html-keyboard-response","87","206122","0.0-1.0-113.0-0.0","0","0","99727","","187","","","75","12","","","1","12","training","adjacent","BA","2","1","L.jpg","Q.jpg","1","0","0","",""
"","feedback","","html-keyboard-response","88","207127","0.0-1.0-114.0-0.0","0","0","99727","","null","","","null","12","","","","","","","","","","","","","","","",""
"","time_out","","html-keyboard-response","89","209131","0.0-1.0-116.0-0.0","0","0","99727","","null","","","null","12","","","","","","","","","","","","","","","",""
"","ITI","","html-keyboard-response","90","210135","0.0-1.0-117.0","0","0","99727","","null","","","null","12","","","","","","","","","","","","","","","NaN",""
"","S1","","html-keyboard-response","91","210287","0.0-1.0-119.0","0","0","99727","","null","","","null","13","","","","","","","","","","","","","","","",""
"","ISI","","html-keyboard-response","92","212291","0.0-1.0-120.0","0","0","99727","","null","","","null","13","NaN","","","","","","","","","","","","","","",""
"","S2","","html-keyboard-response","93","212446","0.0-1.0-121.0","0","0","99727","","null","","","null","13","","NaN","","","","","","","","","","","","","",""
"","response","","html-keyboard-response","94","212673","0.0-1.0-122.0-0.0","0","0","99727","","224","","","75","13","","","1","13","training","adjacent","BA","2","1","L.jpg","Q.jpg","1","0","0","",""
"","feedback","","html-keyboard-response","95","213678","0.0-1.0-123.0-0.0","0","0","99727","","null","","","null","13","","","","","","","","","","","","","","","",""
"","time_out","","html-keyboard-response","96","215681","0.0-1.0-125.0-0.0","0","0","99727","","null","","","null","13","","","","","","","","","","","","","","","",""
"","ITI","","html-keyboard-response","97","216685","0.0-1.0-126.0","0","0","99727","","null","","","null","13","","","","","","","","","","","","","","","NaN",""
"","S1","","html-keyboard-response","98","216839","0.0-1.0-128.0","0","0","99727","","null","","","null","14","","","","","","","","","","","","","","","",""
"","ISI","","html-keyboard-response","99","218843","0.0-1.0-129.0","0","0","99727","","null","","","null","14","NaN","","","","","","","","","","","","","","",""
"","S2","","html-keyboard-response","100","218999","0.0-1.0-130.0","0","0","99727","","null","","","null","14","","NaN","","","","","","","","","","","","","",""
"","response","","html-keyboard-response","101","219473","0.0-1.0-131.0-0.0","0","0","99727","","471","","","75","14","","","1","14","training","adjacent","GF","7","6","P.jpg","N.jpg","1","0","0","",""
"","feedback","","html-keyboard-response","102","220478","0.0-1.0-132.0-0.0","0","0","99727","","null","","","null","14","","","","","","","","","","","","","","","",""
"","time_out","","html-keyboard-response","103","222483","0.0-1.0-134.0-0.0","0","0","99727","","null","","","null","14","","","","","","","","","","","","","","","",""
"","ITI","","html-keyboard-response","104","223487","0.0-1.0-135.0","0","0","99727","","null","","","null","14","","","","","","","","","","","","","","","NaN",""
"","S1","","html-keyboard-response","105","223642","0.0-1.0-137.0","0","0","99727","","null","","","null","15","","","","","","","","","","","","","","","",""
"","ISI","","html-keyboard-response","106","225645","0.0-1.0-138.0","0","0","99727","","null","","","null","15","NaN","","","","","","","","","","","","","","",""
"","S2","","html-keyboard-response","107","225799","0.0-1.0-139.0","0","0","99727","","null","","","null","15","","NaN","","","","","","","","","","","","","",""
"","response","","html-keyboard-response","108","225993","0.0-1.0-140.0-0.0","0","0","99727","","191","","","68","15","","","1","15","training","adjacent","DC","4","3","R.jpg","M.jpg","0","0","1","",""
"","feedback","","html-keyboard-response","109","226997","0.0-1.0-141.0-0.0","0","0","99727","","null","","","null","15","","","","","","","","","","","","","","","",""
"","ITI","","html-keyboard-response","110","228002","0.0-1.0-144.0","0","0","99727","","null","","","null","15","","","","","","","","","","","","","","","NaN",""
"","S1","","html-keyboard-response","111","228156","0.0-1.0-146.0","0","0","99727","","null","","","null","16","","","","","","","","","","","","","","","",""
"","ISI","","html-keyboard-response","112","230161","0.0-1.0-147.0","0","0","99727","","null","","","null","16","NaN","","","","","","","","","","","","","","",""
"","S2","","html-keyboard-response","113","230316","0.0-1.0-148.0","0","0","99727","","null","","","null","16","","NaN","","","","","","","","","","","","","",""
"","response","","html-keyboard-response","114","230726","0.0-1.0-149.0-0.0","0","0","99727","","408","","","68","16","","","1","16","training","adjacent","FG","6","7","N.jpg","P.jpg","0","1","0","",""
"","feedback","","html-keyboard-response","115","231729","0.0-1.0-150.0-0.0","0","0","99727","","null","","","null","16","","","","","","","","","","","","","","","",""
"","time_out","","html-keyboard-response","116","233733","0.0-1.0-152.0-0.0","0","0","99727","","null","","","null","16","","","","","","","","","","","","","","","",""
"","ITI","","html-keyboard-response","117","234738","0.0-1.0-153.0","0","0","99727","","null","","","null","16","","","","","","","","","","","","","","","NaN",""
"","S1","","html-keyboard-response","118","234893","0.0-1.0-155.0","0","0","99727","","null","","","null","17","","","","","","","","","","","","","","","",""
"","ISI","","html-keyboard-response","119","236897","0.0-1.0-156.0","0","0","99727","","null","","","null","17","NaN","","","","","","","","","","","","","","",""
"","S2","","html-keyboard-response","120","237050","0.0-1.0-157.0","0","0","99727","","null","","","null","17","","NaN","","","","","","","","","","","","","",""
"","response","","html-keyboard-response","121","237241","0.0-1.0-158.0-0.0","0","0","99727","","187","","","75","17","","","1","17","training","adjacent","FG","6","7","N.jpg","P.jpg","1","1","1","",""
"","feedback","","html-keyboard-response","122","238246","0.0-1.0-159.0-0.0","0","0","99727","","null","","","null","17","","","","","","","","","","","","","","","",""
"","ITI","","html-keyboard-response","123","239250","0.0-1.0-162.0","0","0","99727","","null","","","null","17","","","","","","","","","","","","","","","NaN",""
"","S1","","html-keyboard-response","124","239405","0.0-1.0-164.0","0","0","99727","","null","","","null","18","","","","","","","","","","","","","","","",""
"","ISI","","html-keyboard-response","125","241409","0.0-1.0-165.0","0","0","99727","","null","","","null","18","NaN","","","","","","","","","","","","","","",""
"","S2","","html-keyboard-response","126","241564","0.0-1.0-166.0","0","0","99727","","null","","","null","18","","NaN","","","","","","","","","","","","","",""
"","response","","html-keyboard-response","127","241935","0.0-1.0-167.0-0.0","0","0","99727","","369","","","75","18","","","1","18","training","adjacent","EF","5","6","O.jpg","N.jpg","1","1","1","",""
"","feedback","","html-keyboard-response","128","242938","0.0-1.0-168.0-0.0","0","0","99727","","null","","","null","18","","","","","","","","","","","","","","","",""
"","ITI","","html-keyboard-response","129","243943","0.0-1.0-171.0","0","0","99727","","null","","","null","18","","","","","","","","","","","","","","","NaN",""
"","S1","","html-keyboard-response","130","244097","0.0-1.0-173.0","0","0","99727","","null","","","null","19","","","","","","","","","","","","","","","",""
"","ISI","","html-keyboard-response","131","246101","0.0-1.0-174.0","0","0","99727","","null","","","null","19","NaN","","","","","","","","","","","","","","",""
"","S2","","html-keyboard-response","132","246256","0.0-1.0-175.0","0","0","99727","","null","","","null","19","","NaN","","","","","","","","","","","","","",""
"","response","","html-keyboard-response","133","246697","0.0-1.0-176.0-0.0","0","0","99727","","439","","","68","19","","","1","19","training","adjacent","GF","7","6","P.jpg","N.jpg","0","0","1","",""
"","feedback","","html-keyboard-response","134","247702","0.0-1.0-177.0-0.0","0","0","99727","","null","","","null","19","","","","","","","","","","","","","","","",""
"","ITI","","html-keyboard-response","135","248706","0.0-1.0-180.0","0","0","99727","","null","","","null","19","","","","","","","","","","","","","","","NaN",""
"","S1","","html-keyboard-response","136","248861","0.0-1.0-182.0","0","0","99727","","null","","","null","20","","","","","","","","","","","","","","","",""
"","ISI","","html-keyboard-response","137","250863","0.0-1.0-183.0","0","0","99727","","null","","","null","20","NaN","","","","","","","","","","","","","","",""
"","S2","","html-keyboard-response","138","251018","0.0-1.0-184.0","0","0","99727","","null","","","null","20","","NaN","","","","","","","","","","","","","",""
"","response","","html-keyboard-response","139","251443","0.0-1.0-185.0-0.0","0","0","99727","","420","","","75","20","","","1","20","training","adjacent","ED","5","4","O.jpg","R.jpg","1","0","0","",""
"","feedback","","html-keyboard-response","140","252449","0.0-1.0-186.0-0.0","0","0","99727","","null","","","null","20","","","","","","","","","","","","","","","",""
"","time_out","","html-keyboard-response","141","254453","0.0-1.0-188.0-0.0","0","0","99727","","null","","","null","20","","","","","","","","","","","","","","","",""
"","ITI","","html-keyboard-response","142","255457","0.0-1.0-189.0","0","0","99727","","null","","","null","20","","","","","","","","","","","","","","","NaN",""
"","S1","","html-keyboard-response","143","255627","0.0-1.0-191.0","0","0","99727","","null","","","null","21","","","","","","","","","","","","","","","",""
"","ISI","","html-keyboard-response","144","257629","0.0-1.0-192.0","0","0","99727","","null","","","null","21","NaN","","","","","","","","","","","","","","",""
"","S2","","html-keyboard-response","145","257784","0.0-1.0-193.0","0","0","99727","","null","","","null","21","","NaN","","","","","","","","","","","","","",""
"","response","","html-keyboard-response","146","258017","0.0-1.0-194.0-0.0","0","0","99727","","230","","","75","21","","","1","21","training","adjacent","CB","3","2","M.jpg","L.jpg","1","0","0","",""
"","feedback","","html-keyboard-response","147","259023","0.0-1.0-195.0-0.0","0","0","99727","","null","","","null","21","","","","","","","","","","","","","","","",""
"","time_out","","html-keyboard-response","148","261027","0.0-1.0-197.0-0.0","0","0","99727","","null","","","null","21","","","","","","","","","","","","","","","",""
"","ITI","","html-keyboard-response","149","262031","0.0-1.0-198.0","0","0","99727","","null","","","null","21","","","","","","","","","","","","","","","NaN",""
"","S1","","html-keyboard-response","150","262186","0.0-1.0-200.0","0","0","99727","","null","","","null","22","","","","","","","","","","","","","","","",""
"","ISI","","html-keyboard-response","151","264189","0.0-1.0-201.0","0","0","99727","","null","","","null","22","NaN","","","","","","","","","","","","","","",""
"","S2","","html-keyboard-response","152","264345","0.0-1.0-202.0","0","0","99727","","null","","","null","22","","NaN","","","","","","","","","","","","","",""
"","response","","html-keyboard-response","153","264680","0.0-1.0-203.0-0.0","0","0","99727","","333","","","68","22","","","1","22","training","adjacent","CD","3","4","M.jpg","R.jpg","0","1","0","",""
"","feedback","","html-keyboard-response","154","265684","0.0-1.0-204.0-0.0","0","0","99727","","null","","","null","22","","","","","","","","","","","","","","","",""
"","time_out","","html-keyboard-response","155","267689","0.0-1.0-206.0-0.0","0","0","99727","","null","","","null","22","","","","","","","","","","","","","","","",""
"","ITI","","html-keyboard-response","156","268694","0.0-1.0-207.0","0","0","99727","","null","","","null","22","","","","","","","","","","","","","","","NaN",""
"","S1","","html-keyboard-response","157","268849","0.0-1.0-209.0","0","0","99727","","null","","","null","23","","","","","","","","","","","","","","","",""
"","ISI","","html-keyboard-response","158","270854","0.0-1.0-210.0","0","0","99727","","null","","","null","23","NaN","","","","","","","","","","","","","","",""
"","S2","","html-keyboard-response","159","271009","0.0-1.0-211.0","0","0","99727","","null","","","null","23","","NaN","","","","","","","","","","","","","",""
"","response","","html-keyboard-response","160","271266","0.0-1.0-212.0-0.0","0","0","99727","","253","","","75","23","","","1","23","training","adjacent","FG","6","7","N.jpg","P.jpg","1","1","1","",""
"","feedback","","html-keyboard-response","161","272270","0.0-1.0-213.0-0.0","0","0","99727","","null","","","null","23","","","","","","","","","","","","","","","",""
"","ITI","","html-keyboard-response","162","273274","0.0-1.0-216.0","0","0","99727","","null","","","null","23","","","","","","","","","","","","","","","NaN",""
"","S1","","html-keyboard-response","163","273428","0.0-1.0-218.0","0","0","99727","","null","","","null","24","","","","","","","","","","","","","","","",""
"","ISI","","html-keyboard-response","164","275432","0.0-1.0-219.0","0","0","99727","","null","","","null","24","NaN","","","","","","","","","","","","","","",""
"","S2","","html-keyboard-response","165","275587","0.0-1.0-220.0","0","0","99727","","null","","","null","24","","NaN","","","","","","","","","","","","","",""
"","response","","html-keyboard-response","166","276063","0.0-1.0-221.0-0.0","0","0","99727","","474","","","75","24","","","1","24","training","adjacent","BC","2","3","L.jpg","M.jpg","1","1","1","",""
"","feedback","","html-keyboard-response","167","277068","0.0-1.0-222.0-0.0","0","0","99727","","null","","","null","24","","","","","","","","","","","","","","","",""
"","ITI","","html-keyboard-response","168","278074","0.0-1.0-225.0","0","0","99727","","null","","","null","24","","","","","","","","","","","","","","","NaN",""
"","S1","","html-keyboard-response","169","278227","0.0-1.0-227.0","0","0","99727","","null","","","null","25","","","","","","","","","","","","","","","",""
"","ISI","","html-keyboard-response","170","280244","0.0-1.0-228.0","0","0","99727","","null","","","null","25","NaN","","","","","","","","","","","","","","",""
"","S2","","html-keyboard-response","171","280399","0.0-1.0-229.0","0","0","99727","","null","","","null","25","","NaN","","","","","","","","","","","","","",""
"","response","","html-keyboard-response","172","280682","0.0-1.0-230.0-0.0","0","0","99727","","280","","","75","25","","","1","25","training","adjacent","DC","4","3","R.jpg","M.jpg","1","0","0","",""
"","feedback","","html-keyboard-response","173","281686","0.0-1.0-231.0-0.0","0","0","99727","","null","","","null","25","","","","","","","","","","","","","","","",""
"","time_out","","html-keyboard-response","174","283689","0.0-1.0-233.0-0.0","0","0","99727","","null","","","null","25","","","","","","","","","","","","","","","",""
"","ITI","","html-keyboard-response","175","284691","0.0-1.0-234.0","0","0","99727","","null","","","null","25","","","","","","","","","","","","","","","NaN",""
"","S1","","html-keyboard-response","176","284846","0.0-1.0-236.0","0","0","99727","","null","","","null","26","","","","","","","","","","","","","","","",""
"","ISI","","html-keyboard-response","177","286849","0.0-1.0-237.0","0","0","99727","","null","","","null","26","NaN","","","","","","","","","","","","","","",""
"","S2","","html-keyboard-response","178","287005","0.0-1.0-238.0","0","0","99727","","null","","","null","26","","NaN","","","","","","","","","","","","","",""
"","response","","html-keyboard-response","179","287209","0.0-1.0-239.0-0.0","0","0","99727","","201","","","68","26","","","1","26","training","adjacent","DC","4","3","R.jpg","M.jpg","0","0","1","",""
"","feedback","","html-keyboard-response","180","288214","0.0-1.0-240.0-0.0","0","0","99727","","null","","","null","26","","","","","","","","","","","","","","","",""
"","ITI","","html-keyboard-response","181","289219","0.0-1.0-243.0","0","0","99727","","null","","","null","26","","","","","","","","","","","","","","","NaN",""
"","S1","","html-keyboard-response","182","289374","0.0-1.0-245.0","0","0","99727","","null","","","null","27","","","","","","","","","","","","","","","",""
"","ISI","","html-keyboard-response","183","291379","0.0-1.0-246.0","0","0","99727","","null","","","null","27","NaN","","","","","","","","","","","","","","",""
"","S2","","html-keyboard-response","184","291534","0.0-1.0-247.0","0","0","99727","","null","","","null","27","","NaN","","","","","","","","","","","","","",""
"","response","","html-keyboard-response","185","291665","0.0-1.0-248.0-0.0","0","0","99727","","128","","","68","27","","","1","27","training","adjacent","BC","2","3","L.jpg","M.jpg","0","1","0","",""
"","feedback","","html-keyboard-response","186","292671","0.0-1.0-249.0-0.0","0","0","99727","","null","","","null","27","","","","","","","","","","","","","","","",""
"","time_out","","html-keyboard-response","187","294675","0.0-1.0-251.0-0.0","0","0","99727","","null","","","null","27","","","","","","","","","","","","","","","",""
"","ITI","","html-keyboard-response","188","295680","0.0-1.0-252.0","0","0","99727","","null","","","null","27","","","","","","","","","","","","","","","NaN",""
"","S1","","html-keyboard-response","189","295834","0.0-1.0-254.0","0","0","99727","","null","","","null","28","","","","","","","","","","","","","","","",""
"","ISI","","html-keyboard-response","190","297838","0.0-1.0-255.0","0","0","99727","","null","","","null","28","NaN","","","","","","","","","","","","","","",""
"","S2","","html-keyboard-response","191","297993","0.0-1.0-256.0","0","0","99727","","null","","","null","28","","NaN","","","","","","","","","","","","","",""
"","response","","html-keyboard-response","192","298129","0.0-1.0-257.0-0.0","0","0","99727","","133","","","75","28","","","1","28","training","adjacent","DE","4","5","R.jpg","O.jpg","1","1","1","",""
"","feedback","","html-keyboard-response","193","299134","0.0-1.0-258.0-0.0","0","0","99727","","null","","","null","28","","","","","","","","","","","","","","","",""
"","ITI","","html-keyboard-response","194","300139","0.0-1.0-261.0","0","0","99727","","null","","","null","28","","","","","","","","","","","","","","","NaN",""
"","S1","","html-keyboard-response","195","300295","0.0-1.0-263.0","0","0","99727","","null","","","null","29","","","","","","","","","","","","","","","",""
"","ISI","","html-keyboard-response","196","302299","0.0-1.0-264.0","0","0","99727","","null","","","null","29","NaN","","","","","","","","","","","","","","",""
"","S2","","html-keyboard-response","197","302453","0.0-1.0-265.0","0","0","99727","","null","","","null","29","","NaN","","","","","","","","","","","","","",""
"","response","","html-keyboard-response","198","302585","0.0-1.0-266.0-0.0","0","0","99727","","128","","","75","29","","","1","29","training","adjacent","AB","1","2","Q.jpg","L.jpg","1","1","1","",""
"","feedback","","html-keyboard-response","199","303590","0.0-1.0-267.0-0.0","0","0","99727","","null","","","null","29","","","","","","","","","","","","","","","",""
"","ITI","","html-keyboard-response","200","304594","0.0-1.0-270.0","0","0","99727","","null","","","null","29","","","","","","","","","","","","","","","NaN",""
"","S1","","html-keyboard-response","201","304748","0.0-1.0-272.0","0","0","99727","","null","","","null","30","","","","","","","","","","","","","","","",""
"","ISI","","html-keyboard-response","202","306753","0.0-1.0-273.0","0","0","99727","","null","","","null","30","NaN","","","","","","","","","","","","","","",""
"","S2","","html-keyboard-response","203","306908","0.0-1.0-274.0","0","0","99727","","null","","","null","30","","NaN","","","","","","","","","","","","","",""
"","response","","html-keyboard-response","204","307026","0.0-1.0-275.0-0.0","0","0","99727","","114","","","75","30","","","1","30","training","adjacent","FG","6","7","N.jpg","P.jpg","1","1","1","",""
"","feedback","","html-keyboard-response","205","308031","0.0-1.0-276.0-0.0","0","0","99727","","null","","","null","30","","","","","","","","","","","","","","","",""
"","ITI","","html-keyboard-response","206","309036","0.0-1.0-279.0","0","0","99727","","null","","","null","30","","","","","","","","","","","","","","","NaN",""
"","S1","","html-keyboard-response","207","309190","0.0-1.0-281.0","0","0","99727","","null","","","null","31","","","","","","","","","","","","","","","",""
"","ISI","","html-keyboard-response","208","311194","0.0-1.0-282.0","0","0","99727","","null","","","null","31","NaN","","","","","","","","","","","","","","",""
"","S2","","html-keyboard-response","209","311349","0.0-1.0-283.0","0","0","99727","","null","","","null","31","","NaN","","","","","","","","","","","","","",""
"","response","","html-keyboard-response","210","311569","0.0-1.0-284.0-0.0","0","0","99727","","217","","","75","31","","","1","31","training","adjacent","CB","3","2","M.jpg","L.jpg","1","0","0","",""
"","feedback","","html-keyboard-response","211","312573","0.0-1.0-285.0-0.0","0","0","99727","","null","","","null","31","","","","","","","","","","","","","","","",""
"","time_out","","html-keyboard-response","212","314577","0.0-1.0-287.0-0.0","0","0","99727","","null","","","null","31","","","","","","","","","","","","","","","",""
"","ITI","","html-keyboard-response","213","315582","0.0-1.0-288.0","0","0","99727","","null","","","null","31","","","","","","","","","","","","","","","NaN",""
"","S1","","html-keyboard-response","214","315736","0.0-1.0-290.0","0","0","99727","","null","","","null","32","","","","","","","","","","","","","","","",""
"","ISI","","html-keyboard-response","215","317740","0.0-1.0-291.0","0","0","99727","","null","","","null","32","NaN","","","","","","","","","","","","","","",""
"","S2","","html-keyboard-response","216","317893","0.0-1.0-292.0","0","0","99727","","null","","","null","32","","NaN","","","","","","","","","","","","","",""
"","response","","html-keyboard-response","217","318081","0.0-1.0-293.0-0.0","0","0","99727","","186","","","68","32","","","1","32","training","adjacent","CB","3","2","M.jpg","L.jpg","0","0","1","",""
"","feedback","","html-keyboard-response","218","319086","0.0-1.0-294.0-0.0","0","0","99727","","null","","","null","32","","","","","","","","","","","","","","","",""
"","ITI","","html-keyboard-response","219","320090","0.0-1.0-297.0","0","0","99727","","null","","","null","32","","","","","","","","","","","","","","","NaN",""
"","S1","","html-keyboard-response","220","320245","0.0-1.0-299.0","0","0","99727","","null","","","null","33","","","","","","","","","","","","","","","",""
"","ISI","","html-keyboard-response","221","322250","0.0-1.0-300.0","0","0","99727","","null","","","null","33","NaN","","","","","","","","","","","","","","",""
"","S2","","html-keyboard-response","222","322405","0.0-1.0-301.0","0","0","99727","","null","","","null","33","","NaN","","","","","","","","","","","","","",""
"","response","","html-keyboard-response","223","323073","0.0-1.0-302.0-0.0","0","0","99727","","666","","","68","33","","","1","33","training","adjacent","FE","6","5","N.jpg","O.jpg","0","0","1","",""
"","feedback","","html-keyboard-response","224","324075","0.0-1.0-303.0-0.0","0","0","99727","","null","","","null","33","","","","","","","","","","","","","","","",""
"","ITI","","html-keyboard-response","225","325079","0.0-1.0-306.0","0","0","99727","","null","","","null","33","","","","","","","","","","","","","","","NaN",""
"","S1","","html-keyboard-response","226","325234","0.0-1.0-308.0","0","0","99727","","null","","","null","34","","","","","","","","","","","","","","","",""
"","ISI","","html-keyboard-response","227","327238","0.0-1.0-309.0","0","0","99727","","null","","","null","34","NaN","","","","","","","","","","","","","","",""
"","S2","","html-keyboard-response","228","327393","0.0-1.0-310.0","0","0","99727","","null","","","null","34","","NaN","","","","","","","","","","","","","",""
"","response","","html-keyboard-response","229","327649","0.0-1.0-311.0-0.0","0","0","99727","","253","","","68","34","","","1","34","training","adjacent","FE","6","5","N.jpg","O.jpg","0","0","1","",""
"","feedback","","html-keyboard-response","230","328654","0.0-1.0-312.0-0.0","0","0","99727","","null","","","null","34","","","","","","","","","","","","","","","",""
"","ITI","","html-keyboard-response","231","329659","0.0-1.0-315.0","0","0","99727","","null","","","null","34","","","","","","","","","","","","","","","NaN",""
"","S1","","html-keyboard-response","232","329814","0.0-1.0-317.0","0","0","99727","","null","","","null","35","","","","","","","","","","","","","","","",""
"","ISI","","html-keyboard-response","233","331818","0.0-1.0-318.0","0","0","99727","","null","","","null","35","NaN","","","","","","","","","","","","","","",""
"","S2","","html-keyboard-response","234","331974","0.0-1.0-319.0","0","0","99727","","null","","","null","35","","NaN","","","","","","","","","","","","","",""
"","response","","html-keyboard-response","235","332217","0.0-1.0-320.0-0.0","0","0","99727","","239","","","75","35","","","1","35","training","adjacent","DE","4","5","R.jpg","O.jpg","1","1","1","",""
"","feedback","","html-keyboard-response","236","333224","0.0-1.0-321.0-0.0","0","0","99727","","null","","","null","35","","","","","","","","","","","","","","","",""
"","ITI","","html-keyboard-response","237","334229","0.0-1.0-324.0","0","0","99727","","null","","","null","35","","","","","","","","","","","","","","","NaN",""
"","S1","","html-keyboard-response","238","334382","0.0-1.0-326.0","0","0","99727","","null","","","null","36","","","","","","","","","","","","","","","",""
"","ISI","","html-keyboard-response","239","336386","0.0-1.0-327.0","0","0","99727","","null","","","null","36","NaN","","","","","","","","","","","","","","",""
"","S2","","html-keyboard-response","240","336541","0.0-1.0-328.0","0","0","99727","","null","","","null","36","","NaN","","","","","","","","","","","","","",""
"","response","","html-keyboard-response","241","336713","0.0-1.0-329.0-0.0","0","0","99727","","169","","","75","36","","","1","36","training","adjacent","CB","3","2","M.jpg","L.jpg","1","0","0","",""
"","feedback","","html-keyboard-response","242","337718","0.0-1.0-330.0-0.0","0","0","99727","","null","","","null","36","","","","","","","","","","","","","","","",""
"","time_out","","html-keyboard-response","243","339723","0.0-1.0-332.0-0.0","0","0","99727","","null","","","null","36","","","","","","","","","","","","","","","",""
"","ITI","","html-keyboard-response","244","340728","0.0-1.0-333.0","0","0","99727","","null","","","null","36","","","","","","","","","","","","","","","NaN",""
"","S1","","html-keyboard-response","245","340883","0.0-1.0-335.0","0","0","99727","","null","","","null","37","","","","","","","","","","","","","","","",""
"","ISI","","html-keyboard-response","246","342887","0.0-1.0-336.0","0","0","99727","","null","","","null","37","NaN","","","","","","","","","","","","","","",""
"","S2","","html-keyboard-response","247","343042","0.0-1.0-337.0","0","0","99727","","null","","","null","37","","NaN","","","","","","","","","","","","","",""
"","response","","html-keyboard-response","248","343242","0.0-1.0-338.0-0.0","0","0","99727","","196","","","68","37","","","1","37","training","adjacent","GF","7","6","P.jpg","N.jpg","0","0","1","",""
"","feedback","","html-keyboard-response","249","344247","0.0-1.0-339.0-0.0","0","0","99727","","null","","","null","37","","","","","","","","","","","","","","","",""
"","ITI","","html-keyboard-response","250","345252","0.0-1.0-342.0","0","0","99727","","null","","","null","37","","","","","","","","","","","","","","","NaN",""
"","S1","","html-keyboard-response","251","345406","0.0-1.0-344.0","0","0","99727","","null","","","null","38","","","","","","","","","","","","","","","",""
"","ISI","","html-keyboard-response","252","347409","0.0-1.0-345.0","0","0","99727","","null","","","null","38","NaN","","","","","","","","","","","","","","",""
"","S2","","html-keyboard-response","253","347563","0.0-1.0-346.0","0","0","99727","","null","","","null","38","","NaN","","","","","","","","","","","","","",""
"","response","","html-keyboard-response","254","347711","0.0-1.0-347.0-0.0","0","0","99727","","145","","","75","38","","","1","38","training","adjacent","ED","5","4","O.jpg","R.jpg","1","0","0","",""
"","feedback","","html-keyboard-response","255","348715","0.0-1.0-348.0-0.0","0","0","99727","","null","","","null","38","","","","","","","","","","","","","","","",""
"","time_out","","html-keyboard-response","256","350720","0.0-1.0-350.0-0.0","0","0","99727","","null","","","null","38","","","","","","","","","","","","","","","",""
"","ITI","","html-keyboard-response","257","351723","0.0-1.0-351.0","0","0","99727","","null","","","null","38","","","","","","","","","","","","","","","NaN",""
"","S1","","html-keyboard-response","258","351877","0.0-1.0-353.0","0","0","99727","","null","","","null","39","","","","","","","","","","","","","","","",""
"","ISI","","html-keyboard-response","259","353881","0.0-1.0-354.0","0","0","99727","","null","","","null","39","NaN","","","","","","","","","","","","","","",""
"","S2","","html-keyboard-response","260","354036","0.0-1.0-355.0","0","0","99727","","null","","","null","39","","NaN","","","","","","","","","","","","","",""
"","response","","html-keyboard-response","261","354145","0.0-1.0-356.0-0.0","0","0","99727","","106","","","68","39","","","1","39","training","adjacent","BA","2","1","L.jpg","Q.jpg","0","0","1","",""
"","feedback","","html-keyboard-response","262","355150","0.0-1.0-357.0-0.0","0","0","99727","","null","","","null","39","","","","","","","","","","","","","","","",""
"","ITI","","html-keyboard-response","263","356155","0.0-1.0-360.0","0","0","99727","","null","","","null","39","","","","","","","","","","","","","","","NaN",""
"","S1","","html-keyboard-response","264","356309","0.0-1.0-362.0","0","0","99727","","null","","","null","40","","","","","","","","","","","","","","","",""
"","ISI","","html-keyboard-response","265","358312","0.0-1.0-363.0","0","0","99727","","null","","","null","40","NaN","","","","","","","","","","","","","","",""
"","S2","","html-keyboard-response","266","358466","0.0-1.0-364.0","0","0","99727","","null","","","null","40","","NaN","","","","","","","","","","","","","",""
"","response","","html-keyboard-response","267","359001","0.0-1.0-365.0-0.0","0","0","99727","","532","","","75","40","","","1","40","training","adjacent","DC","4","3","R.jpg","M.jpg","1","0","0","",""
"","feedback","","html-keyboard-response","268","360007","0.0-1.0-366.0-0.0","0","0","99727","","null","","","null","40","","","","","","","","","","","","","","","",""
"","time_out","","html-keyboard-response","269","362011","0.0-1.0-368.0-0.0","0","0","99727","","null","","","null","40","","","","","","","","","","","","","","","",""
"","ITI","","html-keyboard-response","270","363015","0.0-1.0-369.0","0","0","99727","","null","","","null","40","","","","","","","","","","","","","","","NaN",""
"","S1","","html-keyboard-response","271","363169","0.0-1.0-371.0","0","0","99727","","null","","","null","41","","","","","","","","","","","","","","","",""
"","ISI","","html-keyboard-response","272","365173","0.0-1.0-372.0","0","0","99727","","null","","","null","41","NaN","","","","","","","","","","","","","","",""
"","S2","","html-keyboard-response","273","365327","0.0-1.0-373.0","0","0","99727","","null","","","null","41","","NaN","","","","","","","","","","","","","",""
"","response","","html-keyboard-response","274","365480","0.0-1.0-374.0-0.0","0","0","99727","","150","","","75","41","","","1","41","training","adjacent","EF","5","6","O.jpg","N.jpg","1","1","1","",""
"","feedback","","html-keyboard-response","275","366485","0.0-1.0-375.0-0.0","0","0","99727","","null","","","null","41","","","","","","","","","","","","","","","",""
"","ITI","","html-keyboard-response","276","367489","0.0-1.0-378.0","0","0","99727","","null","","","null","41","","","","","","","","","","","","","","","NaN",""
"","S1","","html-keyboard-response","277","367642","0.0-1.0-380.0","0","0","99727","","null","","","null","42","","","","","","","","","","","","","","","",""
"","ISI","","html-keyboard-response","278","369645","0.0-1.0-381.0","0","0","99727","","null","","","null","42","NaN","","","","","","","","","","","","","","",""
"","S2","","html-keyboard-response","279","369799","0.0-1.0-382.0","0","0","99727","","null","","","null","42","","NaN","","","","","","","","","","","","","",""
"","response","","html-keyboard-response","280","369913","0.0-1.0-383.0-0.0","0","0","99727","","111","","","68","42","","","1","42","training","adjacent","BC","2","3","L.jpg","M.jpg","0","1","0","",""
"","feedback","","html-keyboard-response","281","370917","0.0-1.0-384.0-0.0","0","0","99727","","null","","","null","42","","","","","","","","","","","","","","","",""
"","time_out","","html-keyboard-response","282","372920","0.0-1.0-386.0-0.0","0","0","99727","","null","","","null","42","","","","","","","","","","","","","","","",""
"","ITI","","html-keyboard-response","283","373925","0.0-1.0-387.0","0","0","99727","","null","","","null","42","","","","","","","","","","","","","","","NaN",""
"","S1","","html-keyboard-response","284","374079","0.0-1.0-389.0","0","0","99727","","null","","","null","43","","","","","","","","","","","","","","","",""
"","ISI","","html-keyboard-response","285","376088","0.0-1.0-390.0","0","0","99727","","null","","","null","43","NaN","","","","","","","","","","","","","","",""
"","S2","","html-keyboard-response","286","376243","0.0-1.0-391.0","0","0","99727","","null","","","null","43","","NaN","","","","","","","","","","","","","",""
"","response","","html-keyboard-response","287","376345","0.0-1.0-392.0-0.0","0","0","99727","","98","","","68","43","","","1","43","training","adjacent","EF","5","6","O.jpg","N.jpg","0","1","0","",""
"","feedback","","html-keyboard-response","288","377350","0.0-1.0-393.0-0.0","0","0","99727","","null","","","null","43","","","","","","","","","","","","","","","",""
"","time_out","","html-keyboard-response","289","379354","0.0-1.0-395.0-0.0","0","0","99727","","null","","","null","43","","","","","","","","","","","","","","","",""
"","ITI","","html-keyboard-response","290","380360","0.0-1.0-396.0","0","0","99727","","null","","","null","43","","","","","","","","","","","","","","","NaN",""
"","S1","","html-keyboard-response","291","380514","0.0-1.0-398.0","0","0","99727","","null","","","null","44","","","","","","","","","","","","","","","",""
"","ISI","","html-keyboard-response","292","382518","0.0-1.0-399.0","0","0","99727","","null","","","null","44","NaN","","","","","","","","","","","","","","",""
"","S2","","html-keyboard-response","293","382672","0.0-1.0-400.0","0","0","99727","","null","","","null","44","","NaN","","","","","","","","","","","","","",""
"","response","","html-keyboard-response","294","382786","0.0-1.0-401.0-0.0","0","0","99727","","111","","","75","44","","","1","44","training","adjacent","GF","7","6","P.jpg","N.jpg","1","0","0","",""
"","feedback","","html-keyboard-response","295","383792","0.0-1.0-402.0-0.0","0","0","99727","","null","","","null","44","","","","","","","","","","","","","","","",""
"","time_out","","html-keyboard-response","296","385797","0.0-1.0-404.0-0.0","0","0","99727","","null","","","null","44","","","","","","","","","","","","","","","",""
"","ITI","","html-keyboard-response","297","386801","0.0-1.0-405.0","0","0","99727","","null","","","null","44","","","","","","","","","","","","","","","NaN",""
"","S1","","html-keyboard-response","298","386956","0.0-1.0-407.0","0","0","99727","","null","","","null","45","","","","","","","","","","","","","","","",""
"","ISI","","html-keyboard-response","299","388961","0.0-1.0-408.0","0","0","99727","","null","","","null","45","NaN","","","","","","","","","","","","","","",""
"","S2","","html-keyboard-response","300","389116","0.0-1.0-409.0","0","0","99727","","null","","","null","45","","NaN","","","","","","","","","","","","","",""
"","response","","html-keyboard-response","301","389329","0.0-1.0-410.0-0.0","0","0","99727","","209","","","68","45","","","1","45","training","adjacent","CD","3","4","M.jpg","R.jpg","0","1","0","",""
"","feedback","","html-keyboard-response","302","390335","0.0-1.0-411.0-0.0","0","0","99727","","null","","","null","45","","","","","","","","","","","","","","","",""
"","time_out","","html-keyboard-response","303","392339","0.0-1.0-413.0-0.0","0","0","99727","","null","","","null","45","","","","","","","","","","","","","","","",""
"","ITI","","html-keyboard-response","304","393343","0.0-1.0-414.0","0","0","99727","","null","","","null","45","","","","","","","","","","","","","","","NaN",""
"","S1","","html-keyboard-response","305","393498","0.0-1.0-416.0","0","0","99727","","null","","","null","46","","","","","","","","","","","","","","","",""
"","ISI","","html-keyboard-response","306","395502","0.0-1.0-417.0","0","0","99727","","null","","","null","46","NaN","","","","","","","","","","","","","","",""
"","S2","","html-keyboard-response","307","395655","0.0-1.0-418.0","0","0","99727","","null","","","null","46","","NaN","","","","","","","","","","","","","",""
"","response","","html-keyboard-response","308","395769","0.0-1.0-419.0-0.0","0","0","99727","","110","","","68","46","","","1","46","training","adjacent","ED","5","4","O.jpg","R.jpg","0","0","1","",""
"","feedback","","html-keyboard-response","309","396774","0.0-1.0-420.0-0.0","0","0","99727","","null","","","null","46","","","","","","","","","","","","","","","",""
"","ITI","","html-keyboard-response","310","397778","0.0-1.0-423.0","0","0","99727","","null","","","null","46","","","","","","","","","","","","","","","NaN",""
"","S1","","html-keyboard-response","311","397932","0.0-1.0-425.0","0","0","99727","","null","","","null","47","","","","","","","","","","","","","","","",""
"","ISI","","html-keyboard-response","312","399936","0.0-1.0-426.0","0","0","99727","","null","","","null","47","NaN","","","","","","","","","","","","","","",""
"","S2","","html-keyboard-response","313","400089","0.0-1.0-427.0","0","0","99727","","null","","","null","47","","NaN","","","","","","","","","","","","","",""
"","response","","html-keyboard-response","314","400271","0.0-1.0-428.0-0.0","0","0","99727","","180","","","75","47","","","1","47","training","adjacent","ED","5","4","O.jpg","R.jpg","1","0","0","",""
"","feedback","","html-keyboard-response","315","401276","0.0-1.0-429.0-0.0","0","0","99727","","null","","","null","47","","","","","","","","","","","","","","","",""
"","time_out","","html-keyboard-response","316","403281","0.0-1.0-431.0-0.0","0","0","99727","","null","","","null","47","","","","","","","","","","","","","","","",""
"","ITI","","html-keyboard-response","317","404285","0.0-1.0-432.0","0","0","99727","","null","","","null","47","","","","","","","","","","","","","","","NaN",""
"","block_over","","html-keyboard-response","318","780108","0.0-1.0-433.0-0.0","0","0","99727","","375818","","","32","47","","","","","","","","","","","","","","","",""
"","S1","","html-keyboard-response","319","780263","0.0-1.0-434.0","0","0","99727","","null","","","null","48","","","","","","","","","","","","","","","",""
"","ISI","","html-keyboard-response","320","782267","0.0-1.0-435.0","0","0","99727","","null","","","null","48","NaN","","","","","","","","","","","","","","",""
"","S2","","html-keyboard-response","321","782431","0.0-1.0-436.0","0","0","99727","","null","","","null","48","","NaN","","","","","","","","","","","","","",""
"","response","","html-keyboard-response","322","782776","0.0-1.0-437.0-0.0","0","0","99727","","342","","","75","48","","","2","48","training","adjacent","BC","2","3","L.jpg","M.jpg","1","1","1","",""
"","feedback","","html-keyboard-response","323","783781","0.0-1.0-438.0-0.0","0","0","99727","","null","","","null","48","","","","","","","","","","","","","","","",""
"","ITI","","html-keyboard-response","324","784786","0.0-1.0-441.0","0","0","99727","","null","","","null","48","","","","","","","","","","","","","","","NaN",""
"","S1","","html-keyboard-response","325","784948","0.0-1.0-443.0","0","0","99727","","null","","","null","49","","","","","","","","","","","","","","","",""
"","ISI","","html-keyboard-response","326","786951","0.0-1.0-444.0","0","0","99727","","null","","","null","49","NaN","","","","","","","","","","","","","","",""
"","S2","","html-keyboard-response","327","787105","0.0-1.0-445.0","0","0","99727","","null","","","null","49","","NaN","","","","","","","","","","","","","",""
"","response","","html-keyboard-response","328","787272","0.0-1.0-446.0-0.0","0","0","99727","","164","","","75","49","","","2","49","training","adjacent","AB","1","2","Q.jpg","L.jpg","1","1","1","",""
"","feedback","","html-keyboard-response","329","788278","0.0-1.0-447.0-0.0","0","0","99727","","null","","","null","49","","","","","","","","","","","","","","","",""
"","ITI","","html-keyboard-response","330","789282","0.0-1.0-450.0","0","0","99727","","null","","","null","49","","","","","","","","","","","","","","","NaN",""
"","S1","","html-keyboard-response","331","789437","0.0-1.0-452.0","0","0","99727","","null","","","null","50","","","","","","","","","","","","","","","",""
"","ISI","","html-keyboard-response","332","791441","0.0-1.0-453.0","0","0","99727","","null","","","null","50","NaN","","","","","","","","","","","","","","",""
"","S2","","html-keyboard-response","333","791596","0.0-1.0-454.0","0","0","99727","","null","","","null","50","","NaN","","","","","","","","","","","","","",""
"","response","","html-keyboard-response","334","792359","0.0-1.0-455.0-0.0","0","0","99727","","760","","","75","50","","","2","50","training","adjacent","DC","4","3","R.jpg","M.jpg","1","0","0","",""
"","feedback","","html-keyboard-response","335","793365","0.0-1.0-456.0-0.0","0","0","99727","","null","","","null","50","","","","","","","","","","","","","","","",""
"","time_out","","html-keyboard-response","336","795368","0.0-1.0-458.0-0.0","0","0","99727","","null","","","null","50","","","","","","","","","","","","","","","",""
"","ITI","","html-keyboard-response","337","796372","0.0-1.0-459.0","0","0","99727","","null","","","null","50","","","","","","","","","","","","","","","NaN",""
"","S1","","html-keyboard-response","338","796527","0.0-1.0-461.0","0","0","99727","","null","","","null","51","","","","","","","","","","","","","","","",""
"","ISI","","html-keyboard-response","339","798531","0.0-1.0-462.0","0","0","99727","","null","","","null","51","NaN","","","","","","","","","","","","","","",""
"","S2","","html-keyboard-response","340","798686","0.0-1.0-463.0","0","0","99727","","null","","","null","51","","NaN","","","","","","","","","","","","","",""
"","response","","html-keyboard-response","341","799224","0.0-1.0-464.0-0.0","0","0","99727","","534","","","75","51","","","2","51","training","adjacent","BA","2","1","L.jpg","Q.jpg","1","0","0","",""
"","feedback","","html-keyboard-response","342","800229","0.0-1.0-465.0-0.0","0","0","99727","","null","","","null","51","","","","","","","","","","","","","","","",""
"","time_out","","html-keyboard-response","343","802234","0.0-1.0-467.0-0.0","0","0","99727","","null","","","null","51","","","","","","","","","","","","","","","",""
"","ITI","","html-keyboard-response","344","803239","0.0-1.0-468.0","0","0","99727","","null","","","null","51","","","","","","","","","","","","","","","NaN",""
"","S1","","html-keyboard-response","345","803393","0.0-1.0-470.0","0","0","99727","","null","","","null","52","","","","","","","","","","","","","","","",""
"","ISI","","html-keyboard-response","346","805399","0.0-1.0-471.0","0","0","99727","","null","","","null","52","NaN","","","","","","","","","","","","","","",""
"","S2","","html-keyboard-response","347","805554","0.0-1.0-472.0","0","0","99727","","null","","","null","52","","NaN","","","","","","","","","","","","","",""
"","response","","html-keyboard-response","348","806175","0.0-1.0-473.0-0.0","0","0","99727","","618","","","68","52","","","2","52","training","adjacent","EF","5","6","O.jpg","N.jpg","0","1","0","",""
"","feedback","","html-keyboard-response","349","807180","0.0-1.0-474.0-0.0","0","0","99727","","null","","","null","52","","","","","","","","","","","","","","","",""
"","time_out","","html-keyboard-response","350","809184","0.0-1.0-476.0-0.0","0","0","99727","","null","","","null","52","","","","","","","","","","","","","","","",""
"","ITI","","html-keyboard-response","351","810187","0.0-1.0-477.0","0","0","99727","","null","","","null","52","","","","","","","","","","","","","","","NaN",""
"","S1","","html-keyboard-response","352","810347","0.0-1.0-479.0","0","0","99727","","null","","","null","53","","","","","","","","","","","","","","","",""
"","ISI","","html-keyboard-response","353","812351","0.0-1.0-480.0","0","0","99727","","null","","","null","53","NaN","","","","","","","","","","","","","","",""
"","S2","","html-keyboard-response","354","812506","0.0-1.0-481.0","0","0","99727","","null","","","null","53","","NaN","","","","","","","","","","","","","",""
"","response","","html-keyboard-response","355","812632","0.0-1.0-482.0-0.0","0","0","99727","","122","","","75","53","","","2","53","training","adjacent","BA","2","1","L.jpg","Q.jpg","1","0","0","",""
"","feedback","","html-keyboard-response","356","813637","0.0-1.0-483.0-0.0","0","0","99727","","null","","","null","53","","","","","","","","","","","","","","","",""
"","time_out","","html-keyboard-response","357","815641","0.0-1.0-485.0-0.0","0","0","99727","","null","","","null","53","","","","","","","","","","","","","","","",""
"","ITI","","html-keyboard-response","358","816644","0.0-1.0-486.0","0","0","99727","","null","","","null","53","","","","","","","","","","","","","","","NaN",""
"","S1","","html-keyboard-response","359","816797","0.0-1.0-488.0","0","0","99727","","null","","","null","54","","","","","","","","","","","","","","","",""
"","ISI","","html-keyboard-response","360","818800","0.0-1.0-489.0","0","0","99727","","null","","","null","54","NaN","","","","","","","","","","","","","","",""
"","S2","","html-keyboard-response","361","818954","0.0-1.0-490.0","0","0","99727","","null","","","null","54","","NaN","","","","","","","","","","","","","",""
"","response","","html-keyboard-response","362","819136","0.0-1.0-491.0-0.0","0","0","99727","","179","","","75","54","","","2","54","training","adjacent","CD","3","4","M.jpg","R.jpg","1","1","1","",""
"","feedback","","html-keyboard-response","363","820142","0.0-1.0-492.0-0.0","0","0","99727","","null","","","null","54","","","","","","","","","","","","","","","",""
"","ITI","","html-keyboard-response","364","821146","0.0-1.0-495.0","0","0","99727","","null","","","null","54","","","","","","","","","","","","","","","NaN",""
"","S1","","html-keyboard-response","365","821302","0.0-1.0-497.0","0","0","99727","","null","","","null","55","","","","","","","","","","","","","","","",""
"","ISI","","html-keyboard-response","366","823306","0.0-1.0-498.0","0","0","99727","","null","","","null","55","NaN","","","","","","","","","","","","","","",""
"","S2","","html-keyboard-response","367","823465","0.0-1.0-499.0","0","0","99727","","null","","","null","55","","NaN","","","","","","","","","","","","","",""
"","response","","html-keyboard-response","368","823953","0.0-1.0-500.0-0.0","0","0","99727","","484","","","68","55","","","2","55","training","adjacent","DC","4","3","R.jpg","M.jpg","0","0","1","",""
"","feedback","","html-keyboard-response","369","824957","0.0-1.0-501.0-0.0","0","0","99727","","null","","","null","55","","","","","","","","","","","","","","","",""
"","ITI","","html-keyboard-response","370","825960","0.0-1.0-504.0","0","0","99727","","null","","","null","55","","","","","","","","","","","","","","","NaN",""
"","S1","","html-keyboard-response","371","826115","0.0-1.0-506.0","0","0","99727","","null","","","null","56","","","","","","","","","","","","","","","",""
"","ISI","","html-keyboard-response","372","828120","0.0-1.0-507.0","0","0","99727","","null","","","null","56","NaN","","","","","","","","","","","","","","",""
"","S2","","html-keyboard-response","373","828274","0.0-1.0-508.0","0","0","99727","","null","","","null","56","","NaN","","","","","","","","","","","","","",""
"","response","","html-keyboard-response","374","828984","0.0-1.0-509.0-0.0","0","0","99727","","707","","","75","56","","","2","56","training","adjacent","GF","7","6","P.jpg","N.jpg","1","0","0","",""
"","feedback","","html-keyboard-response","375","829990","0.0-1.0-510.0-0.0","0","0","99727","","null","","","null","56","","","","","","","","","","","","","","","",""
"","time_out","","html-keyboard-response","376","831994","0.0-1.0-512.0-0.0","0","0","99727","","null","","","null","56","","","","","","","","","","","","","","","",""
"","ITI","","html-keyboard-response","377","832998","0.0-1.0-513.0","0","0","99727","","null","","","null","56","","","","","","","","","","","","","","","NaN",""
"","S1","","html-keyboard-response","378","833154","0.0-1.0-515.0","0","0","99727","","null","","","null","57","","","","","","","","","","","","","","","",""
"","ISI","","html-keyboard-response","379","835158","0.0-1.0-516.0","0","0","99727","","null","","","null","57","NaN","","","","","","","","","","","","","","",""
"","S2","","html-keyboard-response","380","835313","0.0-1.0-517.0","0","0","99727","","null","","","null","57","","NaN","","","","","","","","","","","","","",""
"","response","","html-keyboard-response","381","835917","0.0-1.0-518.0-0.0","0","0","99727","","602","","","75","57","","","2","57","training","adjacent","DE","4","5","R.jpg","O.jpg","1","1","1","",""
"","feedback","","html-keyboard-response","382","836921","0.0-1.0-519.0-0.0","0","0","99727","","null","","","null","57","","","","","","","","","","","","","","","",""
"","ITI","","html-keyboard-response","383","837925","0.0-1.0-522.0","0","0","99727","","null","","","null","57","","","","","","","","","","","","","","","NaN",""
"","S1","","html-keyboard-response","384","838079","0.0-1.0-524.0","0","0","99727","","null","","","null","58","","","","","","","","","","","","","","","",""
"","ISI","","html-keyboard-response","385","840084","0.0-1.0-525.0","0","0","99727","","null","","","null","58","NaN","","","","","","","","","","","","","","",""
"","S2","","html-keyboard-response","386","840238","0.0-1.0-526.0","0","0","99727","","null","","","null","58","","NaN","","","","","","","","","","","","","",""
"","response","","html-keyboard-response","387","840767","0.0-1.0-527.0-0.0","0","0","99727","","526","","","75","58","","","2","58","training","adjacent","AB","1","2","Q.jpg","L.jpg","1","1","1","",""
"","feedback","","html-keyboard-response","388","841772","0.0-1.0-528.0-0.0","0","0","99727","","null","","","null","58","","","","","","","","","","","","","","","",""
"","ITI","","html-keyboard-response","389","842777","0.0-1.0-531.0","0","0","99727","","null","","","null","58","","","","","","","","","","","","","","","NaN",""
"","S1","","html-keyboard-response","390","842931","0.0-1.0-533.0","0","0","99727","","null","","","null","59","","","","","","","","","","","","","","","",""
"","ISI","","html-keyboard-response","391","844934","0.0-1.0-534.0","0","0","99727","","null","","","null","59","NaN","","","","","","","","","","","","","","",""
"","S2","","html-keyboard-response","392","845087","0.0-1.0-535.0","0","0","99727","","null","","","null","59","","NaN","","","","","","","","","","","","","",""
"","response","","html-keyboard-response","393","845280","0.0-1.0-536.0-0.0","0","0","99727","","190","","","68","59","","","2","59","training","adjacent","EF","5","6","O.jpg","N.jpg","0","1","0","",""
"","feedback","","html-keyboard-response","394","846285","0.0-1.0-537.0-0.0","0","0","99727","","null","","","null","59","","","","","","","","","","","","","","","",""
"","time_out","","html-keyboard-response","395","848289","0.0-1.0-539.0-0.0","0","0","99727","","null","","","null","59","","","","","","","","","","","","","","","",""
"","ITI","","html-keyboard-response","396","849294","0.0-1.0-540.0","0","0","99727","","null","","","null","59","","","","","","","","","","","","","","","NaN",""
"","S1","","html-keyboard-response","397","849462","0.0-1.0-542.0","0","0","99727","","null","","","null","60","","","","","","","","","","","","","","","",""
"","ISI","","html-keyboard-response","398","851466","0.0-1.0-543.0","0","0","99727","","null","","","null","60","NaN","","","","","","","","","","","","","","",""
"","S2","","html-keyboard-response","399","851621","0.0-1.0-544.0","0","0","99727","","null","","","null","60","","NaN","","","","","","","","","","","","","",""
"","response","","html-keyboard-response","400","851977","0.0-1.0-545.0-0.0","0","0","99727","","353","","","75","60","","","2","60","training","adjacent","FE","6","5","N.jpg","O.jpg","1","0","0","",""
"","feedback","","html-keyboard-response","401","852982","0.0-1.0-546.0-0.0","0","0","99727","","null","","","null","60","","","","","","","","","","","","","","","",""
"","time_out","","html-keyboard-response","402","854986","0.0-1.0-548.0-0.0","0","0","99727","","null","","","null","60","","","","","","","","","","","","","","","",""
"","ITI","","html-keyboard-response","403","855990","0.0-1.0-549.0","0","0","99727","","null","","","null","60","","","","","","","","","","","","","","","NaN",""
"","S1","","html-keyboard-response","404","856142","0.0-1.0-551.0","0","0","99727","","null","","","null","61","","","","","","","","","","","","","","","",""
"","ISI","","html-keyboard-response","405","858146","0.0-1.0-552.0","0","0","99727","","null","","","null","61","NaN","","","","","","","","","","","","","","",""
"","S2","","html-keyboard-response","406","858309","0.0-1.0-553.0","0","0","99727","","null","","","null","61","","NaN","","","","","","","","","","","","","",""
"","response","","html-keyboard-response","407","858616","0.0-1.0-554.0-0.0","0","0","99727","","303","","","75","61","","","2","61","training","adjacent","FG","6","7","N.jpg","P.jpg","1","1","1","",""
"","feedback","","html-keyboard-response","408","859619","0.0-1.0-555.0-0.0","0","0","99727","","null","","","null","61","","","","","","","","","","","","","","","",""
"","ITI","","html-keyboard-response","409","860624","0.0-1.0-558.0","0","0","99727","","null","","","null","61","","","","","","","","","","","","","","","NaN",""
"","S1","","html-keyboard-response","410","860778","0.0-1.0-560.0","0","0","99727","","null","","","null","62","","","","","","","","","","","","","","","",""
"","ISI","","html-keyboard-response","411","862782","0.0-1.0-561.0","0","0","99727","","null","","","null","62","NaN","","","","","","","","","","","","","","",""
"","S2","","html-keyboard-response","412","862937","0.0-1.0-562.0","0","0","99727","","null","","","null","62","","NaN","","","","","","","","","","","","","",""
"","response","","html-keyboard-response","413","863120","0.0-1.0-563.0-0.0","0","0","99727","","179","","","68","62","","","2","62","training","adjacent","DE","4","5","R.jpg","O.jpg","0","1","0","",""
"","feedback","","html-keyboard-response","414","864125","0.0-1.0-564.0-0.0","0","0","99727","","null","","","null","62","","","","","","","","","","","","","","","",""
"","time_out","","html-keyboard-response","415","866128","0.0-1.0-566.0-0.0","0","0","99727","","null","","","null","62","","","","","","","","","","","","","","","",""
"","ITI","","html-keyboard-response","416","867131","0.0-1.0-567.0","0","0","99727","","null","","","null","62","","","","","","","","","","","","","","","NaN",""
"","S1","","html-keyboard-response","417","867286","0.0-1.0-569.0","0","0","99727","","null","","","null","63","","","","","","","","","","","","","","","",""
"","ISI","","html-keyboard-response","418","869290","0.0-1.0-570.0","0","0","99727","","null","","","null","63","NaN","","","","","","","","","","","","","","",""
"","S2","","html-keyboard-response","419","869446","0.0-1.0-571.0","0","0","99727","","null","","","null","63","","NaN","","","","","","","","","","","","","",""
"","response","","html-keyboard-response","420","869592","0.0-1.0-572.0-0.0","0","0","99727","","142","","","75","63","","","2","63","training","adjacent","ED","5","4","O.jpg","R.jpg","1","0","0","",""
"","feedback","","html-keyboard-response","421","870598","0.0-1.0-573.0-0.0","0","0","99727","","null","","","null","63","","","","","","","","","","","","","","","",""
"","time_out","","html-keyboard-response","422","872602","0.0-1.0-575.0-0.0","0","0","99727","","null","","","null","63","","","","","","","","","","","","","","","",""
"","ITI","","html-keyboard-response","423","873606","0.0-1.0-576.0","0","0","99727","","null","","","null","63","","","","","","","","","","","","","","","NaN",""
"","S1","","html-keyboard-response","424","873760","0.0-1.0-578.0","0","0","99727","","null","","","null","64","","","","","","","","","","","","","","","",""
"","ISI","","html-keyboard-response","425","875763","0.0-1.0-579.0","0","0","99727","","null","","","null","64","NaN","","","","","","","","","","","","","","",""
"","S2","","html-keyboard-response","426","875917","0.0-1.0-580.0","0","0","99727","","null","","","null","64","","NaN","","","","","","","","","","","","","",""
"","response","","html-keyboard-response","427","876413","0.0-1.0-581.0-0.0","0","0","99727","","494","","","68","64","","","2","64","training","adjacent","BC","2","3","L.jpg","M.jpg","0","1","0","",""
"","feedback","","html-keyboard-response","428","877417","0.0-1.0-582.0-0.0","0","0","99727","","null","","","null","64","","","","","","","","","","","","","","","",""
"","time_out","","html-keyboard-response","429","879421","0.0-1.0-584.0-0.0","0","0","99727","","null","","","null","64","","","","","","","","","","","","","","","",""
"","ITI","","html-keyboard-response","430","880426","0.0-1.0-585.0","0","0","99727","","null","","","null","64","","","","","","","","","","","","","","","NaN",""
"","S1","","html-keyboard-response","431","880579","0.0-1.0-587.0","0","0","99727","","null","","","null","65","","","","","","","","","","","","","","","",""
"","ISI","","html-keyboard-response","432","882583","0.0-1.0-588.0","0","0","99727","","null","","","null","65","NaN","","","","","","","","","","","","","","",""
"","S2","","html-keyboard-response","433","882738","0.0-1.0-589.0","0","0","99727","","null","","","null","65","","NaN","","","","","","","","","","","","","",""
"","response","","html-keyboard-response","434","882856","0.0-1.0-590.0-0.0","0","0","99727","","114","","","75","65","","","2","65","training","adjacent","CB","3","2","M.jpg","L.jpg","1","0","0","",""
"","feedback","","html-keyboard-response","435","883862","0.0-1.0-591.0-0.0","0","0","99727","","null","","","null","65","","","","","","","","","","","","","","","",""
"","time_out","","html-keyboard-response","436","885867","0.0-1.0-593.0-0.0","0","0","99727","","null","","","null","65","","","","","","","","","","","","","","","",""
"","ITI","","html-keyboard-response","437","886871","0.0-1.0-594.0","0","0","99727","","null","","","null","65","","","","","","","","","","","","","","","NaN",""
"","S1","","html-keyboard-response","438","887025","0.0-1.0-596.0","0","0","99727","","null","","","null","66","","","","","","","","","","","","","","","",""
"","ISI","","html-keyboard-response","439","889030","0.0-1.0-597.0","0","0","99727","","null","","","null","66","NaN","","","","","","","","","","","","","","",""
"","S2","","html-keyboard-response","440","889184","0.0-1.0-598.0","0","0","99727","","null","","","null","66","","NaN","","","","","","","","","","","","","",""
"","response","","html-keyboard-response","441","889304","0.0-1.0-599.0-0.0","0","0","99727","","116","","","75","66","","","2","66","training","adjacent","CB","3","2","M.jpg","L.jpg","1","0","0","",""
"","feedback","","html-keyboard-response","442","890309","0.0-1.0-600.0-0.0","0","0","99727","","null","","","null","66","","","","","","","","","","","","","","","",""
"","time_out","","html-keyboard-response","443","892314","0.0-1.0-602.0-0.0","0","0","99727","","null","","","null","66","","","","","","","","","","","","","","","",""
"","ITI","","html-keyboard-response","444","893318","0.0-1.0-603.0","0","0","99727","","null","","","null","66","","","","","","","","","","","","","","","NaN",""
"","S1","","html-keyboard-response","445","893472","0.0-1.0-605.0","0","0","99727","","null","","","null","67","","","","","","","","","","","","","","","",""
"","ISI","","html-keyboard-response","446","895476","0.0-1.0-606.0","0","0","99727","","null","","","null","67","NaN","","","","","","","","","","","","","","",""
"","S2","","html-keyboard-response","447","895630","0.0-1.0-607.0","0","0","99727","","null","","","null","67","","NaN","","","","","","","","","","","","","",""
"","response","","html-keyboard-response","448","895768","0.0-1.0-608.0-0.0","0","0","99727","","134","","","68","67","","","2","67","training","adjacent","AB","1","2","Q.jpg","L.jpg","0","1","0","",""
"","feedback","","html-keyboard-response","449","896786","0.0-1.0-609.0-0.0","0","0","99727","","null","","","null","67","","","","","","","","","","","","","","","",""
"","time_out","","html-keyboard-response","450","898790","0.0-1.0-611.0-0.0","0","0","99727","","null","","","null","67","","","","","","","","","","","","","","","",""
"","ITI","","html-keyboard-response","451","899794","0.0-1.0-612.0","0","0","99727","","null","","","null","67","","","","","","","","","","","","","","","NaN",""
"","S1","","html-keyboard-response","452","899949","0.0-1.0-614.0","0","0","99727","","null","","","null","68","","","","","","","","","","","","","","","",""
"","ISI","","html-keyboard-response","453","901953","0.0-1.0-615.0","0","0","99727","","null","","","null","68","NaN","","","","","","","","","","","","","","",""
"","S2","","html-keyboard-response","454","902107","0.0-1.0-616.0","0","0","99727","","null","","","null","68","","NaN","","","","","","","","","","","","","",""
"","response","","html-keyboard-response","455","902312","0.0-1.0-617.0-0.0","0","0","99727","","200","","","68","68","","","2","68","training","adjacent","BC","2","3","L.jpg","M.jpg","0","1","0","",""
"","feedback","","html-keyboard-response","456","903318","0.0-1.0-618.0-0.0","0","0","99727","","null","","","null","68","","","","","","","","","","","","","","","",""
"","time_out","","html-keyboard-response","457","905323","0.0-1.0-620.0-0.0","0","0","99727","","null","","","null","68","","","","","","","","","","","","","","","",""
"","ITI","","html-keyboard-response","458","906328","0.0-1.0-621.0","0","0","99727","","null","","","null","68","","","","","","","","","","","","","","","NaN",""
"","S1","","html-keyboard-response","459","906484","0.0-1.0-623.0","0","0","99727","","null","","","null","69","","","","","","","","","","","","","","","",""
"","ISI","","html-keyboard-response","460","908490","0.0-1.0-624.0","0","0","99727","","null","","","null","69","NaN","","","","","","","","","","","","","","",""
"","S2","","html-keyboard-response","461","908643","0.0-1.0-625.0","0","0","99727","","null","","","null","69","","NaN","","","","","","","","","","","","","",""
"","response","","html-keyboard-response","462","908745","0.0-1.0-626.0-0.0","0","0","99727","","99","","","68","69","","","2","69","training","adjacent","GF","7","6","P.jpg","N.jpg","0","0","1","",""
"","feedback","","html-keyboard-response","463","909750","0.0-1.0-627.0-0.0","0","0","99727","","null","","","null","69","","","","","","","","","","","","","","","",""
"","ITI","","html-keyboard-response","464","910756","0.0-1.0-630.0","0","0","99727","","null","","","null","69","","","","","","","","","","","","","","","NaN",""
"","S1","","html-keyboard-response","465","910911","0.0-1.0-632.0","0","0","99727","","null","","","null","70","","","","","","","","","","","","","","","",""
"","ISI","","html-keyboard-response","466","912915","0.0-1.0-633.0","0","0","99727","","null","","","null","70","NaN","","","","","","","","","","","","","","",""
"","S2","","html-keyboard-response","467","913069","0.0-1.0-634.0","0","0","99727","","null","","","null","70","","NaN","","","","","","","","","","","","","",""
"","response","","html-keyboard-response","468","913744","0.0-1.0-635.0-0.0","0","0","99727","","671","","","68","70","","","2","70","training","adjacent","FE","6","5","N.jpg","O.jpg","0","0","1","",""
"","feedback","","html-keyboard-response","469","914750","0.0-1.0-636.0-0.0","0","0","99727","","null","","","null","70","","","","","","","","","","","","","","","",""
"","ITI","","html-keyboard-response","470","915755","0.0-1.0-639.0","0","0","99727","","null","","","null","70","","","","","","","","","","","","","","","NaN",""
"","S1","","html-keyboard-response","471","915909","0.0-1.0-641.0","0","0","99727","","null","","","null","71","","","","","","","","","","","","","","","",""
"","ISI","","html-keyboard-response","472","917913","0.0-1.0-642.0","0","0","99727","","null","","","null","71","NaN","","","","","","","","","","","","","","",""
"","S2","","html-keyboard-response","473","918067","0.0-1.0-643.0","0","0","99727","","null","","","null","71","","NaN","","","","","","","","","","","","","",""
"","response","","html-keyboard-response","474","918205","0.0-1.0-644.0-0.0","0","0","99727","","137","","","75","71","","","2","71","training","adjacent","EF","5","6","O.jpg","N.jpg","1","1","1","",""
"","feedback","","html-keyboard-response","475","919210","0.0-1.0-645.0-0.0","0","0","99727","","null","","","null","71","","","","","","","","","","","","","","","",""
"","ITI","","html-keyboard-response","476","920217","0.0-1.0-648.0","0","0","99727","","null","","","null","71","","","","","","","","","","","","","","","NaN",""
"","S1","","html-keyboard-response","477","920371","0.0-1.0-650.0","0","0","99727","","null","","","null","72","","","","","","","","","","","","","","","",""
"","ISI","","html-keyboard-response","478","922374","0.0-1.0-651.0","0","0","99727","","null","","","null","72","NaN","","","","","","","","","","","","","","",""
"","S2","","html-keyboard-response","479","922528","0.0-1.0-652.0","0","0","99727","","null","","","null","72","","NaN","","","","","","","","","","","","","",""
"","response","","html-keyboard-response","480","922919","0.0-1.0-653.0-0.0","0","0","99727","","387","","","75","72","","","2","72","training","adjacent","CB","3","2","M.jpg","L.jpg","1","0","0","",""
"","feedback","","html-keyboard-response","481","923923","0.0-1.0-654.0-0.0","0","0","99727","","null","","","null","72","","","","","","","","","","","","","","","",""
"","time_out","","html-keyboard-response","482","925925","0.0-1.0-656.0-0.0","0","0","99727","","null","","","null","72","","","","","","","","","","","","","","","",""
"","ITI","","html-keyboard-response","483","926928","0.0-1.0-657.0","0","0","99727","","null","","","null","72","","","","","","","","","","","","","","","NaN",""
"","S1","","html-keyboard-response","484","927083","0.0-1.0-659.0","0","0","99727","","null","","","null","73","","","","","","","","","","","","","","","",""
"","ISI","","html-keyboard-response","485","929087","0.0-1.0-660.0","0","0","99727","","null","","","null","73","NaN","","","","","","","","","","","","","","",""
"","S2","","html-keyboard-response","486","929240","0.0-1.0-661.0","0","0","99727","","null","","","null","73","","NaN","","","","","","","","","","","","","",""
"","response","","html-keyboard-response","487","929432","0.0-1.0-662.0-0.0","0","0","99727","","189","","","75","73","","","2","73","training","adjacent","AB","1","2","Q.jpg","L.jpg","1","1","1","",""
"","feedback","","html-keyboard-response","488","930437","0.0-1.0-663.0-0.0","0","0","99727","","null","","","null","73","","","","","","","","","","","","","","","",""
"","ITI","","html-keyboard-response","489","931443","0.0-1.0-666.0","0","0","99727","","null","","","null","73","","","","","","","","","","","","","","","NaN",""
"","S1","","html-keyboard-response","490","931596","0.0-1.0-668.0","0","0","99727","","null","","","null","74","","","","","","","","","","","","","","","",""
"","ISI","","html-keyboard-response","491","933601","0.0-1.0-669.0","0","0","99727","","null","","","null","74","NaN","","","","","","","","","","","","","","",""
"","S2","","html-keyboard-response","492","933757","0.0-1.0-670.0","0","0","99727","","null","","","null","74","","NaN","","","","","","","","","","","","","",""
"","response","","html-keyboard-response","493","934031","0.0-1.0-671.0-0.0","0","0","99727","","271","","","75","74","","","2","74","training","adjacent","BA","2","1","L.jpg","Q.jpg","1","0","0","",""
"","feedback","","html-keyboard-response","494","935036","0.0-1.0-672.0-0.0","0","0","99727","","null","","","null","74","","","","","","","","","","","","","","","",""
"","time_out","","html-keyboard-response","495","937044","0.0-1.0-674.0-0.0","0","0","99727","","null","","","null","74","","","","","","","","","","","","","","","",""
"","ITI","","html-keyboard-response","496","938048","0.0-1.0-675.0","0","0","99727","","null","","","null","74","","","","","","","","","","","","","","","NaN",""
"","S1","","html-keyboard-response","497","938203","0.0-1.0-677.0","0","0","99727","","null","","","null","75","","","","","","","","","","","","","","","",""
"","ISI","","html-keyboard-response","498","940208","0.0-1.0-678.0","0","0","99727","","null","","","null","75","NaN","","","","","","","","","","","","","","",""
"","S2","","html-keyboard-response","499","940365","0.0-1.0-679.0","0","0","99727","","null","","","null","75","","NaN","","","","","","","","","","","","","",""
"","response","","html-keyboard-response","500","940648","0.0-1.0-680.0-0.0","0","0","99727","","281","","","68","75","","","2","75","training","adjacent","GF","7","6","P.jpg","N.jpg","0","0","1","",""
"","feedback","","html-keyboard-response","501","941653","0.0-1.0-681.0-0.0","0","0","99727","","null","","","null","75","","","","","","","","","","","","","","","",""
"","ITI","","html-keyboard-response","502","942659","0.0-1.0-684.0","0","0","99727","","null","","","null","75","","","","","","","","","","","","","","","NaN",""
"","S1","","html-keyboard-response","503","942814","0.0-1.0-686.0","0","0","99727","","null","","","null","76","","","","","","","","","","","","","","","",""
"","ISI","","html-keyboard-response","504","944817","0.0-1.0-687.0","0","0","99727","","null","","","null","76","NaN","","","","","","","","","","","","","","",""
"","S2","","html-keyboard-response","505","944972","0.0-1.0-688.0","0","0","99727","","null","","","null","76","","NaN","","","","","","","","","","","","","",""
"","response","","html-keyboard-response","506","946827","0.0-1.0-689.0-0.0","0","0","99727","","null","","","null","76","","","2","76","training","adjacent","DC","4","3","R.jpg","M.jpg","NaN","0","0","",""
"","too_slow_prompt","","html-keyboard-response","507","947831","0.0-1.0-691.0-0.0","1","0","99727","","null","","","null","","","","","","","","","","","","","","","","",""
"","time_out","","html-keyboard-response","508","949836","0.0-1.0-692.0-0.0","0","0","99727","","null","","","null","76","","","","","","","","","","","","","","","",""
"","ITI","","html-keyboard-response","509","950841","0.0-1.0-693.0","0","0","99727","","null","","","null","76","","","","","","","","","","","","","","","NaN",""
"","S1","","html-keyboard-response","510","950996","0.0-1.0-695.0","0","0","99727","","null","","","null","77","","","","","","","","","","","","","","","",""
"","ISI","","html-keyboard-response","511","953000","0.0-1.0-696.0","0","0","99727","","null","","","null","77","NaN","","","","","","","","","","","","","","",""
"","S2","","html-keyboard-response","512","953156","0.0-1.0-697.0","0","0","99727","","null","","","null","77","","NaN","","","","","","","","","","","","","",""
"","response","","html-keyboard-response","513","953256","0.0-1.0-698.0-0.0","0","0","99727","","96","","","68","77","","","2","77","training","adjacent","FE","6","5","N.jpg","O.jpg","0","0","1","",""
"","feedback","","html-keyboard-response","514","954262","0.0-1.0-699.0-0.0","0","0","99727","","null","","","null","77","","","","","","","","","","","","","","","",""
"","ITI","","html-keyboard-response","515","955268","0.0-1.0-702.0","0","0","99727","","null","","","null","77","","","","","","","","","","","","","","","NaN",""
"","S1","","html-keyboard-response","516","955423","0.0-1.0-704.0","0","0","99727","","null","","","null","78","","","","","","","","","","","","","","","",""
"","ISI","","html-keyboard-response","517","957427","0.0-1.0-705.0","0","0","99727","","null","","","null","78","NaN","","","","","","","","","","","","","","",""
"","S2","","html-keyboard-response","518","957583","0.0-1.0-706.0","0","0","99727","","null","","","null","78","","NaN","","","","","","","","","","","","","",""
"","response","","html-keyboard-response","519","957727","0.0-1.0-707.0-0.0","0","0","99727","","141","","","68","78","","","2","78","training","adjacent","CD","3","4","M.jpg","R.jpg","0","1","0","",""
"","feedback","","html-keyboard-response","520","958730","0.0-1.0-708.0-0.0","0","0","99727","","null","","","null","78","","","","","","","","","","","","","","","",""
"","time_out","","html-keyboard-response","521","960734","0.0-1.0-710.0-0.0","0","0","99727","","null","","","null","78","","","","","","","","","","","","","","","",""
"","ITI","","html-keyboard-response","522","961737","0.0-1.0-711.0","0","0","99727","","null","","","null","78","","","","","","","","","","","","","","","NaN",""
"","S1","","html-keyboard-response","523","961891","0.0-1.0-713.0","0","0","99727","","null","","","null","79","","","","","","","","","","","","","","","",""
"","ISI","","html-keyboard-response","524","963895","0.0-1.0-714.0","0","0","99727","","null","","","null","79","NaN","","","","","","","","","","","","","","",""
"","S2","","html-keyboard-response","525","964049","0.0-1.0-715.0","0","0","99727","","null","","","null","79","","NaN","","","","","","","","","","","","","",""
"","response","","html-keyboard-response","526","964353","0.0-1.0-716.0-0.0","0","0","99727","","299","","","68","79","","","2","79","training","adjacent","FG","6","7","N.jpg","P.jpg","0","1","0","",""
"","feedback","","html-keyboard-response","527","965372","0.0-1.0-717.0-0.0","0","0","99727","","null","","","null","79","","","","","","","","","","","","","","","",""
"","time_out","","html-keyboard-response","528","967378","0.0-1.0-719.0-0.0","0","0","99727","","null","","","null","79","","","","","","","","","","","","","","","",""
"","ITI","","html-keyboard-response","529","968386","0.0-1.0-720.0","0","0","99727","","null","","","null","79","","","","","","","","","","","","","","","NaN",""
"","S1","","html-keyboard-response","530","968544","0.0-1.0-722.0","0","0","99727","","null","","","null","80","","","","","","","","","","","","","","","",""
"","ISI","","html-keyboard-response","531","970548","0.0-1.0-723.0","0","0","99727","","null","","","null","80","NaN","","","","","","","","","","","","","","",""
"","S2","","html-keyboard-response","532","970703","0.0-1.0-724.0","0","0","99727","","null","","","null","80","","NaN","","","","","","","","","","","","","",""
"","response","","html-keyboard-response","533","970839","0.0-1.0-725.0-0.0","0","0","99727","","134","","","75","80","","","2","80","training","adjacent","ED","5","4","O.jpg","R.jpg","1","0","0","",""
"","feedback","","html-keyboard-response","534","971844","0.0-1.0-726.0-0.0","0","0","99727","","null","","","null","80","","","","","","","","","","","","","","","",""
"","time_out","","html-keyboard-response","535","973848","0.0-1.0-728.0-0.0","0","0","99727","","null","","","null","80","","","","","","","","","","","","","","","",""
"","ITI","","html-keyboard-response","536","974852","0.0-1.0-729.0","0","0","99727","","null","","","null","80","","","","","","","","","","","","","","","NaN",""
"","S1","","html-keyboard-response","537","975007","0.0-1.0-731.0","0","0","99727","","null","","","null","81","","","","","","","","","","","","","","","",""
"","ISI","","html-keyboard-response","538","977011","0.0-1.0-732.0","0","0","99727","","null","","","null","81","NaN","","","","","","","","","","","","","","",""
"","S2","","html-keyboard-response","539","977166","0.0-1.0-733.0","0","0","99727","","null","","","null","81","","NaN","","","","","","","","","","","","","",""
"","response","","html-keyboard-response","540","977384","0.0-1.0-734.0-0.0","0","0","99727","","214","","","68","81","","","2","81","training","adjacent","ED","5","4","O.jpg","R.jpg","0","0","1","",""
"","feedback","","html-keyboard-response","541","978390","0.0-1.0-735.0-0.0","0","0","99727","","null","","","null","81","","","","","","","","","","","","","","","",""
"","ITI","","html-keyboard-response","542","979397","0.0-1.0-738.0","0","0","99727","","null","","","null","81","","","","","","","","","","","","","","","NaN",""
"","S1","","html-keyboard-response","543","979557","0.0-1.0-740.0","0","0","99727","","null","","","null","82","","","","","","","","","","","","","","","",""
"","ISI","","html-keyboard-response","544","981572","0.0-1.0-741.0","0","0","99727","","null","","","null","82","NaN","","","","","","","","","","","","","","",""
"","S2","","html-keyboard-response","545","981726","0.0-1.0-742.0","0","0","99727","","null","","","null","82","","NaN","","","","","","","","","","","","","",""
"","response","","html-keyboard-response","546","981936","0.0-1.0-743.0-0.0","0","0","99727","","207","","","75","82","","","2","82","training","adjacent","FE","6","5","N.jpg","O.jpg","1","0","0","",""
"","feedback","","html-keyboard-response","547","982941","0.0-1.0-744.0-0.0","0","0","99727","","null","","","null","82","","","","","","","","","","","","","","","",""
"","time_out","","html-keyboard-response","548","984945","0.0-1.0-746.0-0.0","0","0","99727","","null","","","null","82","","","","","","","","","","","","","","","",""
"","ITI","","html-keyboard-response","549","985952","0.0-1.0-747.0","0","0","99727","","null","","","null","82","","","","","","","","","","","","","","","NaN",""
"","S1","","html-keyboard-response","550","986106","0.0-1.0-749.0","0","0","99727","","null","","","null","83","","","","","","","","","","","","","","","",""
"","ISI","","html-keyboard-response","551","988109","0.0-1.0-750.0","0","0","99727","","null","","","null","83","NaN","","","","","","","","","","","","","","",""
"","S2","","html-keyboard-response","552","988265","0.0-1.0-751.0","0","0","99727","","null","","","null","83","","NaN","","","","","","","","","","","","","",""
"","response","","html-keyboard-response","553","988497","0.0-1.0-752.0-0.0","0","0","99727","","228","","","68","83","","","2","83","training","adjacent","DE","4","5","R.jpg","O.jpg","0","1","0","",""
"","feedback","","html-keyboard-response","554","989502","0.0-1.0-753.0-0.0","0","0","99727","","null","","","null","83","","","","","","","","","","","","","","","",""
"","time_out","","html-keyboard-response","555","991508","0.0-1.0-755.0-0.0","0","0","99727","","null","","","null","83","","","","","","","","","","","","","","","",""
"","ITI","","html-keyboard-response","556","992512","0.0-1.0-756.0","0","0","99727","","null","","","null","83","","","","","","","","","","","","","","","NaN",""
"","S1","","html-keyboard-response","557","992667","0.0-1.0-758.0","0","0","99727","","null","","","null","84","","","","","","","","","","","","","","","",""
"","ISI","","html-keyboard-response","558","994671","0.0-1.0-759.0","0","0","99727","","null","","","null","84","NaN","","","","","","","","","","","","","","",""
"","S2","","html-keyboard-response","559","994826","0.0-1.0-760.0","0","0","99727","","null","","","null","84","","NaN","","","","","","","","","","","","","",""
"","response","","html-keyboard-response","560","995016","0.0-1.0-761.0-0.0","0","0","99727","","185","","","75","84","","","2","84","training","adjacent","CB","3","2","M.jpg","L.jpg","1","0","0","",""
"","feedback","","html-keyboard-response","561","996023","0.0-1.0-762.0-0.0","0","0","99727","","null","","","null","84","","","","","","","","","","","","","","","",""
"","time_out","","html-keyboard-response","562","998028","0.0-1.0-764.0-0.0","0","0","99727","","null","","","null","84","","","","","","","","","","","","","","","",""
"","ITI","","html-keyboard-response","563","999034","0.0-1.0-765.0","0","0","99727","","null","","","null","84","","","","","","","","","","","","","","","NaN",""
"","S1","","html-keyboard-response","564","999190","0.0-1.0-767.0","0","0","99727","","null","","","null","85","","","","","","","","","","","","","","","",""
"","ISI","","html-keyboard-response","565","1001195","0.0-1.0-768.0","0","0","99727","","null","","","null","85","NaN","","","","","","","","","","","","","","",""
"","S2","","html-keyboard-response","566","1001350","0.0-1.0-769.0","0","0","99727","","null","","","null","85","","NaN","","","","","","","","","","","","","",""
"","response","","html-keyboard-response","567","1001552","0.0-1.0-770.0-0.0","0","0","99727","","198","","","68","85","","","2","85","training","adjacent","ED","5","4","O.jpg","R.jpg","0","0","1","",""
"","feedback","","html-keyboard-response","568","1002559","0.0-1.0-771.0-0.0","0","0","99727","","null","","","null","85","","","","","","","","","","","","","","","",""
"","ITI","","html-keyboard-response","569","1003563","0.0-1.0-774.0","0","0","99727","","null","","","null","85","","","","","","","","","","","","","","","NaN",""
"","S1","","html-keyboard-response","570","1003717","0.0-1.0-776.0","0","0","99727","","null","","","null","86","","","","","","","","","","","","","","","",""
"","ISI","","html-keyboard-response","571","1005721","0.0-1.0-777.0","0","0","99727","","null","","","null","86","NaN","","","","","","","","","","","","","","",""
"","S2","","html-keyboard-response","572","1005876","0.0-1.0-778.0","0","0","99727","","null","","","null","86","","NaN","","","","","","","","","","","","","",""
"","response","","html-keyboard-response","573","1006246","0.0-1.0-779.0-0.0","0","0","99727","","368","","","68","86","","","2","86","training","adjacent","DE","4","5","R.jpg","O.jpg","0","1","0","",""
"","feedback","","html-keyboard-response","574","1007249","0.0-1.0-780.0-0.0","0","0","99727","","null","","","null","86","","","","","","","","","","","","","","","",""
"","time_out","","html-keyboard-response","575","1009254","0.0-1.0-782.0-0.0","0","0","99727","","null","","","null","86","","","","","","","","","","","","","","","",""
"","ITI","","html-keyboard-response","576","1010259","0.0-1.0-783.0","0","0","99727","","null","","","null","86","","","","","","","","","","","","","","","NaN",""
"","S1","","html-keyboard-response","577","1010414","0.0-1.0-785.0","0","0","99727","","null","","","null","87","","","","","","","","","","","","","","","",""
"","ISI","","html-keyboard-response","578","1012418","0.0-1.0-786.0","0","0","99727","","null","","","null","87","NaN","","","","","","","","","","","","","","",""
"","S2","","html-keyboard-response","579","1012573","0.0-1.0-787.0","0","0","99727","","null","","","null","87","","NaN","","","","","","","","","","","","","",""
"","response","","html-keyboard-response","580","1012862","0.0-1.0-788.0-0.0","0","0","99727","","286","","","75","87","","","2","87","training","adjacent","EF","5","6","O.jpg","N.jpg","1","1","1","",""
