"success","ttype","start_time","trial_type","trial_index","time_elapsed","internal_node_id","warning","missed_checkup","PID","view_history","rt","responses","repeat_instructions","key_press","index","keypress_isi","keypress_S2","block","trial_num","phase","group_type","pair_type","S1_stim","S2_stim","S1_img","S2_img","S1_chosen","S1_higher","accuracy","keypress_iti","total_bonus_tally"
"true","full_screen","d04062023hr1737","fullscreen","0","11399","0.0-0.0","0","0","92265","","","","","","","","","","","","","","","","","","","","","",""
"","instructions","","instructions","1","58862","0.0-1.0-0.0-0.0","0","0","92265","[{""page_index"":0,""viewing_time"":4425},{""page_index"":1,""viewing_time"":24533},{""page_index"":2,""viewing_time"":15649},{""page_index"":3,""viewing_time"":2851}]","47459","","","","","","","","","","","","","","","","","","","",""
"","comprehension_check","","survey-multi-choice","2","97311","0.0-1.0-0.0-1.0","0","0","92265","","38442","{""Q0"":""True"",""Q1"":""K"",""Q2"":""Only when the screen 'MAKE A CHOICE' is shown"",""Q3"":""Green mark"",""Q4"":""either D or K""}","1","","","","","","","","","","","","","","","","","",""
"","missed_instruction_checkup","","html-keyboard-response","3","100568","0.0-1.0-0.0-2.0-0.0","0","1","92265","","3250","","","32","","","","","","","","","","","","","","","","",""
"","instructions","","instructions","4","108378","0.0-1.0-0.1-0.1","0","0","92265","[{""page_index"":0,""viewing_time"":3471},{""page_index"":1,""viewing_time"":2483},{""page_index"":2,""viewing_time"":950},{""page_index"":3,""viewing_time"":900}]","7805","","","","","","","","","","","","","","","","","","","",""
"","comprehension_check","","survey-multi-choice","5","122044","0.0-1.0-0.1-1.1","0","0","92265","","13656","{""Q0"":""True"",""Q1"":""K"",""Q2"":""Once the second image appears and while the screen 'MAKE A CHOICE' is shown"",""Q3"":""Green mark"",""Q4"":""either D or K""}","0","","","","","","","","","","","","","","","","","",""
"","start_exp","","html-keyboard-response","6","124574","0.0-1.0-1.0","0","0","92265","","2525","","","32","","","","","","","","","","","","","","","","",""
"","S1","","html-keyboard-response","7","124730","0.0-1.0-2.0","0","0","92265","","null","","","null","0","","","","","","","","","","","","","","","",""
"","ISI","","html-keyboard-response","8","126736","0.0-1.0-3.0","0","0","92265","","null","","","null","0","NaN","","","","","","","","","","","","","","",""
"","S2","","html-keyboard-response","9","126895","0.0-1.0-4.0","0","0","92265","","null","","","null","0","","NaN","","","","","","","","","","","","","",""
"","response","","html-keyboard-response","10","128755","0.0-1.0-5.0-0.0","0","0","92265","","null","","","null","0","","","1","0","training","adjacent","FG","6","7","P.jpg","M.jpg","NaN","1","0","",""
"","too_slow_prompt","","html-keyboard-response","11","129765","0.0-1.0-7.0-0.0","1","0","92265","","null","","","null","","","","","","","","","","","","","","","","",""
"","time_out","","html-keyboard-response","12","131775","0.0-1.0-8.0-0.0","0","0","92265","","null","","","null","0","","","","","","","","","","","","","","","",""
"","ITI","","html-keyboard-response","13","132784","0.0-1.0-9.0","0","0","92265","","null","","","null","0","","","","","","","","","","","","","","","NaN",""
"","S1","","html-keyboard-response","14","132942","0.0-1.0-11.0","0","0","92265","","null","","","null","1","","","","","","","","","","","","","","","",""
"","ISI","","html-keyboard-response","15","134949","0.0-1.0-12.0","0","0","92265","","null","","","null","1","NaN","","","","","","","","","","","","","","",""
"","S2","","html-keyboard-response","16","135107","0.0-1.0-13.0","0","0","92265","","null","","","null","1","","NaN","","","","","","","","","","","","","",""
"","response","","html-keyboard-response","17","135757","0.0-1.0-14.0-0.0","0","0","92265","","645","","","75","1","","","1","1","training","adjacent","FG","6","7","P.jpg","M.jpg","1","1","1","",""
"","feedback","","html-keyboard-response","18","136766","0.0-1.0-15.0-0.0","0","0","92265","","null","","","null","1","","","","","","","","","","","","","","","",""
"","ITI","","html-keyboard-response","19","137771","0.0-1.0-18.0","0","0","92265","","null","","","null","1","","","","","","","","","","","","","","","NaN",""
"","S1","","html-keyboard-response","20","137926","0.0-1.0-20.0","0","0","92265","","null","","","null","2","","","","","","","","","","","","","","","",""
"","ISI","","html-keyboard-response","21","139935","0.0-1.0-21.0","0","0","92265","","null","","","null","2","NaN","","","","","","","","","","","","","","",""
"","S2","","html-keyboard-response","22","140092","0.0-1.0-22.0","0","0","92265","","null","","","null","2","","NaN","","","","","","","","","","","","","",""
"","response","","html-keyboard-response","23","140933","0.0-1.0-23.0-0.0","0","0","92265","","836","","","68","2","","","1","2","training","adjacent","FG","6","7","P.jpg","M.jpg","0","1","0","",""
"","feedback","","html-keyboard-response","24","141942","0.0-1.0-24.0-0.0","0","0","92265","","null","","","null","2","","","","","","","","","","","","","","","",""
"","time_out","","html-keyboard-response","25","143948","0.0-1.0-26.0-0.0","0","0","92265","","null","","","null","2","","","","","","","","","","","","","","","",""
"","ITI","","html-keyboard-response","26","144957","0.0-1.0-27.0","0","0","92265","","null","","","null","2","","","","","","","","","","","","","","","NaN",""
"","S1","","html-keyboard-response","27","145113","0.0-1.0-29.0","0","0","92265","","null","","","null","3","","","","","","","","","","","","","","","",""
"","ISI","","html-keyboard-response","28","147122","0.0-1.0-30.0","0","0","92265","","null","","","null","3","NaN","","","","","","","","","","","","","","",""
"","S2","","html-keyboard-response","29","147281","0.0-1.0-31.0","0","0","92265","","null","","","null","3","","NaN","","","","","","","","","","","","","",""
"","response","","html-keyboard-response","30","147659","0.0-1.0-32.0-0.0","0","0","92265","","374","","","68","3","","","1","3","training","adjacent","GF","7","6","M.jpg","P.jpg","0","0","1","",""
"","feedback","","html-keyboard-response","31","148667","0.0-1.0-33.0-0.0","0","0","92265","","null","","","null","3","","","","","","","","","","","","","","","",""
"","ITI","","html-keyboard-response","32","149677","0.0-1.0-36.0","0","0","92265","","null","","","null","3","","","","","","","","","","","","","","","NaN",""
"","S1","","html-keyboard-response","33","149835","0.0-1.0-38.0","0","0","92265","","null","","","null","4","","","","","","","","","","","","","","","",""
"","ISI","","html-keyboard-response","34","151843","0.0-1.0-39.0","0","0","92265","","null","","","null","4","NaN","","","","","","","","","","","","","","",""
"","S2","","html-keyboard-response","35","152003","0.0-1.0-40.0","0","0","92265","","null","","","null","4","","NaN","","","","","","","","","","","","","",""
"","response","","html-keyboard-response","36","152372","0.0-1.0-41.0-0.0","0","0","92265","","365","","","68","4","","","1","4","training","adjacent","GF","7","6","M.jpg","P.jpg","0","0","1","",""
"","feedback","","html-keyboard-response","37","153379","0.0-1.0-42.0-0.0","0","0","92265","","null","","","null","4","","","","","","","","","","","","","","","",""
"","ITI","","html-keyboard-response","38","154388","0.0-1.0-45.0","0","0","92265","","null","","","null","4","","","","","","","","","","","","","","","NaN",""
"","S1","","html-keyboard-response","39","154543","0.0-1.0-47.0","0","0","92265","","null","","","null","5","","","","","","","","","","","","","","","",""
"","ISI","","html-keyboard-response","40","156549","0.0-1.0-48.0","0","0","92265","","null","","","null","5","NaN","","","","","","","","","","","","","","",""
"","S2","","html-keyboard-response","41","156705","0.0-1.0-49.0","0","0","92265","","null","","","null","5","","NaN","","","","","","","","","","","","","",""
"","response","","html-keyboard-response","42","156994","0.0-1.0-50.0-0.0","0","0","92265","","286","","","68","5","","","1","5","training","adjacent","EF","5","6","Q.jpg","P.jpg","0","1","0","",""
"","feedback","","html-keyboard-response","43","158000","0.0-1.0-51.0-0.0","0","0","92265","","null","","","null","5","","","","","","","","","","","","","","","",""
"","time_out","","html-keyboard-response","44","160009","0.0-1.0-53.0-0.0","0","0","92265","","null","","","null","5","","","","","","","","","","","","","","","",""
"","ITI","","html-keyboard-response","45","161014","0.0-1.0-54.0","0","0","92265","","null","","","null","5","","","","","","","","","","","","","","","NaN",""
"","S1","","html-keyboard-response","46","161167","0.0-1.0-56.0","0","0","92265","","null","","","null","6","","","","","","","","","","","","","","","",""
"","ISI","","html-keyboard-response","47","163176","0.0-1.0-57.0","0","0","92265","","null","","","null","6","NaN","","","","","","","","","","","","","","",""
"","S2","","html-keyboard-response","48","163332","0.0-1.0-58.0","0","0","92265","","null","","","null","6","","NaN","","","","","","","","","","","","","",""
"","response","","html-keyboard-response","49","164038","0.0-1.0-59.0-0.0","0","0","92265","","701","","","68","6","","","1","6","training","adjacent","AB","1","2","R.jpg","O.jpg","0","1","0","",""
"","feedback","","html-keyboard-response","50","165047","0.0-1.0-60.0-0.0","0","0","92265","","null","","","null","6","","","","","","","","","","","","","","","",""
"","time_out","","html-keyboard-response","51","167056","0.0-1.0-62.0-0.0","0","0","92265","","null","","","null","6","","","","","","","","","","","","","","","",""
"","ITI","","html-keyboard-response","52","168065","0.0-1.0-63.0","0","0","92265","","null","","","null","6","","","","","","","","","","","","","","","NaN",""
"","S1","","html-keyboard-response","53","168222","0.0-1.0-65.0","0","0","92265","","null","","","null","7","","","","","","","","","","","","","","","",""
"","ISI","","html-keyboard-response","54","170231","0.0-1.0-66.0","0","0","92265","","null","","","null","7","NaN","","","","","","","","","","","","","","",""
"","S2","","html-keyboard-response","55","170387","0.0-1.0-67.0","0","0","92265","","null","","","null","7","","NaN","","","","","","","","","","","","","",""
"","response","","html-keyboard-response","56","170585","0.0-1.0-68.0-0.0","0","0","92265","","193","","","75","7","","","1","7","training","adjacent","DE","4","5","L.jpg","Q.jpg","1","1","1","",""
"","feedback","","html-keyboard-response","57","171595","0.0-1.0-69.0-0.0","0","0","92265","","null","","","null","7","","","","","","","","","","","","","","","",""
"","ITI","","html-keyboard-response","58","172605","0.0-1.0-72.0","0","0","92265","","null","","","null","7","","","","","","","","","","","","","","","NaN",""
"","S1","","html-keyboard-response","59","172759","0.0-1.0-74.0","0","0","92265","","null","","","null","8","","","","","","","","","","","","","","","",""
"","ISI","","html-keyboard-response","60","174764","0.0-1.0-75.0","0","0","92265","","null","","","null","8","NaN","","","","","","","","","","","","","","",""
"","S2","","html-keyboard-response","61","174921","0.0-1.0-76.0","0","0","92265","","null","","","null","8","","NaN","","","","","","","","","","","","","",""
"","response","","html-keyboard-response","62","175692","0.0-1.0-77.0-0.0","0","0","92265","","767","","","75","8","","","1","8","training","adjacent","CB","3","2","N.jpg","O.jpg","1","0","0","",""
"","feedback","","html-keyboard-response","63","176698","0.0-1.0-78.0-0.0","0","0","92265","","null","","","null","8","","","","","","","","","","","","","","","",""
"","time_out","","html-keyboard-response","64","178706","0.0-1.0-80.0-0.0","0","0","92265","","null","","","null","8","","","","","","","","","","","","","","","",""
"","ITI","","html-keyboard-response","65","179716","0.0-1.0-81.0","0","0","92265","","null","","","null","8","","","","","","","","","","","","","","","NaN",""
"","S1","","html-keyboard-response","66","179872","0.0-1.0-83.0","0","0","92265","","null","","","null","9","","","","","","","","","","","","","","","",""
"","ISI","","html-keyboard-response","67","181881","0.0-1.0-84.0","0","0","92265","","null","","","null","9","NaN","","","","","","","","","","","","","","",""
"","S2","","html-keyboard-response","68","182037","0.0-1.0-85.0","0","0","92265","","null","","","null","9","","NaN","","","","","","","","","","","","","",""
"","response","","html-keyboard-response","69","182714","0.0-1.0-86.0-0.0","0","0","92265","","672","","","75","9","","","1","9","training","adjacent","DE","4","5","L.jpg","Q.jpg","1","1","1","",""
"","feedback","","html-keyboard-response","70","183721","0.0-1.0-87.0-0.0","0","0","92265","","null","","","null","9","","","","","","","","","","","","","","","",""
"","ITI","","html-keyboard-response","71","184731","0.0-1.0-90.0","0","0","92265","","null","","","null","9","","","","","","","","","","","","","","","NaN",""
"","S1","","html-keyboard-response","72","184888","0.0-1.0-92.0","0","0","92265","","null","","","null","10","","","","","","","","","","","","","","","",""
"","ISI","","html-keyboard-response","73","186898","0.0-1.0-93.0","0","0","92265","","null","","","null","10","NaN","","","","","","","","","","","","","","",""
"","S2","","html-keyboard-response","74","187053","0.0-1.0-94.0","0","0","92265","","null","","","null","10","","NaN","","","","","","","","","","","","","",""
"","response","","html-keyboard-response","75","187517","0.0-1.0-95.0-0.0","0","0","92265","","460","","","75","10","","","1","10","training","adjacent","FE","6","5","P.jpg","Q.jpg","1","0","0","",""
"","feedback","","html-keyboard-response","76","188526","0.0-1.0-96.0-0.0","0","0","92265","","null","","","null","10","","","","","","","","","","","","","","","",""
"","time_out","","html-keyboard-response","77","190532","0.0-1.0-98.0-0.0","0","0","92265","","null","","","null","10","","","","","","","","","","","","","","","",""
"","ITI","","html-keyboard-response","78","191540","0.0-1.0-99.0","0","0","92265","","null","","","null","10","","","","","","","","","","","","","","","NaN",""
"","S1","","html-keyboard-response","79","191697","0.0-1.0-101.0","0","0","92265","","null","","","null","11","","","","","","","","","","","","","","","",""
"","ISI","","html-keyboard-response","80","193706","0.0-1.0-102.0","0","0","92265","","null","","","null","11","NaN","","","","","","","","","","","","","","",""
"","S2","","html-keyboard-response","81","193860","0.0-1.0-103.0","0","0","92265","","null","","","null","11","","NaN","","","","","","","","","","","","","",""
"","response","","html-keyboard-response","82","194906","0.0-1.0-104.0-0.0","0","0","92265","","1043","","","68","11","","","1","11","training","adjacent","AB","1","2","R.jpg","O.jpg","0","1","0","",""
"","feedback","","html-keyboard-response","83","195912","0.0-1.0-105.0-0.0","0","0","92265","","null","","","null","11","","","","","","","","","","","","","","","",""
"","time_out","","html-keyboard-response","84","197920","0.0-1.0-107.0-0.0","0","0","92265","","null","","","null","11","","","","","","","","","","","","","","","",""
"","ITI","","html-keyboard-response","85","198926","0.0-1.0-108.0","0","0","92265","","null","","","null","11","","","","","","","","","","","","","","","NaN",""
"","S1","","html-keyboard-response","86","199083","0.0-1.0-110.0","0","0","92265","","null","","","null","12","","","","","","","","","","","","","","","",""
"","ISI","","html-keyboard-response","87","201088","0.0-1.0-111.0","0","0","92265","","null","","","null","12","NaN","","","","","","","","","","","","","","",""
"","S2","","html-keyboard-response","88","201247","0.0-1.0-112.0","0","0","92265","","null","","","null","12","","NaN","","","","","","","","","","","","","",""
"","response","","html-keyboard-response","89","202379","0.0-1.0-113.0-0.0","0","0","92265","","1127","","","75","12","","","1","12","training","adjacent","DE","4","5","L.jpg","Q.jpg","1","1","1","",""
"","feedback","","html-keyboard-response","90","203388","0.0-1.0-114.0-0.0","0","0","92265","","null","","","null","12","","","","","","","","","","","","","","","",""
"","ITI","","html-keyboard-response","91","204398","0.0-1.0-117.0","0","0","92265","","null","","","null","12","","","","","","","","","","","","","","","NaN",""
"","S1","","html-keyboard-response","92","204555","0.0-1.0-119.0","0","0","92265","","null","","","null","13","","","","","","","","","","","","","","","",""
"","ISI","","html-keyboard-response","93","206564","0.0-1.0-120.0","0","0","92265","","null","","","null","13","NaN","","","","","","","","","","","","","","",""
"","S2","","html-keyboard-response","94","206721","0.0-1.0-121.0","0","0","92265","","null","","","null","13","","NaN","","","","","","","","","","","","","",""
"","response","","html-keyboard-response","95","208047","0.0-1.0-122.0-0.0","0","0","92265","","1322","","","75","13","","","1","13","training","adjacent","ED","5","4","Q.jpg","L.jpg","1","0","0","",""
"","feedback","","html-keyboard-response","96","209054","0.0-1.0-123.0-0.0","0","0","92265","","null","","","null","13","","","","","","","","","","","","","","","",""
"","time_out","","html-keyboard-response","97","211062","0.0-1.0-125.0-0.0","0","0","92265","","null","","","null","13","","","","","","","","","","","","","","","",""
"","ITI","","html-keyboard-response","98","212070","0.0-1.0-126.0","0","0","92265","","null","","","null","13","","","","","","","","","","","","","","","NaN",""
"","S1","","html-keyboard-response","99","212229","0.0-1.0-128.0","0","0","92265","","null","","","null","14","","","","","","","","","","","","","","","",""
"","ISI","","html-keyboard-response","100","214237","0.0-1.0-129.0","0","0","92265","","null","","","null","14","NaN","","","","","","","","","","","","","","",""
"","S2","","html-keyboard-response","101","214394","0.0-1.0-130.0","0","0","92265","","null","","","null","14","","NaN","","","","","","","","","","","","","",""
"","response","","html-keyboard-response","102","215561","0.0-1.0-131.0-0.0","0","0","92265","","1163","","","68","14","","","1","14","training","adjacent","EF","5","6","Q.jpg","P.jpg","0","1","0","",""
"","feedback","","html-keyboard-response","103","216569","0.0-1.0-132.0-0.0","0","0","92265","","null","","","null","14","","","","","","","","","","","","","","","",""
"","time_out","","html-keyboard-response","104","218579","0.0-1.0-134.0-0.0","0","0","92265","","null","","","null","14","","","","","","","","","","","","","","","",""
"","ITI","","html-keyboard-response","105","219585","0.0-1.0-135.0","0","0","92265","","null","","","null","14","","","","","","","","","","","","","","","NaN",""
"","S1","","html-keyboard-response","106","219741","0.0-1.0-137.0","0","0","92265","","null","","","null","15","","","","","","","","","","","","","","","",""
"","ISI","","html-keyboard-response","107","221749","0.0-1.0-138.0","0","0","92265","","null","","","null","15","NaN","","","","","","","","","","","","","","",""
"","S2","","html-keyboard-response","108","221905","0.0-1.0-139.0","0","0","92265","","null","","","null","15","","NaN","","","","","","","","","","","","","",""
"","response","","html-keyboard-response","109","223303","0.0-1.0-140.0-0.0","0","0","92265","","1394","","","68","15","","","1","15","training","adjacent","CB","3","2","N.jpg","O.jpg","0","0","1","",""
"","feedback","","html-keyboard-response","110","224311","0.0-1.0-141.0-0.0","0","0","92265","","null","","","null","15","","","","","","","","","","","","","","","",""
"","ITI","","html-keyboard-response","111","225319","0.0-1.0-144.0","0","0","92265","","null","","","null","15","","","","","","","","","","","","","","","NaN",""
"","S1","","html-keyboard-response","112","225475","0.0-1.0-146.0","0","0","92265","","null","","","null","16","","","","","","","","","","","","","","","",""
"","ISI","","html-keyboard-response","113","227483","0.0-1.0-147.0","0","0","92265","","null","","","null","16","NaN","","","","","","","","","","","","","","",""
"","S2","","html-keyboard-response","114","227641","0.0-1.0-148.0","0","0","92265","","null","","","null","16","","NaN","","","","","","","","","","","","","",""
"","response","","html-keyboard-response","115","228091","0.0-1.0-149.0-0.0","0","0","92265","","447","","","68","16","","","1","16","training","adjacent","CD","3","4","N.jpg","L.jpg","0","1","0","",""
"","feedback","","html-keyboard-response","116","229100","0.0-1.0-150.0-0.0","0","0","92265","","null","","","null","16","","","","","","","","","","","","","","","",""
"","time_out","","html-keyboard-response","117","231106","0.0-1.0-152.0-0.0","0","0","92265","","null","","","null","16","","","","","","","","","","","","","","","",""
"","ITI","","html-keyboard-response","118","232112","0.0-1.0-153.0","0","0","92265","","null","","","null","16","","","","","","","","","","","","","","","NaN",""
"","S1","","html-keyboard-response","119","232270","0.0-1.0-155.0","0","0","92265","","null","","","null","17","","","","","","","","","","","","","","","",""
"","ISI","","html-keyboard-response","120","234276","0.0-1.0-156.0","0","0","92265","","null","","","null","17","NaN","","","","","","","","","","","","","","",""
"","S2","","html-keyboard-response","121","234434","0.0-1.0-157.0","0","0","92265","","null","","","null","17","","NaN","","","","","","","","","","","","","",""
"","response","","html-keyboard-response","122","235519","0.0-1.0-158.0-0.0","0","0","92265","","1080","","","68","17","","","1","17","training","adjacent","DE","4","5","L.jpg","Q.jpg","0","1","0","",""
"","feedback","","html-keyboard-response","123","236528","0.0-1.0-159.0-0.0","0","0","92265","","null","","","null","17","","","","","","","","","","","","","","","",""
"","time_out","","html-keyboard-response","124","238536","0.0-1.0-161.0-0.0","0","0","92265","","null","","","null","17","","","","","","","","","","","","","","","",""
"","ITI","","html-keyboard-response","125","239546","0.0-1.0-162.0","0","0","92265","","null","","","null","17","","","","","","","","","","","","","","","NaN",""
"","S1","","html-keyboard-response","126","239703","0.0-1.0-164.0","0","0","92265","","null","","","null","18","","","","","","","","","","","","","","","",""
"","ISI","","html-keyboard-response","127","241712","0.0-1.0-165.0","0","0","92265","","null","","","null","18","NaN","","","","","","","","","","","","","","",""
"","S2","","html-keyboard-response","128","241868","0.0-1.0-166.0","0","0","92265","","null","","","null","18","","NaN","","","","","","","","","","","","","",""
"","response","","html-keyboard-response","129","242202","0.0-1.0-167.0-0.0","0","0","92265","","330","","","68","18","","","1","18","training","adjacent","BC","2","3","O.jpg","N.jpg","0","1","0","",""
"","feedback","","html-keyboard-response","130","243210","0.0-1.0-168.0-0.0","0","0","92265","","null","","","null","18","","","","","","","","","","","","","","","",""
"","time_out","","html-keyboard-response","131","245219","0.0-1.0-170.0-0.0","0","0","92265","","null","","","null","18","","","","","","","","","","","","","","","",""
"","ITI","","html-keyboard-response","132","246228","0.0-1.0-171.0","0","0","92265","","null","","","null","18","","","","","","","","","","","","","","","NaN",""
"","S1","","html-keyboard-response","133","246385","0.0-1.0-173.0","0","0","92265","","null","","","null","19","","","","","","","","","","","","","","","",""
"","ISI","","html-keyboard-response","134","248393","0.0-1.0-174.0","0","0","92265","","null","","","null","19","NaN","","","","","","","","","","","","","","",""
"","S2","","html-keyboard-response","135","248550","0.0-1.0-175.0","0","0","92265","","null","","","null","19","","NaN","","","","","","","","","","","","","",""
"","response","","html-keyboard-response","136","249110","0.0-1.0-176.0-0.0","0","0","92265","","555","","","68","19","","","1","19","training","adjacent","ED","5","4","Q.jpg","L.jpg","0","0","1","",""
"","feedback","","html-keyboard-response","137","250117","0.0-1.0-177.0-0.0","0","0","92265","","null","","","null","19","","","","","","","","","","","","","","","",""
"","ITI","","html-keyboard-response","138","251123","0.0-1.0-180.0","0","0","92265","","null","","","null","19","","","","","","","","","","","","","","","NaN",""
"","S1","","html-keyboard-response","139","251278","0.0-1.0-182.0","0","0","92265","","null","","","null","20","","","","","","","","","","","","","","","",""
"","ISI","","html-keyboard-response","140","253287","0.0-1.0-183.0","0","0","92265","","null","","","null","20","NaN","","","","","","","","","","","","","","",""
"","S2","","html-keyboard-response","141","253447","0.0-1.0-184.0","0","0","92265","","null","","","null","20","","NaN","","","","","","","","","","","","","",""
"","response","","html-keyboard-response","142","255206","0.0-1.0-185.0-0.0","0","0","92265","","1755","","","68","20","","","1","20","training","adjacent","FE","6","5","P.jpg","Q.jpg","0","0","1","",""
"","feedback","","html-keyboard-response","143","256214","0.0-1.0-186.0-0.0","0","0","92265","","null","","","null","20","","","","","","","","","","","","","","","",""
"","ITI","","html-keyboard-response","144","257222","0.0-1.0-189.0","0","0","92265","","null","","","null","20","","","","","","","","","","","","","","","NaN",""
"","S1","","html-keyboard-response","145","257379","0.0-1.0-191.0","0","0","92265","","null","","","null","21","","","","","","","","","","","","","","","",""
"","ISI","","html-keyboard-response","146","259385","0.0-1.0-192.0","0","0","92265","","null","","","null","21","NaN","","","","","","","","","","","","","","",""
"","S2","","html-keyboard-response","147","259544","0.0-1.0-193.0","0","0","92265","","null","","","null","21","","NaN","","","","","","","","","","","","","",""
"","response","","html-keyboard-response","148","261035","0.0-1.0-194.0-0.0","0","0","92265","","1486","","","75","21","","","1","21","training","adjacent","BA","2","1","O.jpg","R.jpg","1","0","0","",""
"","feedback","","html-keyboard-response","149","262041","0.0-1.0-195.0-0.0","0","0","92265","","null","","","null","21","","","","","","","","","","","","","","","",""
"","time_out","","html-keyboard-response","150","264049","0.0-1.0-197.0-0.0","0","0","92265","","null","","","null","21","","","","","","","","","","","","","","","",""
"","ITI","","html-keyboard-response","151","265059","0.0-1.0-198.0","0","0","92265","","null","","","null","21","","","","","","","","","","","","","","","NaN",""
"","S1","","html-keyboard-response","152","265219","0.0-1.0-200.0","0","0","92265","","null","","","null","22","","","","","","","","","","","","","","","",""
"","ISI","","html-keyboard-response","153","267225","0.0-1.0-201.0","0","0","92265","","null","","","null","22","NaN","","","","","","","","","","","","","","",""
"","S2","","html-keyboard-response","154","267381","0.0-1.0-202.0","0","0","92265","","null","","","null","22","","NaN","","","","","","","","","","","","","",""
"","response","","html-keyboard-response","155","267827","0.0-1.0-203.0-0.0","0","0","92265","","442","","","68","22","","","1","22","training","adjacent","ED","5","4","Q.jpg","L.jpg","0","0","1","",""
"","feedback","","html-keyboard-response","156","268834","0.0-1.0-204.0-0.0","0","0","92265","","null","","","null","22","","","","","","","","","","","","","","","",""
"","ITI","","html-keyboard-response","157","269843","0.0-1.0-207.0","0","0","92265","","null","","","null","22","","","","","","","","","","","","","","","NaN",""
"","S1","","html-keyboard-response","158","270000","0.0-1.0-209.0","0","0","92265","","null","","","null","23","","","","","","","","","","","","","","","",""
"","ISI","","html-keyboard-response","159","272007","0.0-1.0-210.0","0","0","92265","","null","","","null","23","NaN","","","","","","","","","","","","","","",""
"","S2","","html-keyboard-response","160","272164","0.0-1.0-211.0","0","0","92265","","null","","","null","23","","NaN","","","","","","","","","","","","","",""
"","response","","html-keyboard-response","161","272464","0.0-1.0-212.0-0.0","0","0","92265","","295","","","75","23","","","1","23","training","adjacent","EF","5","6","Q.jpg","P.jpg","1","1","1","",""
"","feedback","","html-keyboard-response","162","273470","0.0-1.0-213.0-0.0","0","0","92265","","null","","","null","23","","","","","","","","","","","","","","","",""
"","ITI","","html-keyboard-response","163","274477","0.0-1.0-216.0","0","0","92265","","null","","","null","23","","","","","","","","","","","","","","","NaN",""
"","S1","","html-keyboard-response","164","274637","0.0-1.0-218.0","0","0","92265","","null","","","null","24","","","","","","","","","","","","","","","",""
"","ISI","","html-keyboard-response","165","276646","0.0-1.0-219.0","0","0","92265","","null","","","null","24","NaN","","","","","","","","","","","","","","",""
"","S2","","html-keyboard-response","166","276802","0.0-1.0-220.0","0","0","92265","","null","","","null","24","","NaN","","","","","","","","","","","","","",""
"","response","","html-keyboard-response","167","277437","0.0-1.0-221.0-0.0","0","0","92265","","629","","","68","24","","","1","24","training","adjacent","DC","4","3","L.jpg","N.jpg","0","0","1","",""
"","feedback","","html-keyboard-response","168","278445","0.0-1.0-222.0-0.0","0","0","92265","","null","","","null","24","","","","","","","","","","","","","","","",""
"","ITI","","html-keyboard-response","169","279455","0.0-1.0-225.0","0","0","92265","","null","","","null","24","","","","","","","","","","","","","","","NaN",""
"","S1","","html-keyboard-response","170","279613","0.0-1.0-227.0","0","0","92265","","null","","","null","25","","","","","","","","","","","","","","","",""
"","ISI","","html-keyboard-response","171","281620","0.0-1.0-228.0","0","0","92265","","null","","","null","25","NaN","","","","","","","","","","","","","","",""
"","S2","","html-keyboard-response","172","281776","0.0-1.0-229.0","0","0","92265","","null","","","null","25","","NaN","","","","","","","","","","","","","",""
"","response","","html-keyboard-response","173","282611","0.0-1.0-230.0-0.0","0","0","92265","","831","","","68","25","","","1","25","training","adjacent","AB","1","2","R.jpg","O.jpg","0","1","0","",""
"","feedback","","html-keyboard-response","174","283621","0.0-1.0-231.0-0.0","0","0","92265","","null","","","null","25","","","","","","","","","","","","","","","",""
"","time_out","","html-keyboard-response","175","285629","0.0-1.0-233.0-0.0","0","0","92265","","null","","","null","25","","","","","","","","","","","","","","","",""
"","ITI","","html-keyboard-response","176","286638","0.0-1.0-234.0","0","0","92265","","null","","","null","25","","","","","","","","","","","","","","","NaN",""
"","S1","","html-keyboard-response","177","286794","0.0-1.0-236.0","0","0","92265","","null","","","null","26","","","","","","","","","","","","","","","",""
"","ISI","","html-keyboard-response","178","288801","0.0-1.0-237.0","0","0","92265","","null","","","null","26","NaN","","","","","","","","","","","","","","",""
"","S2","","html-keyboard-response","179","288958","0.0-1.0-238.0","0","0","92265","","null","","","null","26","","NaN","","","","","","","","","","","","","",""
"","response","","html-keyboard-response","180","289878","0.0-1.0-239.0-0.0","0","0","92265","","916","","","75","26","","","1","26","training","adjacent","DC","4","3","L.jpg","N.jpg","1","0","0","",""
"","feedback","","html-keyboard-response","181","290884","0.0-1.0-240.0-0.0","0","0","92265","","null","","","null","26","","","","","","","","","","","","","","","",""
"","time_out","","html-keyboard-response","182","292893","0.0-1.0-242.0-0.0","0","0","92265","","null","","","null","26","","","","","","","","","","","","","","","",""
"","ITI","","html-keyboard-response","183","293902","0.0-1.0-243.0","0","0","92265","","null","","","null","26","","","","","","","","","","","","","","","NaN",""
"","S1","","html-keyboard-response","184","294061","0.0-1.0-245.0","0","0","92265","","null","","","null","27","","","","","","","","","","","","","","","",""
"","ISI","","html-keyboard-response","185","296068","0.0-1.0-246.0","0","0","92265","","null","","","null","27","NaN","","","","","","","","","","","","","","",""
"","S2","","html-keyboard-response","186","296225","0.0-1.0-247.0","0","0","92265","","null","","","null","27","","NaN","","","","","","","","","","","","","",""
"","response","","html-keyboard-response","187","296898","0.0-1.0-248.0-0.0","0","0","92265","","668","","","68","27","","","1","27","training","adjacent","CD","3","4","N.jpg","L.jpg","0","1","0","",""
"","feedback","","html-keyboard-response","188","297909","0.0-1.0-249.0-0.0","0","0","92265","","null","","","null","27","","","","","","","","","","","","","","","",""
"","time_out","","html-keyboard-response","189","299919","0.0-1.0-251.0-0.0","0","0","92265","","null","","","null","27","","","","","","","","","","","","","","","",""
"","ITI","","html-keyboard-response","190","300928","0.0-1.0-252.0","0","0","92265","","null","","","null","27","","","","","","","","","","","","","","","NaN",""
"","S1","","html-keyboard-response","191","301084","0.0-1.0-254.0","0","0","92265","","null","","","null","28","","","","","","","","","","","","","","","",""
"","ISI","","html-keyboard-response","192","303093","0.0-1.0-255.0","0","0","92265","","null","","","null","28","NaN","","","","","","","","","","","","","","",""
"","S2","","html-keyboard-response","193","303249","0.0-1.0-256.0","0","0","92265","","null","","","null","28","","NaN","","","","","","","","","","","","","",""
"","response","","html-keyboard-response","194","304299","0.0-1.0-257.0-0.0","0","0","92265","","1047","","","68","28","","","1","28","training","adjacent","GF","7","6","M.jpg","P.jpg","0","0","1","",""
"","feedback","","html-keyboard-response","195","305310","0.0-1.0-258.0-0.0","0","0","92265","","null","","","null","28","","","","","","","","","","","","","","","",""
"","ITI","","html-keyboard-response","196","306319","0.0-1.0-261.0","0","0","92265","","null","","","null","28","","","","","","","","","","","","","","","NaN",""
"","S1","","html-keyboard-response","197","306476","0.0-1.0-263.0","0","0","92265","","null","","","null","29","","","","","","","","","","","","","","","",""
"","ISI","","html-keyboard-response","198","308485","0.0-1.0-264.0","0","0","92265","","null","","","null","29","NaN","","","","","","","","","","","","","","",""
"","S2","","html-keyboard-response","199","308644","0.0-1.0-265.0","0","0","92265","","null","","","null","29","","NaN","","","","","","","","","","","","","",""
"","response","","html-keyboard-response","200","308981","0.0-1.0-266.0-0.0","0","0","92265","","333","","","68","29","","","1","29","training","adjacent","GF","7","6","M.jpg","P.jpg","0","0","1","",""
"","feedback","","html-keyboard-response","201","309990","0.0-1.0-267.0-0.0","0","0","92265","","null","","","null","29","","","","","","","","","","","","","","","",""
"","ITI","","html-keyboard-response","202","310999","0.0-1.0-270.0","0","0","92265","","null","","","null","29","","","","","","","","","","","","","","","NaN",""
"","S1","","html-keyboard-response","203","311159","0.0-1.0-272.0","0","0","92265","","null","","","null","30","","","","","","","","","","","","","","","",""
"","ISI","","html-keyboard-response","204","313166","0.0-1.0-273.0","0","0","92265","","null","","","null","30","NaN","","","","","","","","","","","","","","",""
"","S2","","html-keyboard-response","205","313326","0.0-1.0-274.0","0","0","92265","","null","","","null","30","","NaN","","","","","","","","","","","","","",""
"","response","","html-keyboard-response","206","314425","0.0-1.0-275.0-0.0","0","0","92265","","1094","","","75","30","","","1","30","training","adjacent","BC","2","3","O.jpg","N.jpg","1","1","1","",""
"","feedback","","html-keyboard-response","207","315435","0.0-1.0-276.0-0.0","0","0","92265","","null","","","null","30","","","","","","","","","","","","","","","",""
"","ITI","","html-keyboard-response","208","316444","0.0-1.0-279.0","0","0","92265","","null","","","null","30","","","","","","","","","","","","","","","NaN",""
"","S1","","html-keyboard-response","209","316601","0.0-1.0-281.0","0","0","92265","","null","","","null","31","","","","","","","","","","","","","","","",""
"","ISI","","html-keyboard-response","210","318609","0.0-1.0-282.0","0","0","92265","","null","","","null","31","NaN","","","","","","","","","","","","","","",""
"","S2","","html-keyboard-response","211","318768","0.0-1.0-283.0","0","0","92265","","null","","","null","31","","NaN","","","","","","","","","","","","","",""
"","response","","html-keyboard-response","212","319353","0.0-1.0-284.0-0.0","0","0","92265","","581","","","75","31","","","1","31","training","adjacent","BC","2","3","O.jpg","N.jpg","1","1","1","",""
"","feedback","","html-keyboard-response","213","320362","0.0-1.0-285.0-0.0","0","0","92265","","null","","","null","31","","","","","","","","","","","","","","","",""
"","ITI","","html-keyboard-response","214","321372","0.0-1.0-288.0","0","0","92265","","null","","","null","31","","","","","","","","","","","","","","","NaN",""
"","S1","","html-keyboard-response","215","321532","0.0-1.0-290.0","0","0","92265","","null","","","null","32","","","","","","","","","","","","","","","",""
"","ISI","","html-keyboard-response","216","323537","0.0-1.0-291.0","0","0","92265","","null","","","null","32","NaN","","","","","","","","","","","","","","",""
"","S2","","html-keyboard-response","217","323696","0.0-1.0-292.0","0","0","92265","","null","","","null","32","","NaN","","","","","","","","","","","","","",""
"","response","","html-keyboard-response","218","324685","0.0-1.0-293.0-0.0","0","0","92265","","984","","","75","32","","","1","32","training","adjacent","BA","2","1","O.jpg","R.jpg","1","0","0","",""
"","feedback","","html-keyboard-response","219","325692","0.0-1.0-294.0-0.0","0","0","92265","","null","","","null","32","","","","","","","","","","","","","","","",""
"","time_out","","html-keyboard-response","220","327699","0.0-1.0-296.0-0.0","0","0","92265","","null","","","null","32","","","","","","","","","","","","","","","",""
"","ITI","","html-keyboard-response","221","328709","0.0-1.0-297.0","0","0","92265","","null","","","null","32","","","","","","","","","","","","","","","NaN",""
"","S1","","html-keyboard-response","222","328866","0.0-1.0-299.0","0","0","92265","","null","","","null","33","","","","","","","","","","","","","","","",""
"","ISI","","html-keyboard-response","223","330871","0.0-1.0-300.0","0","0","92265","","null","","","null","33","NaN","","","","","","","","","","","","","","",""
"","S2","","html-keyboard-response","224","331031","0.0-1.0-301.0","0","0","92265","","null","","","null","33","","NaN","","","","","","","","","","","","","",""
"","response","","html-keyboard-response","225","331908","0.0-1.0-302.0-0.0","0","0","92265","","872","","","68","33","","","1","33","training","adjacent","CB","3","2","N.jpg","O.jpg","0","0","1","",""
"","feedback","","html-keyboard-response","226","332918","0.0-1.0-303.0-0.0","0","0","92265","","null","","","null","33","","","","","","","","","","","","","","","",""
"","ITI","","html-keyboard-response","227","333928","0.0-1.0-306.0","0","0","92265","","null","","","null","33","","","","","","","","","","","","","","","NaN",""
"","S1","","html-keyboard-response","228","334088","0.0-1.0-308.0","0","0","92265","","null","","","null","34","","","","","","","","","","","","","","","",""
"","ISI","","html-keyboard-response","229","336093","0.0-1.0-309.0","0","0","92265","","null","","","null","34","NaN","","","","","","","","","","","","","","",""
"","S2","","html-keyboard-response","230","336250","0.0-1.0-310.0","0","0","92265","","null","","","null","34","","NaN","","","","","","","","","","","","","",""
"","response","","html-keyboard-response","231","337172","0.0-1.0-311.0-0.0","0","0","92265","","918","","","68","34","","","1","34","training","adjacent","AB","1","2","R.jpg","O.jpg","0","1","0","",""
"","feedback","","html-keyboard-response","232","338177","0.0-1.0-312.0-0.0","0","0","92265","","null","","","null","34","","","","","","","","","","","","","","","",""
"","time_out","","html-keyboard-response","233","340185","0.0-1.0-314.0-0.0","0","0","92265","","null","","","null","34","","","","","","","","","","","","","","","",""
"","ITI","","html-keyboard-response","234","341190","0.0-1.0-315.0","0","0","92265","","null","","","null","34","","","","","","","","","","","","","","","NaN",""
"","S1","","html-keyboard-response","235","341346","0.0-1.0-317.0","0","0","92265","","null","","","null","35","","","","","","","","","","","","","","","",""
"","ISI","","html-keyboard-response","236","343355","0.0-1.0-318.0","0","0","92265","","null","","","null","35","NaN","","","","","","","","","","","","","","",""
"","S2","","html-keyboard-response","237","343512","0.0-1.0-319.0","0","0","92265","","null","","","null","35","","NaN","","","","","","","","","","","","","",""
"","response","","html-keyboard-response","238","344495","0.0-1.0-320.0-0.0","0","0","92265","","980","","","68","35","","","1","35","training","adjacent","ED","5","4","Q.jpg","L.jpg","0","0","1","",""
"","feedback","","html-keyboard-response","239","345503","0.0-1.0-321.0-0.0","0","0","92265","","null","","","null","35","","","","","","","","","","","","","","","",""
"","ITI","","html-keyboard-response","240","346513","0.0-1.0-324.0","0","0","92265","","null","","","null","35","","","","","","","","","","","","","","","NaN",""
"","S1","","html-keyboard-response","241","346671","0.0-1.0-326.0","0","0","92265","","null","","","null","36","","","","","","","","","","","","","","","",""
"","ISI","","html-keyboard-response","242","348678","0.0-1.0-327.0","0","0","92265","","null","","","null","36","NaN","","","","","","","","","","","","","","",""
"","S2","","html-keyboard-response","243","348835","0.0-1.0-328.0","0","0","92265","","null","","","null","36","","NaN","","","","","","","","","","","","","",""
"","response","","html-keyboard-response","244","349388","0.0-1.0-329.0-0.0","0","0","92265","","550","","","68","36","","","1","36","training","adjacent","EF","5","6","Q.jpg","P.jpg","0","1","0","",""
"","feedback","","html-keyboard-response","245","350396","0.0-1.0-330.0-0.0","0","0","92265","","null","","","null","36","","","","","","","","","","","","","","","",""
"","time_out","","html-keyboard-response","246","352404","0.0-1.0-332.0-0.0","0","0","92265","","null","","","null","36","","","","","","","","","","","","","","","",""
"","ITI","","html-keyboard-response","247","353409","0.0-1.0-333.0","0","0","92265","","null","","","null","36","","","","","","","","","","","","","","","NaN",""
"","S1","","html-keyboard-response","248","353566","0.0-1.0-335.0","0","0","92265","","null","","","null","37","","","","","","","","","","","","","","","",""
"","ISI","","html-keyboard-response","249","355574","0.0-1.0-336.0","0","0","92265","","null","","","null","37","NaN","","","","","","","","","","","","","","",""
"","S2","","html-keyboard-response","250","355730","0.0-1.0-337.0","0","0","92265","","null","","","null","37","","NaN","","","","","","","","","","","","","",""
"","response","","html-keyboard-response","251","356793","0.0-1.0-338.0-0.0","0","0","92265","","1058","","","75","37","","","1","37","training","adjacent","BA","2","1","O.jpg","R.jpg","1","0","0","",""
"","feedback","","html-keyboard-response","252","357803","0.0-1.0-339.0-0.0","0","0","92265","","null","","","null","37","","","","","","","","","","","","","","","",""
"","time_out","","html-keyboard-response","253","359812","0.0-1.0-341.0-0.0","0","0","92265","","null","","","null","37","","","","","","","","","","","","","","","",""
"","ITI","","html-keyboard-response","254","360822","0.0-1.0-342.0","0","0","92265","","null","","","null","37","","","","","","","","","","","","","","","NaN",""
"","S1","","html-keyboard-response","255","360980","0.0-1.0-344.0","0","0","92265","","null","","","null","38","","","","","","","","","","","","","","","",""
"","ISI","","html-keyboard-response","256","362989","0.0-1.0-345.0","0","0","92265","","null","","","null","38","NaN","","","","","","","","","","","","","","",""
"","S2","","html-keyboard-response","257","363149","0.0-1.0-346.0","0","0","92265","","null","","","null","38","","NaN","","","","","","","","","","","","","",""
"","response","","html-keyboard-response","258","364217","0.0-1.0-347.0-0.0","0","0","92265","","1062","","","68","38","","","1","38","training","adjacent","CD","3","4","N.jpg","L.jpg","0","1","0","",""
"","feedback","","html-keyboard-response","259","365226","0.0-1.0-348.0-0.0","0","0","92265","","null","","","null","38","","","","","","","","","","","","","","","",""
"","time_out","","html-keyboard-response","260","367232","0.0-1.0-350.0-0.0","0","0","92265","","null","","","null","38","","","","","","","","","","","","","","","",""
"","ITI","","html-keyboard-response","261","368240","0.0-1.0-351.0","0","0","92265","","null","","","null","38","","","","","","","","","","","","","","","NaN",""
"","S1","","html-keyboard-response","262","368397","0.0-1.0-353.0","0","0","92265","","null","","","null","39","","","","","","","","","","","","","","","",""
"","ISI","","html-keyboard-response","263","370405","0.0-1.0-354.0","0","0","92265","","null","","","null","39","NaN","","","","","","","","","","","","","","",""
"","S2","","html-keyboard-response","264","370562","0.0-1.0-355.0","0","0","92265","","null","","","null","39","","NaN","","","","","","","","","","","","","",""
"","response","","html-keyboard-response","265","371013","0.0-1.0-356.0-0.0","0","0","92265","","447","","","75","39","","","1","39","training","adjacent","CD","3","4","N.jpg","L.jpg","1","1","1","",""
"","feedback","","html-keyboard-response","266","372019","0.0-1.0-357.0-0.0","0","0","92265","","null","","","null","39","","","","","","","","","","","","","","","",""
"","ITI","","html-keyboard-response","267","373029","0.0-1.0-360.0","0","0","92265","","null","","","null","39","","","","","","","","","","","","","","","NaN",""
"","S1","","html-keyboard-response","268","373186","0.0-1.0-362.0","0","0","92265","","null","","","null","40","","","","","","","","","","","","","","","",""
"","ISI","","html-keyboard-response","269","375195","0.0-1.0-363.0","0","0","92265","","null","","","null","40","NaN","","","","","","","","","","","","","","",""
"","S2","","html-keyboard-response","270","375353","0.0-1.0-364.0","0","0","92265","","null","","","null","40","","NaN","","","","","","","","","","","","","",""
"","response","","html-keyboard-response","271","376726","0.0-1.0-365.0-0.0","0","0","92265","","1368","","","75","40","","","1","40","training","adjacent","DC","4","3","L.jpg","N.jpg","1","0","0","",""
"","feedback","","html-keyboard-response","272","377734","0.0-1.0-366.0-0.0","0","0","92265","","null","","","null","40","","","","","","","","","","","","","","","",""
"","time_out","","html-keyboard-response","273","379743","0.0-1.0-368.0-0.0","0","0","92265","","null","","","null","40","","","","","","","","","","","","","","","",""
"","ITI","","html-keyboard-response","274","380753","0.0-1.0-369.0","0","0","92265","","null","","","null","40","","","","","","","","","","","","","","","NaN",""
"","S1","","html-keyboard-response","275","380912","0.0-1.0-371.0","0","0","92265","","null","","","null","41","","","","","","","","","","","","","","","",""
"","ISI","","html-keyboard-response","276","382921","0.0-1.0-372.0","0","0","92265","","null","","","null","41","NaN","","","","","","","","","","","","","","",""
"","S2","","html-keyboard-response","277","383078","0.0-1.0-373.0","0","0","92265","","null","","","null","41","","NaN","","","","","","","","","","","","","",""
"","response","","html-keyboard-response","278","383994","0.0-1.0-374.0-0.0","0","0","92265","","911","","","68","41","","","1","41","training","adjacent","DC","4","3","L.jpg","N.jpg","0","0","1","",""
"","feedback","","html-keyboard-response","279","385005","0.0-1.0-375.0-0.0","0","0","92265","","null","","","null","41","","","","","","","","","","","","","","","",""
"","ITI","","html-keyboard-response","280","386015","0.0-1.0-378.0","0","0","92265","","null","","","null","41","","","","","","","","","","","","","","","NaN",""
"","S1","","html-keyboard-response","281","386171","0.0-1.0-380.0","0","0","92265","","null","","","null","42","","","","","","","","","","","","","","","",""
"","ISI","","html-keyboard-response","282","388180","0.0-1.0-381.0","0","0","92265","","null","","","null","42","NaN","","","","","","","","","","","","","","",""
"","S2","","html-keyboard-response","283","388338","0.0-1.0-382.0","0","0","92265","","null","","","null","42","","NaN","","","","","","","","","","","","","",""
"","response","","html-keyboard-response","284","389234","0.0-1.0-383.0-0.0","0","0","92265","","892","","","75","42","","","1","42","training","adjacent","BC","2","3","O.jpg","N.jpg","1","1","1","",""
"","feedback","","html-keyboard-response","285","390242","0.0-1.0-384.0-0.0","0","0","92265","","null","","","null","42","","","","","","","","","","","","","","","",""
"","ITI","","html-keyboard-response","286","391251","0.0-1.0-387.0","0","0","92265","","null","","","null","42","","","","","","","","","","","","","","","NaN",""
"","S1","","html-keyboard-response","287","391408","0.0-1.0-389.0","0","0","92265","","null","","","null","43","","","","","","","","","","","","","","","",""
"","ISI","","html-keyboard-response","288","393416","0.0-1.0-390.0","0","0","92265","","null","","","null","43","NaN","","","","","","","","","","","","","","",""
"","S2","","html-keyboard-response","289","393575","0.0-1.0-391.0","0","0","92265","","null","","","null","43","","NaN","","","","","","","","","","","","","",""
"","response","","html-keyboard-response","290","394412","0.0-1.0-392.0-0.0","0","0","92265","","833","","","75","43","","","1","43","training","adjacent","FE","6","5","P.jpg","Q.jpg","1","0","0","",""
"","feedback","","html-keyboard-response","291","395421","0.0-1.0-393.0-0.0","0","0","92265","","null","","","null","43","","","","","","","","","","","","","","","",""
"","time_out","","html-keyboard-response","292","397431","0.0-1.0-395.0-0.0","0","0","92265","","null","","","null","43","","","","","","","","","","","","","","","",""
"","ITI","","html-keyboard-response","293","398437","0.0-1.0-396.0","0","0","92265","","null","","","null","43","","","","","","","","","","","","","","","NaN",""
"","S1","","html-keyboard-response","294","398594","0.0-1.0-398.0","0","0","92265","","null","","","null","44","","","","","","","","","","","","","","","",""
"","ISI","","html-keyboard-response","295","400602","0.0-1.0-399.0","0","0","92265","","null","","","null","44","NaN","","","","","","","","","","","","","","",""
"","S2","","html-keyboard-response","296","400759","0.0-1.0-400.0","0","0","92265","","null","","","null","44","","NaN","","","","","","","","","","","","","",""
"","response","","html-keyboard-response","297","402217","0.0-1.0-401.0-0.0","0","0","92265","","1454","","","68","44","","","1","44","training","adjacent","BA","2","1","O.jpg","R.jpg","0","0","1","",""
"","feedback","","html-keyboard-response","298","403226","0.0-1.0-402.0-0.0","0","0","92265","","null","","","null","44","","","","","","","","","","","","","","","",""
"","ITI","","html-keyboard-response","299","404235","0.0-1.0-405.0","0","0","92265","","null","","","null","44","","","","","","","","","","","","","","","NaN",""
"","S1","","html-keyboard-response","300","404393","0.0-1.0-407.0","0","0","92265","","null","","","null","45","","","","","","","","","","","","","","","",""
"","ISI","","html-keyboard-response","301","406403","0.0-1.0-408.0","0","0","92265","","null","","","null","45","NaN","","","","","","","","","","","","","","",""
"","S2","","html-keyboard-response","302","406560","0.0-1.0-409.0","0","0","92265","","null","","","null","45","","NaN","","","","","","","","","","","","","",""
"","response","","html-keyboard-response","303","407842","0.0-1.0-410.0-0.0","0","0","92265","","1279","","","75","45","","","1","45","training","adjacent","FE","6","5","P.jpg","Q.jpg","1","0","0","",""
"","feedback","","html-keyboard-response","304","408851","0.0-1.0-411.0-0.0","0","0","92265","","null","","","null","45","","","","","","","","","","","","","","","",""
"","time_out","","html-keyboard-response","305","410860","0.0-1.0-413.0-0.0","0","0","92265","","null","","","null","45","","","","","","","","","","","","","","","",""
"","ITI","","html-keyboard-response","306","411870","0.0-1.0-414.0","0","0","92265","","null","","","null","45","","","","","","","","","","","","","","","NaN",""
"","S1","","html-keyboard-response","307","412029","0.0-1.0-416.0","0","0","92265","","null","","","null","46","","","","","","","","","","","","","","","",""
"","ISI","","html-keyboard-response","308","414120","0.0-1.0-417.0","0","0","92265","","null","","","null","46","NaN","","","","","","","","","","","","","","",""
"","S2","","html-keyboard-response","309","414277","0.0-1.0-418.0","0","0","92265","","null","","","null","46","","NaN","","","","","","","","","","","","","",""
"","response","","html-keyboard-response","310","415194","0.0-1.0-419.0-0.0","0","0","92265","","914","","","68","46","","","1","46","training","adjacent","CB","3","2","N.jpg","O.jpg","0","0","1","",""
"","feedback","","html-keyboard-response","311","416204","0.0-1.0-420.0-0.0","0","0","92265","","null","","","null","46","","","","","","","","","","","","","","","",""
"","ITI","","html-keyboard-response","312","417214","0.0-1.0-423.0","0","0","92265","","null","","","null","46","","","","","","","","","","","","","","","NaN",""
"","S1","","html-keyboard-response","313","417371","0.0-1.0-425.0","0","0","92265","","null","","","null","47","","","","","","","","","","","","","","","",""
"","ISI","","html-keyboard-response","314","419381","0.0-1.0-426.0","0","0","92265","","null","","","null","47","NaN","","","","","","","","","","","","","","",""
"","S2","","html-keyboard-response","315","419541","0.0-1.0-427.0","0","0","92265","","null","","","null","47","","NaN","","","","","","","","","","","","","",""
"","response","","html-keyboard-response","316","421270","0.0-1.0-428.0-0.0","0","0","92265","","1725","","","75","47","","","1","47","training","adjacent","FG","6","7","P.jpg","M.jpg","1","1","1","",""
"","feedback","","html-keyboard-response","317","422279","0.0-1.0-429.0-0.0","0","0","92265","","null","","","null","47","","","","","","","","","","","","","","","",""
"","ITI","","html-keyboard-response","318","423290","0.0-1.0-432.0","0","0","92265","","null","","","null","47","","","","","","","","","","","","","","","NaN",""
"","block_over","","html-keyboard-response","319","442061","0.0-1.0-433.0-0.0","0","0","92265","","18767","","","32","47","","","","","","","","","","","","","","","",""
"","S1","","html-keyboard-response","320","442220","0.0-1.0-434.0","0","0","92265","","null","","","null","48","","","","","","","","","","","","","","","",""
"","ISI","","html-keyboard-response","321","444226","0.0-1.0-435.0","0","0","92265","","null","","","null","48","NaN","","","","","","","","","","","","","","",""
"","S2","","html-keyboard-response","322","444383","0.0-1.0-436.0","0","0","92265","","null","","","null","48","","NaN","","","","","","","","","","","","","",""
"","response","","html-keyboard-response","323","445885","0.0-1.0-437.0-0.0","0","0","92265","","1497","","","68","48","","","2","48","training","adjacent","GF","7","6","M.jpg","P.jpg","0","0","1","",""
"","feedback","","html-keyboard-response","324","446894","0.0-1.0-438.0-0.0","0","0","92265","","null","","","null","48","","","","","","","","","","","","","","","",""
"","ITI","","html-keyboard-response","325","447902","0.0-1.0-441.0","0","0","92265","","null","","","null","48","","","","","","","","","","","","","","","NaN",""
"","S1","","html-keyboard-response","326","448061","0.0-1.0-443.0","0","0","92265","","null","","","null","49","","","","","","","","","","","","","","","",""
"","ISI","","html-keyboard-response","327","450070","0.0-1.0-444.0","0","0","92265","","null","","","null","49","NaN","","","","","","","","","","","","","","",""
"","S2","","html-keyboard-response","328","450227","0.0-1.0-445.0","0","0","92265","","null","","","null","49","","NaN","","","","","","","","","","","","","",""
"","response","","html-keyboard-response","329","451060","0.0-1.0-446.0-0.0","0","0","92265","","828","","","75","49","","","2","49","training","adjacent","DE","4","5","L.jpg","Q.jpg","1","1","1","",""
"","feedback","","html-keyboard-response","330","452068","0.0-1.0-447.0-0.0","0","0","92265","","null","","","null","49","","","","","","","","","","","","","","","",""
"","ITI","","html-keyboard-response","331","453077","0.0-1.0-450.0","0","0","92265","","null","","","null","49","","","","","","","","","","","","","","","NaN",""
"","S1","","html-keyboard-response","332","453234","0.0-1.0-452.0","0","0","92265","","null","","","null","50","","","","","","","","","","","","","","","",""
"","ISI","","html-keyboard-response","333","455242","0.0-1.0-453.0","0","0","92265","","null","","","null","50","NaN","","","","","","","","","","","","","","",""
"","S2","","html-keyboard-response","334","455399","0.0-1.0-454.0","0","0","92265","","null","","","null","50","","NaN","","","","","","","","","","","","","",""
"","response","","html-keyboard-response","335","456193","0.0-1.0-455.0-0.0","0","0","92265","","789","","","75","50","","","2","50","training","adjacent","DC","4","3","L.jpg","N.jpg","1","0","0","",""
"","feedback","","html-keyboard-response","336","457200","0.0-1.0-456.0-0.0","0","0","92265","","null","","","null","50","","","","","","","","","","","","","","","",""
"","time_out","","html-keyboard-response","337","459207","0.0-1.0-458.0-0.0","0","0","92265","","null","","","null","50","","","","","","","","","","","","","","","",""
"","ITI","","html-keyboard-response","338","460213","0.0-1.0-459.0","0","0","92265","","null","","","null","50","","","","","","","","","","","","","","","NaN",""
"","S1","","html-keyboard-response","339","460371","0.0-1.0-461.0","0","0","92265","","null","","","null","51","","","","","","","","","","","","","","","",""
"","ISI","","html-keyboard-response","340","462378","0.0-1.0-462.0","0","0","92265","","null","","","null","51","NaN","","","","","","","","","","","","","","",""
"","S2","","html-keyboard-response","341","462534","0.0-1.0-463.0","0","0","92265","","null","","","null","51","","NaN","","","","","","","","","","","","","",""
"","response","","html-keyboard-response","342","463435","0.0-1.0-464.0-0.0","0","0","92265","","897","","","68","51","","","2","51","training","adjacent","ED","5","4","Q.jpg","L.jpg","0","0","1","",""
"","feedback","","html-keyboard-response","343","464443","0.0-1.0-465.0-0.0","0","0","92265","","null","","","null","51","","","","","","","","","","","","","","","",""
"","ITI","","html-keyboard-response","344","465453","0.0-1.0-468.0","0","0","92265","","null","","","null","51","","","","","","","","","","","","","","","NaN",""
"","S1","","html-keyboard-response","345","465610","0.0-1.0-470.0","0","0","92265","","null","","","null","52","","","","","","","","","","","","","","","",""
"","ISI","","html-keyboard-response","346","467619","0.0-1.0-471.0","0","0","92265","","null","","","null","52","NaN","","","","","","","","","","","","","","",""
"","S2","","html-keyboard-response","347","467775","0.0-1.0-472.0","0","0","92265","","null","","","null","52","","NaN","","","","","","","","","","","","","",""
"","response","","html-keyboard-response","348","468274","0.0-1.0-473.0-0.0","0","0","92265","","494","","","75","52","","","2","52","training","adjacent","FG","6","7","P.jpg","M.jpg","1","1","1","",""
"","feedback","","html-keyboard-response","349","469285","0.0-1.0-474.0-0.0","0","0","92265","","null","","","null","52","","","","","","","","","","","","","","","",""
"","ITI","","html-keyboard-response","350","470292","0.0-1.0-477.0","0","0","92265","","null","","","null","52","","","","","","","","","","","","","","","NaN",""
"","S1","","html-keyboard-response","351","470452","0.0-1.0-479.0","0","0","92265","","null","","","null","53","","","","","","","","","","","","","","","",""
"","ISI","","html-keyboard-response","352","472460","0.0-1.0-480.0","0","0","92265","","null","","","null","53","NaN","","","","","","","","","","","","","","",""
"","S2","","html-keyboard-response","353","472620","0.0-1.0-481.0","0","0","92265","","null","","","null","53","","NaN","","","","","","","","","","","","","",""
"","response","","html-keyboard-response","354","473696","0.0-1.0-482.0-0.0","0","0","92265","","1071","","","75","53","","","2","53","training","adjacent","DE","4","5","L.jpg","Q.jpg","1","1","1","",""
"","feedback","","html-keyboard-response","355","474703","0.0-1.0-483.0-0.0","0","0","92265","","null","","","null","53","","","","","","","","","","","","","","","",""
"","ITI","","html-keyboard-response","356","475711","0.0-1.0-486.0","0","0","92265","","null","","","null","53","","","","","","","","","","","","","","","NaN",""
"","S1","","html-keyboard-response","357","475869","0.0-1.0-488.0","0","0","92265","","null","","","null","54","","","","","","","","","","","","","","","",""
"","ISI","","html-keyboard-response","358","477876","0.0-1.0-489.0","0","0","92265","","null","","","null","54","NaN","","","","","","","","","","","","","","",""
"","S2","","html-keyboard-response","359","478035","0.0-1.0-490.0","0","0","92265","","null","","","null","54","","NaN","","","","","","","","","","","","","",""
"","response","","html-keyboard-response","360","478915","0.0-1.0-491.0-0.0","0","0","92265","","877","","","68","54","","","2","54","training","adjacent","GF","7","6","M.jpg","P.jpg","0","0","1","",""
"","feedback","","html-keyboard-response","361","479925","0.0-1.0-492.0-0.0","0","0","92265","","null","","","null","54","","","","","","","","","","","","","","","",""
"","ITI","","html-keyboard-response","362","480934","0.0-1.0-495.0","0","0","92265","","null","","","null","54","","","","","","","","","","","","","","","NaN",""
"","S1","","html-keyboard-response","363","481092","0.0-1.0-497.0","0","0","92265","","null","","","null","55","","","","","","","","","","","","","","","",""
"","ISI","","html-keyboard-response","364","483101","0.0-1.0-498.0","0","0","92265","","null","","","null","55","NaN","","","","","","","","","","","","","","",""
"","S2","","html-keyboard-response","365","483259","0.0-1.0-499.0","0","0","92265","","null","","","null","55","","NaN","","","","","","","","","","","","","",""
"","response","","html-keyboard-response","366","484316","0.0-1.0-500.0-0.0","0","0","92265","","1052","","","75","55","","","2","55","training","adjacent","DC","4","3","L.jpg","N.jpg","1","0","0","",""
"","feedback","","html-keyboard-response","367","485324","0.0-1.0-501.0-0.0","0","0","92265","","null","","","null","55","","","","","","","","","","","","","","","",""
"","time_out","","html-keyboard-response","368","487333","0.0-1.0-503.0-0.0","0","0","92265","","null","","","null","55","","","","","","","","","","","","","","","",""
"","ITI","","html-keyboard-response","369","488339","0.0-1.0-504.0","0","0","92265","","null","","","null","55","","","","","","","","","","","","","","","NaN",""
"","S1","","html-keyboard-response","370","488499","0.0-1.0-506.0","0","0","92265","","null","","","null","56","","","","","","","","","","","","","","","",""
"","ISI","","html-keyboard-response","371","490508","0.0-1.0-507.0","0","0","92265","","null","","","null","56","NaN","","","","","","","","","","","","","","",""
"","S2","","html-keyboard-response","372","490666","0.0-1.0-508.0","0","0","92265","","null","","","null","56","","NaN","","","","","","","","","","","","","",""
"","response","","html-keyboard-response","373","491180","0.0-1.0-509.0-0.0","0","0","92265","","509","","","68","56","","","2","56","training","adjacent","ED","5","4","Q.jpg","L.jpg","0","0","1","",""
"","feedback","","html-keyboard-response","374","492186","0.0-1.0-510.0-0.0","0","0","92265","","null","","","null","56","","","","","","","","","","","","","","","",""
"","ITI","","html-keyboard-response","375","493196","0.0-1.0-513.0","0","0","92265","","null","","","null","56","","","","","","","","","","","","","","","NaN",""
"","S1","","html-keyboard-response","376","493355","0.0-1.0-515.0","0","0","92265","","null","","","null","57","","","","","","","","","","","","","","","",""
"","ISI","","html-keyboard-response","377","495361","0.0-1.0-516.0","0","0","92265","","null","","","null","57","NaN","","","","","","","","","","","","","","",""
"","S2","","html-keyboard-response","378","495518","0.0-1.0-517.0","0","0","92265","","null","","","null","57","","NaN","","","","","","","","","","","","","",""
"","response","","html-keyboard-response","379","496511","0.0-1.0-518.0-0.0","0","0","92265","","988","","","68","57","","","2","57","training","adjacent","BA","2","1","O.jpg","R.jpg","0","0","1","",""
"","feedback","","html-keyboard-response","380","497520","0.0-1.0-519.0-0.0","0","0","92265","","null","","","null","57","","","","","","","","","","","","","","","",""
"","ITI","","html-keyboard-response","381","498531","0.0-1.0-522.0","0","0","92265","","null","","","null","57","","","","","","","","","","","","","","","NaN",""
"","S1","","html-keyboard-response","382","498691","0.0-1.0-524.0","0","0","92265","","null","","","null","58","","","","","","","","","","","","","","","",""
"","ISI","","html-keyboard-response","383","500697","0.0-1.0-525.0","0","0","92265","","null","","","null","58","NaN","","","","","","","","","","","","","","",""
"","S2","","html-keyboard-response","384","500853","0.0-1.0-526.0","0","0","92265","","null","","","null","58","","NaN","","","","","","","","","","","","","",""
"","response","","html-keyboard-response","385","501279","0.0-1.0-527.0-0.0","0","0","92265","","422","","","75","58","","","2","58","training","adjacent","CD","3","4","N.jpg","L.jpg","1","1","1","",""
"","feedback","","html-keyboard-response","386","502286","0.0-1.0-528.0-0.0","0","0","92265","","null","","","null","58","","","","","","","","","","","","","","","",""
"","ITI","","html-keyboard-response","387","503297","0.0-1.0-531.0","0","0","92265","","null","","","null","58","","","","","","","","","","","","","","","NaN",""
"","S1","","html-keyboard-response","388","503453","0.0-1.0-533.0","0","0","92265","","null","","","null","59","","","","","","","","","","","","","","","",""
"","ISI","","html-keyboard-response","389","505462","0.0-1.0-534.0","0","0","92265","","null","","","null","59","NaN","","","","","","","","","","","","","","",""
"","S2","","html-keyboard-response","390","505621","0.0-1.0-535.0","0","0","92265","","null","","","null","59","","NaN","","","","","","","","","","","","","",""
"","response","","html-keyboard-response","391","506907","0.0-1.0-536.0-0.0","0","0","92265","","1281","","","75","59","","","2","59","training","adjacent","BC","2","3","O.jpg","N.jpg","1","1","1","",""
"","feedback","","html-keyboard-response","392","507914","0.0-1.0-537.0-0.0","0","0","92265","","null","","","null","59","","","","","","","","","","","","","","","",""
"","ITI","","html-keyboard-response","393","508922","0.0-1.0-540.0","0","0","92265","","null","","","null","59","","","","","","","","","","","","","","","NaN",""
"","S1","","html-keyboard-response","394","509078","0.0-1.0-542.0","0","0","92265","","null","","","null","60","","","","","","","","","","","","","","","",""
"","ISI","","html-keyboard-response","395","511087","0.0-1.0-543.0","0","0","92265","","null","","","null","60","NaN","","","","","","","","","","","","","","",""
"","S2","","html-keyboard-response","396","511246","0.0-1.0-544.0","0","0","92265","","null","","","null","60","","NaN","","","","","","","","","","","","","",""
"","response","","html-keyboard-response","397","512980","0.0-1.0-545.0-0.0","0","0","92265","","1730","","","75","60","","","2","60","training","adjacent","CD","3","4","N.jpg","L.jpg","1","1","1","",""
"","feedback","","html-keyboard-response","398","513989","0.0-1.0-546.0-0.0","0","0","92265","","null","","","null","60","","","","","","","","","","","","","","","",""
"","ITI","","html-keyboard-response","399","514995","0.0-1.0-549.0","0","0","92265","","null","","","null","60","","","","","","","","","","","","","","","NaN",""
"","S1","","html-keyboard-response","400","515154","0.0-1.0-551.0","0","0","92265","","null","","","null","61","","","","","","","","","","","","","","","",""
"","ISI","","html-keyboard-response","401","517163","0.0-1.0-552.0","0","0","92265","","null","","","null","61","NaN","","","","","","","","","","","","","","",""
"","S2","","html-keyboard-response","402","517323","0.0-1.0-553.0","0","0","92265","","null","","","null","61","","NaN","","","","","","","","","","","","","",""
"","response","","html-keyboard-response","403","518470","0.0-1.0-554.0-0.0","0","0","92265","","1143","","","75","61","","","2","61","training","adjacent","FG","6","7","P.jpg","M.jpg","1","1","1","",""
"","feedback","","html-keyboard-response","404","519481","0.0-1.0-555.0-0.0","0","0","92265","","null","","","null","61","","","","","","","","","","","","","","","",""
"","ITI","","html-keyboard-response","405","520492","0.0-1.0-558.0","0","0","92265","","null","","","null","61","","","","","","","","","","","","","","","NaN",""
"","S1","","html-keyboard-response","406","520651","0.0-1.0-560.0","0","0","92265","","null","","","null","62","","","","","","","","","","","","","","","",""
"","ISI","","html-keyboard-response","407","522660","0.0-1.0-561.0","0","0","92265","","null","","","null","62","NaN","","","","","","","","","","","","","","",""
"","S2","","html-keyboard-response","408","522819","0.0-1.0-562.0","0","0","92265","","null","","","null","62","","NaN","","","","","","","","","","","","","",""
"","response","","html-keyboard-response","409","524435","0.0-1.0-563.0-0.0","0","0","92265","","1611","","","75","62","","","2","62","training","adjacent","DC","4","3","L.jpg","N.jpg","1","0","0","",""
"","feedback","","html-keyboard-response","410","525445","0.0-1.0-564.0-0.0","0","0","92265","","null","","","null","62","","","","","","","","","","","","","","","",""
"","time_out","","html-keyboard-response","411","527451","0.0-1.0-566.0-0.0","0","0","92265","","null","","","null","62","","","","","","","","","","","","","","","",""
"","ITI","","html-keyboard-response","412","528456","0.0-1.0-567.0","0","0","92265","","null","","","null","62","","","","","","","","","","","","","","","NaN",""
"","S1","","html-keyboard-response","413","528613","0.0-1.0-569.0","0","0","92265","","null","","","null","63","","","","","","","","","","","","","","","",""
"","ISI","","html-keyboard-response","414","530621","0.0-1.0-570.0","0","0","92265","","null","","","null","63","NaN","","","","","","","","","","","","","","",""
"","S2","","html-keyboard-response","415","530777","0.0-1.0-571.0","0","0","92265","","null","","","null","63","","NaN","","","","","","","","","","","","","",""
"","response","","html-keyboard-response","416","531274","0.0-1.0-572.0-0.0","0","0","92265","","492","","","68","63","","","2","63","training","adjacent","ED","5","4","Q.jpg","L.jpg","0","0","1","",""
"","feedback","","html-keyboard-response","417","532283","0.0-1.0-573.0-0.0","0","0","92265","","null","","","null","63","","","","","","","","","","","","","","","",""
"","ITI","","html-keyboard-response","418","533292","0.0-1.0-576.0","0","0","92265","","null","","","null","63","","","","","","","","","","","","","","","NaN",""
"","S1","","html-keyboard-response","419","533448","0.0-1.0-578.0","0","0","92265","","null","","","null","64","","","","","","","","","","","","","","","",""
"","ISI","","html-keyboard-response","420","535456","0.0-1.0-579.0","0","0","92265","","null","","","null","64","NaN","","","","","","","","","","","","","","",""
"","S2","","html-keyboard-response","421","535615","0.0-1.0-580.0","0","0","92265","","null","","","null","64","","NaN","","","","","","","","","","","","","",""
"","response","","html-keyboard-response","422","536111","0.0-1.0-581.0-0.0","0","0","92265","","491","","","75","64","","","2","64","training","adjacent","AB","1","2","R.jpg","O.jpg","1","1","1","",""
"","feedback","","html-keyboard-response","423","537116","0.0-1.0-582.0-0.0","0","0","92265","","null","","","null","64","","","","","","","","","","","","","","","",""
"","ITI","","html-keyboard-response","424","538127","0.0-1.0-585.0","0","0","92265","","null","","","null","64","","","","","","","","","","","","","","","NaN",""
"","S1","","html-keyboard-response","425","538282","0.0-1.0-587.0","0","0","92265","","null","","","null","65","","","","","","","","","","","","","","","",""
"","ISI","","html-keyboard-response","426","540292","0.0-1.0-588.0","0","0","92265","","null","","","null","65","NaN","","","","","","","","","","","","","","",""
"","S2","","html-keyboard-response","427","540448","0.0-1.0-589.0","0","0","92265","","null","","","null","65","","NaN","","","","","","","","","","","","","",""
"","response","","html-keyboard-response","428","540881","0.0-1.0-590.0-0.0","0","0","92265","","429","","","75","65","","","2","65","training","adjacent","FE","6","5","P.jpg","Q.jpg","1","0","0","",""
"","feedback","","html-keyboard-response","429","541888","0.0-1.0-591.0-0.0","0","0","92265","","null","","","null","65","","","","","","","","","","","","","","","",""
"","time_out","","html-keyboard-response","430","543897","0.0-1.0-593.0-0.0","0","0","92265","","null","","","null","65","","","","","","","","","","","","","","","",""
"","ITI","","html-keyboard-response","431","544903","0.0-1.0-594.0","0","0","92265","","null","","","null","65","","","","","","","","","","","","","","","NaN",""
"","S1","","html-keyboard-response","432","545061","0.0-1.0-596.0","0","0","92265","","null","","","null","66","","","","","","","","","","","","","","","",""
"","ISI","","html-keyboard-response","433","547067","0.0-1.0-597.0","0","0","92265","","null","","","null","66","NaN","","","","","","","","","","","","","","",""
"","S2","","html-keyboard-response","434","547226","0.0-1.0-598.0","0","0","92265","","null","","","null","66","","NaN","","","","","","","","","","","","","",""
"","response","","html-keyboard-response","435","548081","0.0-1.0-599.0-0.0","0","0","92265","","850","","","68","66","","","2","66","training","adjacent","DE","4","5","L.jpg","Q.jpg","0","1","0","",""
"","feedback","","html-keyboard-response","436","549088","0.0-1.0-600.0-0.0","0","0","92265","","null","","","null","66","","","","","","","","","","","","","","","",""
"","time_out","","html-keyboard-response","437","551094","0.0-1.0-602.0-0.0","0","0","92265","","null","","","null","66","","","","","","","","","","","","","","","",""
"","ITI","","html-keyboard-response","438","552105","0.0-1.0-603.0","0","0","92265","","null","","","null","66","","","","","","","","","","","","","","","NaN",""
"","S1","","html-keyboard-response","439","552261","0.0-1.0-605.0","0","0","92265","","null","","","null","67","","","","","","","","","","","","","","","",""
"","ISI","","html-keyboard-response","440","554271","0.0-1.0-606.0","0","0","92265","","null","","","null","67","NaN","","","","","","","","","","","","","","",""
"","S2","","html-keyboard-response","441","554432","0.0-1.0-607.0","0","0","92265","","null","","","null","67","","NaN","","","","","","","","","","","","","",""
"","response","","html-keyboard-response","442","554921","0.0-1.0-608.0-0.0","0","0","92265","","484","","","75","67","","","2","67","training","adjacent","ED","5","4","Q.jpg","L.jpg","1","0","0","",""
"","feedback","","html-keyboard-response","443","555931","0.0-1.0-609.0-0.0","0","0","92265","","null","","","null","67","","","","","","","","","","","","","","","",""
"","time_out","","html-keyboard-response","444","557939","0.0-1.0-611.0-0.0","0","0","92265","","null","","","null","67","","","","","","","","","","","","","","","",""
"","ITI","","html-keyboard-response","445","558949","0.0-1.0-612.0","0","0","92265","","null","","","null","67","","","","","","","","","","","","","","","NaN",""
"","S1","","html-keyboard-response","446","559108","0.0-1.0-614.0","0","0","92265","","null","","","null","68","","","","","","","","","","","","","","","",""
"","ISI","","html-keyboard-response","447","561115","0.0-1.0-615.0","0","0","92265","","null","","","null","68","NaN","","","","","","","","","","","","","","",""
"","S2","","html-keyboard-response","448","561271","0.0-1.0-616.0","0","0","92265","","null","","","null","68","","NaN","","","","","","","","","","","","","",""
"","response","","html-keyboard-response","449","563129","0.0-1.0-617.0-0.0","0","0","92265","","null","","","null","68","","","2","68","training","adjacent","DE","4","5","L.jpg","Q.jpg","NaN","1","0","",""
"","too_slow_prompt","","html-keyboard-response","450","564139","0.0-1.0-619.0-0.0","1","0","92265","","null","","","null","","","","","","","","","","","","","","","","",""
"","time_out","","html-keyboard-response","451","566147","0.0-1.0-620.0-0.0","0","0","92265","","null","","","null","68","","","","","","","","","","","","","","","",""
"","ITI","","html-keyboard-response","452","567155","0.0-1.0-621.0","0","0","92265","","null","","","null","68","","","","","","","","","","","","","","","NaN",""
"","S1","","html-keyboard-response","453","567311","0.0-1.0-623.0","0","0","92265","","null","","","null","69","","","","","","","","","","","","","","","",""
"","ISI","","html-keyboard-response","454","569317","0.0-1.0-624.0","0","0","92265","","null","","","null","69","NaN","","","","","","","","","","","","","","",""
"","S2","","html-keyboard-response","455","569474","0.0-1.0-625.0","0","0","92265","","null","","","null","69","","NaN","","","","","","","","","","","","","",""
"","response","","html-keyboard-response","456","570129","0.0-1.0-626.0-0.0","0","0","92265","","651","","","75","69","","","2","69","training","adjacent","FE","6","5","P.jpg","Q.jpg","1","0","0","",""
"","feedback","","html-keyboard-response","457","571140","0.0-1.0-627.0-0.0","0","0","92265","","null","","","null","69","","","","","","","","","","","","","","","",""
"","time_out","","html-keyboard-response","458","573148","0.0-1.0-629.0-0.0","0","0","92265","","null","","","null","69","","","","","","","","","","","","","","","",""
"","ITI","","html-keyboard-response","459","574155","0.0-1.0-630.0","0","0","92265","","null","","","null","69","","","","","","","","","","","","","","","NaN",""
"","S1","","html-keyboard-response","460","574315","0.0-1.0-632.0","0","0","92265","","null","","","null","70","","","","","","","","","","","","","","","",""
"","ISI","","html-keyboard-response","461","576325","0.0-1.0-633.0","0","0","92265","","null","","","null","70","NaN","","","","","","","","","","","","","","",""
"","S2","","html-keyboard-response","462","576483","0.0-1.0-634.0","0","0","92265","","null","","","null","70","","NaN","","","","","","","","","","","","","",""
"","response","","html-keyboard-response","463","577243","0.0-1.0-635.0-0.0","0","0","92265","","755","","","75","70","","","2","70","training","adjacent","BC","2","3","O.jpg","N.jpg","1","1","1","",""
"","feedback","","html-keyboard-response","464","578251","0.0-1.0-636.0-0.0","0","0","92265","","null","","","null","70","","","","","","","","","","","","","","","",""
"","ITI","","html-keyboard-response","465","579262","0.0-1.0-639.0","0","0","92265","","null","","","null","70","","","","","","","","","","","","","","","NaN",""
"","S1","","html-keyboard-response","466","579418","0.0-1.0-641.0","0","0","92265","","null","","","null","71","","","","","","","","","","","","","","","",""
"","ISI","","html-keyboard-response","467","581427","0.0-1.0-642.0","0","0","92265","","null","","","null","71","NaN","","","","","","","","","","","","","","",""
"","S2","","html-keyboard-response","468","581583","0.0-1.0-643.0","0","0","92265","","null","","","null","71","","NaN","","","","","","","","","","","","","",""
"","response","","html-keyboard-response","469","583036","0.0-1.0-644.0-0.0","0","0","92265","","1448","","","75","71","","","2","71","training","adjacent","CD","3","4","N.jpg","L.jpg","1","1","1","",""
"","feedback","","html-keyboard-response","470","584044","0.0-1.0-645.0-0.0","0","0","92265","","null","","","null","71","","","","","","","","","","","","","","","",""
"","ITI","","html-keyboard-response","471","585055","0.0-1.0-648.0","0","0","92265","","null","","","null","71","","","","","","","","","","","","","","","NaN",""
"","S1","","html-keyboard-response","472","585211","0.0-1.0-650.0","0","0","92265","","null","","","null","72","","","","","","","","","","","","","","","",""
"","ISI","","html-keyboard-response","473","587219","0.0-1.0-651.0","0","0","92265","","null","","","null","72","NaN","","","","","","","","","","","","","","",""
"","S2","","html-keyboard-response","474","587378","0.0-1.0-652.0","0","0","92265","","null","","","null","72","","NaN","","","","","","","","","","","","","",""
"","response","","html-keyboard-response","475","588019","0.0-1.0-653.0-0.0","0","0","92265","","636","","","68","72","","","2","72","training","adjacent","BA","2","1","O.jpg","R.jpg","0","0","1","",""
"","feedback","","html-keyboard-response","476","589027","0.0-1.0-654.0-0.0","0","0","92265","","null","","","null","72","","","","","","","","","","","","","","","",""
"","ITI","","html-keyboard-response","477","590035","0.0-1.0-657.0","0","0","92265","","null","","","null","72","","","","","","","","","","","","","","","NaN",""
"","S1","","html-keyboard-response","478","590193","0.0-1.0-659.0","0","0","92265","","null","","","null","73","","","","","","","","","","","","","","","",""
"","ISI","","html-keyboard-response","479","592199","0.0-1.0-660.0","0","0","92265","","null","","","null","73","NaN","","","","","","","","","","","","","","",""
"","S2","","html-keyboard-response","480","592357","0.0-1.0-661.0","0","0","92265","","null","","","null","73","","NaN","","","","","","","","","","","","","",""
"","response","","html-keyboard-response","481","593103","0.0-1.0-662.0-0.0","0","0","92265","","742","","","75","73","","","2","73","training","adjacent","CB","3","2","N.jpg","O.jpg","1","0","0","",""
"","feedback","","html-keyboard-response","482","594110","0.0-1.0-663.0-0.0","0","0","92265","","null","","","null","73","","","","","","","","","","","","","","","",""
"","time_out","","html-keyboard-response","483","596118","0.0-1.0-665.0-0.0","0","0","92265","","null","","","null","73","","","","","","","","","","","","","","","",""
"","ITI","","html-keyboard-response","484","597125","0.0-1.0-666.0","0","0","92265","","null","","","null","73","","","","","","","","","","","","","","","NaN",""
"","S1","","html-keyboard-response","485","597284","0.0-1.0-668.0","0","0","92265","","null","","","null","74","","","","","","","","","","","","","","","",""
"","ISI","","html-keyboard-response","486","599290","0.0-1.0-669.0","0","0","92265","","null","","","null","74","NaN","","","","","","","","","","","","","","",""
"","S2","","html-keyboard-response","487","599445","0.0-1.0-670.0","0","0","92265","","null","","","null","74","","NaN","","","","","","","","","","","","","",""
"","response","","html-keyboard-response","488","600484","0.0-1.0-671.0-0.0","0","0","92265","","1036","","","68","74","","","2","74","training","adjacent","FE","6","5","P.jpg","Q.jpg","0","0","1","",""
"","feedback","","html-keyboard-response","489","601494","0.0-1.0-672.0-0.0","0","0","92265","","null","","","null","74","","","","","","","","","","","","","","","",""
"","ITI","","html-keyboard-response","490","602503","0.0-1.0-675.0","0","0","92265","","null","","","null","74","","","","","","","","","","","","","","","NaN",""
"","S1","","html-keyboard-response","491","602662","0.0-1.0-677.0","0","0","92265","","null","","","null","75","","","","","","","","","","","","","","","",""
"","ISI","","html-keyboard-response","492","604671","0.0-1.0-678.0","0","0","92265","","null","","","null","75","NaN","","","","","","","","","","","","","","",""
"","S2","","html-keyboard-response","493","604828","0.0-1.0-679.0","0","0","92265","","null","","","null","75","","NaN","","","","","","","","","","","","","",""
"","response","","html-keyboard-response","494","605300","0.0-1.0-680.0-0.0","0","0","92265","","467","","","68","75","","","2","75","training","adjacent","GF","7","6","M.jpg","P.jpg","0","0","1","",""
"","feedback","","html-keyboard-response","495","606307","0.0-1.0-681.0-0.0","0","0","92265","","null","","","null","75","","","","","","","","","","","","","","","",""
"","ITI","","html-keyboard-response","496","607317","0.0-1.0-684.0","0","0","92265","","null","","","null","75","","","","","","","","","","","","","","","NaN",""
"","S1","","html-keyboard-response","497","607470","0.0-1.0-686.0","0","0","92265","","null","","","null","76","","","","","","","","","","","","","","","",""
"","ISI","","html-keyboard-response","498","609476","0.0-1.0-687.0","0","0","92265","","null","","","null","76","NaN","","","","","","","","","","","","","","",""
"","S2","","html-keyboard-response","499","609633","0.0-1.0-688.0","0","0","92265","","null","","","null","76","","NaN","","","","","","","","","","","","","",""
"","response","","html-keyboard-response","500","610452","0.0-1.0-689.0-0.0","0","0","92265","","814","","","75","76","","","2","76","training","adjacent","DC","4","3","L.jpg","N.jpg","1","0","0","",""
"","feedback","","html-keyboard-response","501","611461","0.0-1.0-690.0-0.0","0","0","92265","","null","","","null","76","","","","","","","","","","","","","","","",""
"","time_out","","html-keyboard-response","502","613470","0.0-1.0-692.0-0.0","0","0","92265","","null","","","null","76","","","","","","","","","","","","","","","",""
"","ITI","","html-keyboard-response","503","614480","0.0-1.0-693.0","0","0","92265","","null","","","null","76","","","","","","","","","","","","","","","NaN",""
"","S1","","html-keyboard-response","504","614637","0.0-1.0-695.0","0","0","92265","","null","","","null","77","","","","","","","","","","","","","","","",""
"","ISI","","html-keyboard-response","505","616647","0.0-1.0-696.0","0","0","92265","","null","","","null","77","NaN","","","","","","","","","","","","","","",""
"","S2","","html-keyboard-response","506","616801","0.0-1.0-697.0","0","0","92265","","null","","","null","77","","NaN","","","","","","","","","","","","","",""
"","response","","html-keyboard-response","507","617763","0.0-1.0-698.0-0.0","0","0","92265","","958","","","68","77","","","2","77","training","adjacent","EF","5","6","Q.jpg","P.jpg","0","1","0","",""
"","feedback","","html-keyboard-response","508","618772","0.0-1.0-699.0-0.0","0","0","92265","","null","","","null","77","","","","","","","","","","","","","","","",""
"","time_out","","html-keyboard-response","509","620778","0.0-1.0-701.0-0.0","0","0","92265","","null","","","null","77","","","","","","","","","","","","","","","",""
"","ITI","","html-keyboard-response","510","621785","0.0-1.0-702.0","0","0","92265","","null","","","null","77","","","","","","","","","","","","","","","NaN",""
"","S1","","html-keyboard-response","511","621945","0.0-1.0-704.0","0","0","92265","","null","","","null","78","","","","","","","","","","","","","","","",""
"","ISI","","html-keyboard-response","512","623954","0.0-1.0-705.0","0","0","92265","","null","","","null","78","NaN","","","","","","","","","","","","","","",""
"","S2","","html-keyboard-response","513","624110","0.0-1.0-706.0","0","0","92265","","null","","","null","78","","NaN","","","","","","","","","","","","","",""
"","response","","html-keyboard-response","514","624649","0.0-1.0-707.0-0.0","0","0","92265","","534","","","75","78","","","2","78","training","adjacent","CB","3","2","N.jpg","O.jpg","1","0","0","",""
"","feedback","","html-keyboard-response","515","625655","0.0-1.0-708.0-0.0","0","0","92265","","null","","","null","78","","","","","","","","","","","","","","","",""
"","time_out","","html-keyboard-response","516","627664","0.0-1.0-710.0-0.0","0","0","92265","","null","","","null","78","","","","","","","","","","","","","","","",""
"","ITI","","html-keyboard-response","517","628673","0.0-1.0-711.0","0","0","92265","","null","","","null","78","","","","","","","","","","","","","","","NaN",""
"","S1","","html-keyboard-response","518","628830","0.0-1.0-713.0","0","0","92265","","null","","","null","79","","","","","","","","","","","","","","","",""
"","ISI","","html-keyboard-response","519","630838","0.0-1.0-714.0","0","0","92265","","null","","","null","79","NaN","","","","","","","","","","","","","","",""
"","S2","","html-keyboard-response","520","630996","0.0-1.0-715.0","0","0","92265","","null","","","null","79","","NaN","","","","","","","","","","","","","",""
"","response","","html-keyboard-response","521","631533","0.0-1.0-716.0-0.0","0","0","92265","","532","","","68","79","","","2","79","training","adjacent","BA","2","1","O.jpg","R.jpg","0","0","1","",""
"","feedback","","html-keyboard-response","522","632543","0.0-1.0-717.0-0.0","0","0","92265","","null","","","null","79","","","","","","","","","","","","","","","",""
"","ITI","","html-keyboard-response","523","633549","0.0-1.0-720.0","0","0","92265","","null","","","null","79","","","","","","","","","","","","","","","NaN",""
"","S1","","html-keyboard-response","524","633706","0.0-1.0-722.0","0","0","92265","","null","","","null","80","","","","","","","","","","","","","","","",""
"","ISI","","html-keyboard-response","525","635715","0.0-1.0-723.0","0","0","92265","","null","","","null","80","NaN","","","","","","","","","","","","","","",""
"","S2","","html-keyboard-response","526","635872","0.0-1.0-724.0","0","0","92265","","null","","","null","80","","NaN","","","","","","","","","","","","","",""
"","response","","html-keyboard-response","527","636236","0.0-1.0-725.0-0.0","0","0","92265","","359","","","68","80","","","2","80","training","adjacent","BA","2","1","O.jpg","R.jpg","0","0","1","",""
"","feedback","","html-keyboard-response","528","637243","0.0-1.0-726.0-0.0","0","0","92265","","null","","","null","80","","","","","","","","","","","","","","","",""
"","ITI","","html-keyboard-response","529","638251","0.0-1.0-729.0","0","0","92265","","null","","","null","80","","","","","","","","","","","","","","","NaN",""
"","S1","","html-keyboard-response","530","638408","0.0-1.0-731.0","0","0","92265","","null","","","null","81","","","","","","","","","","","","","","","",""
"","ISI","","html-keyboard-response","531","640417","0.0-1.0-732.0","0","0","92265","","null","","","null","81","NaN","","","","","","","","","","","","","","",""
"","S2","","html-keyboard-response","532","640575","0.0-1.0-733.0","0","0","92265","","null","","","null","81","","NaN","","","","","","","","","","","","","",""
"","response","","html-keyboard-response","533","641152","0.0-1.0-734.0-0.0","0","0","92265","","572","","","75","81","","","2","81","training","adjacent","AB","1","2","R.jpg","O.jpg","1","1","1","",""
"","feedback","","html-keyboard-response","534","642158","0.0-1.0-735.0-0.0","0","0","92265","","null","","","null","81","","","","","","","","","","","","","","","",""
"","ITI","","html-keyboard-response","535","643168","0.0-1.0-738.0","0","0","92265","","null","","","null","81","","","","","","","","","","","","","","","NaN",""
"","S1","","html-keyboard-response","536","643325","0.0-1.0-740.0","0","0","92265","","null","","","null","82","","","","","","","","","","","","","","","",""
"","ISI","","html-keyboard-response","537","645334","0.0-1.0-741.0","0","0","92265","","null","","","null","82","NaN","","","","","","","","","","","","","","",""
"","S2","","html-keyboard-response","538","645492","0.0-1.0-742.0","0","0","92265","","null","","","null","82","","NaN","","","","","","","","","","","","","",""
"","response","","html-keyboard-response","539","646001","0.0-1.0-743.0-0.0","0","0","92265","","506","","","75","82","","","2","82","training","adjacent","CB","3","2","N.jpg","O.jpg","1","0","0","",""
"","feedback","","html-keyboard-response","540","647011","0.0-1.0-744.0-0.0","0","0","92265","","null","","","null","82","","","","","","","","","","","","","","","",""
"","time_out","","html-keyboard-response","541","649020","0.0-1.0-746.0-0.0","0","0","92265","","null","","","null","82","","","","","","","","","","","","","","","",""
"","ITI","","html-keyboard-response","542","650030","0.0-1.0-747.0","0","0","92265","","null","","","null","82","","","","","","","","","","","","","","","NaN",""
"","S1","","html-keyboard-response","543","650187","0.0-1.0-749.0","0","0","92265","","null","","","null","83","","","","","","","","","","","","","","","",""
"","ISI","","html-keyboard-response","544","652195","0.0-1.0-750.0","0","0","92265","","null","","","null","83","NaN","","","","","","","","","","","","","","",""
"","S2","","html-keyboard-response","545","652352","0.0-1.0-751.0","0","0","92265","","null","","","null","83","","NaN","","","","","","","","","","","","","",""
"","response","","html-keyboard-response","546","652864","0.0-1.0-752.0-0.0","0","0","92265","","508","","","75","83","","","2","83","training","adjacent","FG","6","7","P.jpg","M.jpg","1","1","1","",""
"","feedback","","html-keyboard-response","547","653872","0.0-1.0-753.0-0.0","0","0","92265","","null","","","null","83","","","","","","","","","","","","","","","",""
"","ITI","","html-keyboard-response","548","654878","0.0-1.0-756.0","0","0","92265","","null","","","null","83","","","","","","","","","","","","","","","NaN",""
"","S1","","html-keyboard-response","549","655036","0.0-1.0-758.0","0","0","92265","","null","","","null","84","","","","","","","","","","","","","","","",""
"","ISI","","html-keyboard-response","550","657045","0.0-1.0-759.0","0","0","92265","","null","","","null","84","NaN","","","","","","","","","","","","","","",""
"","S2","","html-keyboard-response","551","657205","0.0-1.0-760.0","0","0","92265","","null","","","null","84","","NaN","","","","","","","","","","","","","",""
"","response","","html-keyboard-response","552","657656","0.0-1.0-761.0-0.0","0","0","92265","","446","","","75","84","","","2","84","training","adjacent","FG","6","7","P.jpg","M.jpg","1","1","1","",""
"","feedback","","html-keyboard-response","553","658662","0.0-1.0-762.0-0.0","0","0","92265","","null","","","null","84","","","","","","","","","","","","","","","",""
"","ITI","","html-keyboard-response","554","659665","0.0-1.0-765.0","0","0","92265","","null","","","null","84","","","","","","","","","","","","","","","NaN",""
"","S1","","html-keyboard-response","555","659823","0.0-1.0-767.0","0","0","92265","","null","","","null","85","","","","","","","","","","","","","","","",""
"","ISI","","html-keyboard-response","556","661832","0.0-1.0-768.0","0","0","92265","","null","","","null","85","NaN","","","","","","","","","","","","","","",""
"","S2","","html-keyboard-response","557","661989","0.0-1.0-769.0","0","0","92265","","null","","","null","85","","NaN","","","","","","","","","","","","","",""
"","response","","html-keyboard-response","558","662473","0.0-1.0-770.0-0.0","0","0","92265","","480","","","68","85","","","2","85","training","adjacent","BC","2","3","O.jpg","N.jpg","0","1","0","",""
"","feedback","","html-keyboard-response","559","663483","0.0-1.0-771.0-0.0","0","0","92265","","null","","","null","85","","","","","","","","","","","","","","","",""
"","time_out","","html-keyboard-response","560","665489","0.0-1.0-773.0-0.0","0","0","92265","","null","","","null","85","","","","","","","","","","","","","","","",""
"","ITI","","html-keyboard-response","561","666494","0.0-1.0-774.0","0","0","92265","","null","","","null","85","","","","","","","","","","","","","","","NaN",""
"","S1","","html-keyboard-response","562","666652","0.0-1.0-776.0","0","0","92265","","null","","","null","86","","","","","","","","","","","","","","","",""
"","ISI","","html-keyboard-response","563","668661","0.0-1.0-777.0","0","0","92265","","null","","","null","86","NaN","","","","","","","","","","","","","","",""
"","S2","","html-keyboard-response","564","668821","0.0-1.0-778.0","0","0","92265","","null","","","null","86","","NaN","","","","","","","","","","","","","",""
"","response","","html-keyboard-response","565","669178","0.0-1.0-779.0-0.0","0","0","92265","","352","","","68","86","","","2","86","training","adjacent","GF","7","6","M.jpg","P.jpg","0","0","1","",""
"","feedback","","html-keyboard-response","566","670187","0.0-1.0-780.0-0.0","0","0","92265","","null","","","null","86","","","","","","","","","","","","","","","",""
"","ITI","","html-keyboard-response","567","671195","0.0-1.0-783.0","0","0","92265","","null","","","null","86","","","","","","","","","","","","","","","NaN",""
"","S1","","html-keyboard-response","568","671352","0.0-1.0-785.0","0","0","92265","","null","","","null","87","","","","","","","","","","","","","","","",""
"","ISI","","html-keyboard-response","569","673361","0.0-1.0-786.0","0","0","92265","","null","","","null","87","NaN","","","","","","","","","","","","","","",""
"","S2","","html-keyboard-response","570","673519","0.0-1.0-787.0","0","0","92265","","null","","","null","87","","NaN","","","","","","","","","","","","","",""
"","response","","html-keyboard-response","571","674441","0.0-1.0-788.0-0.0","0","0","92265","","917","","","68","87","","","2","87","training","adjacent","CB","3","2","N.jpg","O.jpg","0","0","1","",""
"","feedback","","html-keyboard-response","572","675451","0.0-1.0-789.0-0.0","0","0","92265","","null","","","null","87","","","","","","","","","","","","","","","",""
"","ITI","","html-keyboard-response","573","676460","0.0-1.0-792.0","0","0","92265","","null","","","null","87","","","","","","","","","","","","","","","NaN",""
"","S1","","html-keyboard-response","574","676617","0.0-1.0-794.0","0","0","92265","","null","","","null","88","","","","","","","","","","","","","","","",""
"","ISI","","html-keyboard-response","575","678625","0.0-1.0-795.0","0","0","92265","","null","","","null","88","NaN","","","","","","","","","","","","","","",""
"","S2","","html-keyboard-response","576","678782","0.0-1.0-796.0","0","0","92265","","null","","","null","88","","NaN","","","","","","","","","","","","","",""
"","response","","html-keyboard-response","577","679166","0.0-1.0-797.0-0.0","0","0","92265","","379","","","75","88","","","2","88","training","adjacent","AB","1","2","R.jpg","O.jpg","1","1","1","",""
"","feedback","","html-keyboard-response","578","680176","0.0-1.0-798.0-0.0","0","0","92265","","null","","","null","88","","","","","","","","","","","","","","","",""
"","ITI","","html-keyboard-response","579","681185","0.0-1.0-801.0","0","0","92265","","null","","","null","88","","","","","","","","","","","","","","","NaN",""
"","S1","","html-keyboard-response","580","681343","0.0-1.0-803.0","0","0","92265","","null","","","null","89","","","","","","","","","","","","","","","",""
