"success","ttype","start_time","trial_type","trial_index","time_elapsed","internal_node_id","warning","missed_checkup","PID","view_history","rt","responses","repeat_instructions","key_press","index","keypress_isi","keypress_S2","block","trial_num","phase","group_type","pair_type","S1_stim","S2_stim","S1_img","S2_img","S1_chosen","S1_higher","accuracy","keypress_iti","total_bonus_tally"
"true","full_screen","d03072023hr1814","fullscreen","0","10204","0.0-0.0","0","0","18045","","","","","","","","","","","","","","","","","","","","","",""
"","instructions","","instructions","1","110285","0.0-1.0-0.0-0.0","0","0","18045","[{""page_index"":0,""viewing_time"":10179},{""page_index"":1,""viewing_time"":71320},{""page_index"":2,""viewing_time"":11116},{""page_index"":1,""viewing_time"":4670},{""page_index"":2,""viewing_time"":782},{""page_index"":3,""viewing_time"":2010}]","100078","","","","","","","","","","","","","","","","","","","",""
"","comprehension_check","","survey-multi-choice","2","134199","0.0-1.0-0.0-1.0","0","0","18045","","23909","{""Q0"":""True"",""Q1"":""K"",""Q2"":""Only while the second image is shown"",""Q3"":""Green mark"",""Q4"":""either D or K""}","1","","","","","","","","","","","","","","","","","",""
"","missed_instruction_checkup","","html-keyboard-response","3","136450","0.0-1.0-0.0-2.0-0.0","0","1","18045","","2248","","","32","","","","","","","","","","","","","","","","",""
"","instructions","","instructions","4","146046","0.0-1.0-0.1-0.1","0","0","18045","[{""page_index"":0,""viewing_time"":2215},{""page_index"":1,""viewing_time"":5510},{""page_index"":2,""viewing_time"":1156},{""page_index"":3,""viewing_time"":712}]","9593","","","","","","","","","","","","","","","","","","","",""
"","comprehension_check","","survey-multi-choice","5","159778","0.0-1.0-0.1-1.1","0","0","18045","","13729","{""Q0"":""True"",""Q1"":""K"",""Q2"":""Only when the screen 'MAKE A CHOICE' is shown"",""Q3"":""Green mark"",""Q4"":""either D or K""}","1","","","","","","","","","","","","","","","","","",""
"","missed_instruction_checkup","","html-keyboard-response","6","161927","0.0-1.0-0.1-2.1-0.1","0","1","18045","","2146","","","32","","","","","","","","","","","","","","","","",""
"","instructions","","instructions","7","179573","0.0-1.0-0.2-0.2","0","0","18045","[{""page_index"":0,""viewing_time"":4660},{""page_index"":1,""viewing_time"":10350},{""page_index"":2,""viewing_time"":1887},{""page_index"":3,""viewing_time"":747}]","17644","","","","","","","","","","","","","","","","","","","",""
"","comprehension_check","","survey-multi-choice","8","187043","0.0-1.0-0.2-1.2","0","0","18045","","7467","{""Q0"":""True"",""Q1"":""K"",""Q2"":""Once the second image appears and while the screen 'MAKE A CHOICE' is shown"",""Q3"":""Green mark"",""Q4"":""either D or K""}","0","","","","","","","","","","","","","","","","","",""
"","start_exp","","html-keyboard-response","9","227800","0.0-1.0-1.0","0","0","18045","","40753","","","32","","","","","","","","","","","","","","","","",""
"","S1","","html-keyboard-response","10","228057","0.0-1.0-2.0","0","0","18045","","null","","","null","0","","","","","","","","","","","","","","","",""
"","ISI","","html-keyboard-response","11","229061","0.0-1.0-3.0","0","0","18045","","null","","","null","0","NaN","","","","","","","","","","","","","","",""
"","S2","","html-keyboard-response","12","229316","0.0-1.0-4.0","0","0","18045","","null","","","null","0","","NaN","","","","","","","","","","","","","",""
"","response","","html-keyboard-response","13","229572","0.0-1.0-5.0-0.0","0","0","18045","","253","","","75","0","","","1","0","training","adjacent","CD","3","4","R.jpg","N.jpg","1","1","1","",""
"","feedback","","html-keyboard-response","14","230578","0.0-1.0-6.0-0.0","0","0","18045","","null","","","null","0","","","","","","","","","","","","","","","",""
"","ITI","","html-keyboard-response","15","231582","0.0-1.0-9.0","0","0","18045","","null","","","null","0","","","","","","","","","","","","","","","NaN",""
"","S1","","html-keyboard-response","16","231837","0.0-1.0-11.0","0","0","18045","","null","","","null","1","","","","","","","","","","","","","","","",""
"","ISI","","html-keyboard-response","17","232839","0.0-1.0-12.0","0","0","18045","","529","","","68","1","d","","","","","","","","","","","","","","",""
"","S2","","html-keyboard-response","18","233093","0.0-1.0-13.0","0","0","18045","","null","","","null","1","","NaN","","","","","","","","","","","","","",""
"","response","","html-keyboard-response","19","233125","0.0-1.0-14.0-0.0","0","0","18045","","29","","","68","1","","","1","1","training","adjacent","BC","2","3","Q.jpg","R.jpg","0","1","0","",""
"","feedback","","html-keyboard-response","20","234129","0.0-1.0-15.0-0.0","0","0","18045","","null","","","null","1","","","","","","","","","","","","","","","",""
"","time_out","","html-keyboard-response","21","236136","0.0-1.0-17.0-0.0","0","0","18045","","null","","","null","1","","","","","","","","","","","","","","","",""
"","ITI","","html-keyboard-response","22","237140","0.0-1.0-18.0","0","0","18045","","879","","","75","1","","","","","","","","","","","","","","","k",""
"","S1","","html-keyboard-response","23","237398","0.0-1.0-20.0","0","0","18045","","null","","","null","2","","","","","","","","","","","","","","","",""
"","ISI","","html-keyboard-response","24","238402","0.0-1.0-21.0","0","0","18045","","null","","","null","2","NaN","","","","","","","","","","","","","","",""
"","S2","","html-keyboard-response","25","238579","0.0-1.0-22.0","0","0","18045","","174","","","75","2","","k","1","2","training","adjacent","CB","3","2","R.jpg","Q.jpg","1","0","0","",""
"","feedback","","html-keyboard-response","26","239584","0.0-1.0-24.0-0.0","0","0","18045","","null","","","null","2","","","","","","","","","","","","","","","",""
"","time_out","","html-keyboard-response","27","241587","0.0-1.0-26.0-0.0","0","0","18045","","null","","","null","2","","","","","","","","","","","","","","","",""
"","ITI","","html-keyboard-response","28","242590","0.0-1.0-27.0","0","0","18045","","782","","","68","2","","","","","","","","","","","","","","","d",""
"","S1","","html-keyboard-response","29","242855","0.0-1.0-29.0","0","0","18045","","null","","","null","3","","","","","","","","","","","","","","","",""
"","ISI","","html-keyboard-response","30","243859","0.0-1.0-30.0","0","0","18045","","null","","","null","3","NaN","","","","","","","","","","","","","","",""
"","S2","","html-keyboard-response","31","244112","0.0-1.0-31.0","0","0","18045","","null","","","null","3","","NaN","","","","","","","","","","","","","",""
"","response","","html-keyboard-response","32","244388","0.0-1.0-32.0-0.0","0","0","18045","","272","","","68","3","","","1","3","training","adjacent","BA","2","1","Q.jpg","P.jpg","0","0","1","",""
"","feedback","","html-keyboard-response","33","245392","0.0-1.0-33.0-0.0","0","0","18045","","null","","","null","3","","","","","","","","","","","","","","","",""
"","ITI","","html-keyboard-response","34","246396","0.0-1.0-36.0","0","0","18045","","null","","","null","3","","","","","","","","","","","","","","","NaN",""
"","S1","","html-keyboard-response","35","246651","0.0-1.0-38.0","0","0","18045","","null","","","null","4","","","","","","","","","","","","","","","",""
"","ISI","","html-keyboard-response","36","247654","0.0-1.0-39.0","0","0","18045","","null","","","null","4","NaN","","","","","","","","","","","","","","",""
"","S2","","html-keyboard-response","37","247909","0.0-1.0-40.0","0","0","18045","","null","","","null","4","","NaN","","","","","","","","","","","","","",""
"","response","","html-keyboard-response","38","248183","0.0-1.0-41.0-0.0","0","0","18045","","271","","","68","4","","","1","4","training","adjacent","ED","5","4","M.jpg","N.jpg","0","0","1","",""
"","feedback","","html-keyboard-response","39","249188","0.0-1.0-42.0-0.0","0","0","18045","","null","","","null","4","","","","","","","","","","","","","","","",""
"","ITI","","html-keyboard-response","40","250192","0.0-1.0-45.0","0","0","18045","","null","","","null","4","","","","","","","","","","","","","","","NaN",""
"","S1","","html-keyboard-response","41","250446","0.0-1.0-47.0","0","0","18045","","null","","","null","5","","","","","","","","","","","","","","","",""
"","ISI","","html-keyboard-response","42","251449","0.0-1.0-48.0","0","0","18045","","null","","","null","5","NaN","","","","","","","","","","","","","","",""
"","S2","","html-keyboard-response","43","251704","0.0-1.0-49.0","0","0","18045","","null","","","null","5","","NaN","","","","","","","","","","","","","",""
"","response","","html-keyboard-response","44","252088","0.0-1.0-50.0-0.0","0","0","18045","","380","","","68","5","","","1","5","training","adjacent","ED","5","4","M.jpg","N.jpg","0","0","1","",""
"","feedback","","html-keyboard-response","45","253092","0.0-1.0-51.0-0.0","0","0","18045","","null","","","null","5","","","","","","","","","","","","","","","",""
"","ITI","","html-keyboard-response","46","254095","0.0-1.0-54.0","0","0","18045","","null","","","null","5","","","","","","","","","","","","","","","NaN",""
"","S1","","html-keyboard-response","47","254349","0.0-1.0-56.0","0","0","18045","","null","","","null","6","","","","","","","","","","","","","","","",""
"","ISI","","html-keyboard-response","48","255352","0.0-1.0-57.0","0","0","18045","","null","","","null","6","NaN","","","","","","","","","","","","","","",""
"","S2","","html-keyboard-response","49","255607","0.0-1.0-58.0","0","0","18045","","null","","","null","6","","NaN","","","","","","","","","","","","","",""
"","response","","html-keyboard-response","50","256015","0.0-1.0-59.0-0.0","0","0","18045","","405","","","75","6","","","1","6","training","adjacent","FG","6","7","O.jpg","L.jpg","1","1","1","",""
"","feedback","","html-keyboard-response","51","257020","0.0-1.0-60.0-0.0","0","0","18045","","null","","","null","6","","","","","","","","","","","","","","","",""
"","ITI","","html-keyboard-response","52","258023","0.0-1.0-63.0","0","0","18045","","null","","","null","6","","","","","","","","","","","","","","","NaN",""
"","S1","","html-keyboard-response","53","258278","0.0-1.0-65.0","0","0","18045","","null","","","null","7","","","","","","","","","","","","","","","",""
"","ISI","","html-keyboard-response","54","259289","0.0-1.0-66.0","0","0","18045","","null","","","null","7","NaN","","","","","","","","","","","","","","",""
"","S2","","html-keyboard-response","55","259544","0.0-1.0-67.0","0","0","18045","","null","","","null","7","","NaN","","","","","","","","","","","","","",""
"","response","","html-keyboard-response","56","260186","0.0-1.0-68.0-0.0","0","0","18045","","638","","","75","7","","","1","7","training","adjacent","DC","4","3","N.jpg","R.jpg","1","0","0","",""
"","feedback","","html-keyboard-response","57","261190","0.0-1.0-69.0-0.0","0","0","18045","","null","","","null","7","","","","","","","","","","","","","","","",""
"","time_out","","html-keyboard-response","58","263193","0.0-1.0-71.0-0.0","0","0","18045","","null","","","null","7","","","","","","","","","","","","","","","",""
"","ITI","","html-keyboard-response","59","264197","0.0-1.0-72.0","0","0","18045","","null","","","null","7","","","","","","","","","","","","","","","NaN",""
"","S1","","html-keyboard-response","60","264451","0.0-1.0-74.0","0","0","18045","","null","","","null","8","","","","","","","","","","","","","","","",""
"","ISI","","html-keyboard-response","61","265455","0.0-1.0-75.0","0","0","18045","","null","","","null","8","NaN","","","","","","","","","","","","","","",""
"","S2","","html-keyboard-response","62","265710","0.0-1.0-76.0","0","0","18045","","null","","","null","8","","NaN","","","","","","","","","","","","","",""
"","response","","html-keyboard-response","63","266343","0.0-1.0-77.0-0.0","0","0","18045","","630","","","68","8","","","1","8","training","adjacent","EF","5","6","M.jpg","O.jpg","0","1","0","",""
"","feedback","","html-keyboard-response","64","267348","0.0-1.0-78.0-0.0","0","0","18045","","null","","","null","8","","","","","","","","","","","","","","","",""
"","time_out","","html-keyboard-response","65","269351","0.0-1.0-80.0-0.0","0","0","18045","","null","","","null","8","","","","","","","","","","","","","","","",""
"","ITI","","html-keyboard-response","66","270354","0.0-1.0-81.0","0","0","18045","","null","","","null","8","","","","","","","","","","","","","","","NaN",""
"","S1","","html-keyboard-response","67","270609","0.0-1.0-83.0","0","0","18045","","null","","","null","9","","","","","","","","","","","","","","","",""
"","ISI","","html-keyboard-response","68","271612","0.0-1.0-84.0","0","0","18045","","null","","","null","9","NaN","","","","","","","","","","","","","","",""
"","S2","","html-keyboard-response","69","271866","0.0-1.0-85.0","0","0","18045","","null","","","null","9","","NaN","","","","","","","","","","","","","",""
"","response","","html-keyboard-response","70","272280","0.0-1.0-86.0-0.0","0","0","18045","","410","","","75","9","","","1","9","training","adjacent","CD","3","4","R.jpg","N.jpg","1","1","1","",""
"","feedback","","html-keyboard-response","71","273298","0.0-1.0-87.0-0.0","0","0","18045","","null","","","null","9","","","","","","","","","","","","","","","",""
"","ITI","","html-keyboard-response","72","274301","0.0-1.0-90.0","0","0","18045","","null","","","null","9","","","","","","","","","","","","","","","NaN",""
"","S1","","html-keyboard-response","73","274555","0.0-1.0-92.0","0","0","18045","","null","","","null","10","","","","","","","","","","","","","","","",""
"","ISI","","html-keyboard-response","74","275567","0.0-1.0-93.0","0","0","18045","","null","","","null","10","NaN","","","","","","","","","","","","","","",""
"","S2","","html-keyboard-response","75","275821","0.0-1.0-94.0","0","0","18045","","null","","","null","10","","NaN","","","","","","","","","","","","","",""
"","response","","html-keyboard-response","76","276177","0.0-1.0-95.0-0.0","0","0","18045","","352","","","75","10","","","1","10","training","adjacent","EF","5","6","M.jpg","O.jpg","1","1","1","",""
"","feedback","","html-keyboard-response","77","277181","0.0-1.0-96.0-0.0","0","0","18045","","null","","","null","10","","","","","","","","","","","","","","","",""
"","ITI","","html-keyboard-response","78","278185","0.0-1.0-99.0","0","0","18045","","null","","","null","10","","","","","","","","","","","","","","","NaN",""
"","S1","","html-keyboard-response","79","278439","0.0-1.0-101.0","0","0","18045","","null","","","null","11","","","","","","","","","","","","","","","",""
"","ISI","","html-keyboard-response","80","279443","0.0-1.0-102.0","0","0","18045","","null","","","null","11","NaN","","","","","","","","","","","","","","",""
"","S2","","html-keyboard-response","81","279698","0.0-1.0-103.0","0","0","18045","","null","","","null","11","","NaN","","","","","","","","","","","","","",""
"","response","","html-keyboard-response","82","279993","0.0-1.0-104.0-0.0","0","0","18045","","292","","","68","11","","","1","11","training","adjacent","DE","4","5","N.jpg","M.jpg","0","1","0","",""
"","feedback","","html-keyboard-response","83","281000","0.0-1.0-105.0-0.0","0","0","18045","","null","","","null","11","","","","","","","","","","","","","","","",""
"","time_out","","html-keyboard-response","84","283003","0.0-1.0-107.0-0.0","0","0","18045","","null","","","null","11","","","","","","","","","","","","","","","",""
"","ITI","","html-keyboard-response","85","284007","0.0-1.0-108.0","0","0","18045","","null","","","null","11","","","","","","","","","","","","","","","NaN",""
"","S1","","html-keyboard-response","86","284262","0.0-1.0-110.0","0","0","18045","","null","","","null","12","","","","","","","","","","","","","","","",""
"","ISI","","html-keyboard-response","87","285265","0.0-1.0-111.0","0","0","18045","","null","","","null","12","NaN","","","","","","","","","","","","","","",""
"","S2","","html-keyboard-response","88","285519","0.0-1.0-112.0","0","0","18045","","null","","","null","12","","NaN","","","","","","","","","","","","","",""
"","response","","html-keyboard-response","89","285812","0.0-1.0-113.0-0.0","0","0","18045","","289","","","75","12","","","1","12","training","adjacent","FE","6","5","O.jpg","M.jpg","1","0","0","",""
"","feedback","","html-keyboard-response","90","286824","0.0-1.0-114.0-0.0","0","0","18045","","null","","","null","12","","","","","","","","","","","","","","","",""
"","time_out","","html-keyboard-response","91","288828","0.0-1.0-116.0-0.0","0","0","18045","","null","","","null","12","","","","","","","","","","","","","","","",""
"","ITI","","html-keyboard-response","92","289832","0.0-1.0-117.0","0","0","18045","","null","","","null","12","","","","","","","","","","","","","","","NaN",""
"","S1","","html-keyboard-response","93","290090","0.0-1.0-119.0","0","0","18045","","null","","","null","13","","","","","","","","","","","","","","","",""
"","ISI","","html-keyboard-response","94","291094","0.0-1.0-120.0","0","0","18045","","null","","","null","13","NaN","","","","","","","","","","","","","","",""
"","S2","","html-keyboard-response","95","291349","0.0-1.0-121.0","0","0","18045","","null","","","null","13","","NaN","","","","","","","","","","","","","",""
"","response","","html-keyboard-response","96","291592","0.0-1.0-122.0-0.0","0","0","18045","","239","","","68","13","","","1","13","training","adjacent","EF","5","6","M.jpg","O.jpg","0","1","0","",""
"","feedback","","html-keyboard-response","97","292598","0.0-1.0-123.0-0.0","0","0","18045","","null","","","null","13","","","","","","","","","","","","","","","",""
"","time_out","","html-keyboard-response","98","294602","0.0-1.0-125.0-0.0","0","0","18045","","null","","","null","13","","","","","","","","","","","","","","","",""
"","ITI","","html-keyboard-response","99","295606","0.0-1.0-126.0","0","0","18045","","null","","","null","13","","","","","","","","","","","","","","","NaN",""
"","S1","","html-keyboard-response","100","295860","0.0-1.0-128.0","0","0","18045","","null","","","null","14","","","","","","","","","","","","","","","",""
"","ISI","","html-keyboard-response","101","296864","0.0-1.0-129.0","0","0","18045","","null","","","null","14","NaN","","","","","","","","","","","","","","",""
"","S2","","html-keyboard-response","102","297118","0.0-1.0-130.0","0","0","18045","","null","","","null","14","","NaN","","","","","","","","","","","","","",""
"","response","","html-keyboard-response","103","297446","0.0-1.0-131.0-0.0","0","0","18045","","325","","","75","14","","","1","14","training","adjacent","EF","5","6","M.jpg","O.jpg","1","1","1","",""
"","feedback","","html-keyboard-response","104","298451","0.0-1.0-132.0-0.0","0","0","18045","","null","","","null","14","","","","","","","","","","","","","","","",""
"","ITI","","html-keyboard-response","105","299455","0.0-1.0-135.0","0","0","18045","","null","","","null","14","","","","","","","","","","","","","","","NaN",""
"","S1","","html-keyboard-response","106","299709","0.0-1.0-137.0","0","0","18045","","null","","","null","15","","","","","","","","","","","","","","","",""
"","ISI","","html-keyboard-response","107","300712","0.0-1.0-138.0","0","0","18045","","null","","","null","15","NaN","","","","","","","","","","","","","","",""
"","S2","","html-keyboard-response","108","300966","0.0-1.0-139.0","0","0","18045","","null","","","null","15","","NaN","","","","","","","","","","","","","",""
"","response","","html-keyboard-response","109","301344","0.0-1.0-140.0-0.0","0","0","18045","","375","","","75","15","","","1","15","training","adjacent","FG","6","7","O.jpg","L.jpg","1","1","1","",""
"","feedback","","html-keyboard-response","110","302348","0.0-1.0-141.0-0.0","0","0","18045","","null","","","null","15","","","","","","","","","","","","","","","",""
"","ITI","","html-keyboard-response","111","303352","0.0-1.0-144.0","0","0","18045","","null","","","null","15","","","","","","","","","","","","","","","NaN",""
"","S1","","html-keyboard-response","112","303606","0.0-1.0-146.0","0","0","18045","","null","","","null","16","","","","","","","","","","","","","","","",""
"","ISI","","html-keyboard-response","113","304610","0.0-1.0-147.0","0","0","18045","","null","","","null","16","NaN","","","","","","","","","","","","","","",""
"","S2","","html-keyboard-response","114","304864","0.0-1.0-148.0","0","0","18045","","null","","","null","16","","NaN","","","","","","","","","","","","","",""
"","response","","html-keyboard-response","115","305152","0.0-1.0-149.0-0.0","0","0","18045","","285","","","68","16","","","1","16","training","adjacent","GF","7","6","L.jpg","O.jpg","0","0","1","",""
"","feedback","","html-keyboard-response","116","306156","0.0-1.0-150.0-0.0","0","0","18045","","null","","","null","16","","","","","","","","","","","","","","","",""
"","ITI","","html-keyboard-response","117","307160","0.0-1.0-153.0","0","0","18045","","null","","","null","16","","","","","","","","","","","","","","","NaN",""
"","S1","","html-keyboard-response","118","307414","0.0-1.0-155.0","0","0","18045","","null","","","null","17","","","","","","","","","","","","","","","",""
"","ISI","","html-keyboard-response","119","308418","0.0-1.0-156.0","0","0","18045","","null","","","null","17","NaN","","","","","","","","","","","","","","",""
"","S2","","html-keyboard-response","120","308672","0.0-1.0-157.0","0","0","18045","","null","","","null","17","","NaN","","","","","","","","","","","","","",""
"","response","","html-keyboard-response","121","309085","0.0-1.0-158.0-0.0","0","0","18045","","409","","","68","17","","","1","17","training","adjacent","DC","4","3","N.jpg","R.jpg","0","0","1","",""
"","feedback","","html-keyboard-response","122","310088","0.0-1.0-159.0-0.0","0","0","18045","","null","","","null","17","","","","","","","","","","","","","","","",""
"","ITI","","html-keyboard-response","123","311093","0.0-1.0-162.0","0","0","18045","","null","","","null","17","","","","","","","","","","","","","","","NaN",""
"","S1","","html-keyboard-response","124","311347","0.0-1.0-164.0","0","0","18045","","null","","","null","18","","","","","","","","","","","","","","","",""
"","ISI","","html-keyboard-response","125","312350","0.0-1.0-165.0","0","0","18045","","null","","","null","18","NaN","","","","","","","","","","","","","","",""
"","S2","","html-keyboard-response","126","312604","0.0-1.0-166.0","0","0","18045","","null","","","null","18","","NaN","","","","","","","","","","","","","",""
"","response","","html-keyboard-response","127","312832","0.0-1.0-167.0-0.0","0","0","18045","","223","","","68","18","","","1","18","training","adjacent","DC","4","3","N.jpg","R.jpg","0","0","1","",""
"","feedback","","html-keyboard-response","128","313836","0.0-1.0-168.0-0.0","0","0","18045","","null","","","null","18","","","","","","","","","","","","","","","",""
"","ITI","","html-keyboard-response","129","314840","0.0-1.0-171.0","0","0","18045","","null","","","null","18","","","","","","","","","","","","","","","NaN",""
"","S1","","html-keyboard-response","130","315094","0.0-1.0-173.0","0","0","18045","","null","","","null","19","","","","","","","","","","","","","","","",""
"","ISI","","html-keyboard-response","131","316097","0.0-1.0-174.0","0","0","18045","","null","","","null","19","NaN","","","","","","","","","","","","","","",""
"","S2","","html-keyboard-response","132","316351","0.0-1.0-175.0","0","0","18045","","null","","","null","19","","NaN","","","","","","","","","","","","","",""
"","response","","html-keyboard-response","133","316510","0.0-1.0-176.0-0.0","0","0","18045","","155","","","75","19","","","1","19","training","adjacent","FG","6","7","O.jpg","L.jpg","1","1","1","",""
"","feedback","","html-keyboard-response","134","317514","0.0-1.0-177.0-0.0","0","0","18045","","null","","","null","19","","","","","","","","","","","","","","","",""
"","ITI","","html-keyboard-response","135","318527","0.0-1.0-180.0","0","0","18045","","null","","","null","19","","","","","","","","","","","","","","","NaN",""
"","S1","","html-keyboard-response","136","318781","0.0-1.0-182.0","0","0","18045","","null","","","null","20","","","","","","","","","","","","","","","",""
"","ISI","","html-keyboard-response","137","319783","0.0-1.0-183.0","0","0","18045","","null","","","null","20","NaN","","","","","","","","","","","","","","",""
"","S2","","html-keyboard-response","138","320035","0.0-1.0-184.0","0","0","18045","","null","","","null","20","","NaN","","","","","","","","","","","","","",""
"","response","","html-keyboard-response","139","320377","0.0-1.0-185.0-0.0","0","0","18045","","338","","","68","20","","","1","20","training","adjacent","AB","1","2","P.jpg","Q.jpg","0","1","0","",""
"","feedback","","html-keyboard-response","140","321381","0.0-1.0-186.0-0.0","0","0","18045","","null","","","null","20","","","","","","","","","","","","","","","",""
"","time_out","","html-keyboard-response","141","323385","0.0-1.0-188.0-0.0","0","0","18045","","null","","","null","20","","","","","","","","","","","","","","","",""
"","ITI","","html-keyboard-response","142","324388","0.0-1.0-189.0","0","0","18045","","null","","","null","20","","","","","","","","","","","","","","","NaN",""
"","S1","","html-keyboard-response","143","324642","0.0-1.0-191.0","0","0","18045","","null","","","null","21","","","","","","","","","","","","","","","",""
"","ISI","","html-keyboard-response","144","325646","0.0-1.0-192.0","0","0","18045","","null","","","null","21","NaN","","","","","","","","","","","","","","",""
"","S2","","html-keyboard-response","145","325900","0.0-1.0-193.0","0","0","18045","","null","","","null","21","","NaN","","","","","","","","","","","","","",""
"","response","","html-keyboard-response","146","326254","0.0-1.0-194.0-0.0","0","0","18045","","350","","","75","21","","","1","21","training","adjacent","ED","5","4","M.jpg","N.jpg","1","0","0","",""
"","feedback","","html-keyboard-response","147","327258","0.0-1.0-195.0-0.0","0","0","18045","","null","","","null","21","","","","","","","","","","","","","","","",""
"","time_out","","html-keyboard-response","148","329261","0.0-1.0-197.0-0.0","0","0","18045","","null","","","null","21","","","","","","","","","","","","","","","",""
"","ITI","","html-keyboard-response","149","330264","0.0-1.0-198.0","0","0","18045","","null","","","null","21","","","","","","","","","","","","","","","NaN",""
"","S1","","html-keyboard-response","150","330518","0.0-1.0-200.0","0","0","18045","","null","","","null","22","","","","","","","","","","","","","","","",""
"","ISI","","html-keyboard-response","151","331521","0.0-1.0-201.0","0","0","18045","","null","","","null","22","NaN","","","","","","","","","","","","","","",""
"","S2","","html-keyboard-response","152","331775","0.0-1.0-202.0","0","0","18045","","null","","","null","22","","NaN","","","","","","","","","","","","","",""
"","response","","html-keyboard-response","153","332186","0.0-1.0-203.0-0.0","0","0","18045","","407","","","68","22","","","1","22","training","adjacent","CD","3","4","R.jpg","N.jpg","0","1","0","",""
"","feedback","","html-keyboard-response","154","333190","0.0-1.0-204.0-0.0","0","0","18045","","null","","","null","22","","","","","","","","","","","","","","","",""
"","time_out","","html-keyboard-response","155","335194","0.0-1.0-206.0-0.0","0","0","18045","","null","","","null","22","","","","","","","","","","","","","","","",""
"","ITI","","html-keyboard-response","156","336197","0.0-1.0-207.0","0","0","18045","","null","","","null","22","","","","","","","","","","","","","","","NaN",""
"","S1","","html-keyboard-response","157","336451","0.0-1.0-209.0","0","0","18045","","null","","","null","23","","","","","","","","","","","","","","","",""
"","ISI","","html-keyboard-response","158","337455","0.0-1.0-210.0","0","0","18045","","null","","","null","23","NaN","","","","","","","","","","","","","","",""
"","S2","","html-keyboard-response","159","337709","0.0-1.0-211.0","0","0","18045","","null","","","null","23","","NaN","","","","","","","","","","","","","",""
"","response","","html-keyboard-response","160","338145","0.0-1.0-212.0-0.0","0","0","18045","","433","","","68","23","","","1","23","training","adjacent","GF","7","6","L.jpg","O.jpg","0","0","1","",""
"","feedback","","html-keyboard-response","161","339150","0.0-1.0-213.0-0.0","0","0","18045","","null","","","null","23","","","","","","","","","","","","","","","",""
"","ITI","","html-keyboard-response","162","340153","0.0-1.0-216.0","0","0","18045","","null","","","null","23","","","","","","","","","","","","","","","NaN",""
"","S1","","html-keyboard-response","163","340408","0.0-1.0-218.0","0","0","18045","","null","","","null","24","","","","","","","","","","","","","","","",""
"","ISI","","html-keyboard-response","164","341411","0.0-1.0-219.0","0","0","18045","","null","","","null","24","NaN","","","","","","","","","","","","","","",""
"","S2","","html-keyboard-response","165","341665","0.0-1.0-220.0","0","0","18045","","null","","","null","24","","NaN","","","","","","","","","","","","","",""
"","response","","html-keyboard-response","166","342103","0.0-1.0-221.0-0.0","0","0","18045","","434","","","75","24","","","1","24","training","adjacent","AB","1","2","P.jpg","Q.jpg","1","1","1","",""
"","feedback","","html-keyboard-response","167","343107","0.0-1.0-222.0-0.0","0","0","18045","","null","","","null","24","","","","","","","","","","","","","","","",""
"","ITI","","html-keyboard-response","168","344111","0.0-1.0-225.0","0","0","18045","","null","","","null","24","","","","","","","","","","","","","","","NaN",""
"","S1","","html-keyboard-response","169","344364","0.0-1.0-227.0","0","0","18045","","null","","","null","25","","","","","","","","","","","","","","","",""
"","ISI","","html-keyboard-response","170","345368","0.0-1.0-228.0","0","0","18045","","null","","","null","25","NaN","","","","","","","","","","","","","","",""
"","S2","","html-keyboard-response","171","345622","0.0-1.0-229.0","0","0","18045","","null","","","null","25","","NaN","","","","","","","","","","","","","",""
"","response","","html-keyboard-response","172","345938","0.0-1.0-230.0-0.0","0","0","18045","","312","","","75","25","","","1","25","training","adjacent","CB","3","2","R.jpg","Q.jpg","1","0","0","",""
"","feedback","","html-keyboard-response","173","346942","0.0-1.0-231.0-0.0","0","0","18045","","null","","","null","25","","","","","","","","","","","","","","","",""
"","time_out","","html-keyboard-response","174","348947","0.0-1.0-233.0-0.0","0","0","18045","","null","","","null","25","","","","","","","","","","","","","","","",""
"","ITI","","html-keyboard-response","175","349950","0.0-1.0-234.0","0","0","18045","","null","","","null","25","","","","","","","","","","","","","","","NaN",""
"","S1","","html-keyboard-response","176","350204","0.0-1.0-236.0","0","0","18045","","null","","","null","26","","","","","","","","","","","","","","","",""
"","ISI","","html-keyboard-response","177","351208","0.0-1.0-237.0","0","0","18045","","null","","","null","26","NaN","","","","","","","","","","","","","","",""
"","S2","","html-keyboard-response","178","351463","0.0-1.0-238.0","0","0","18045","","null","","","null","26","","NaN","","","","","","","","","","","","","",""
"","response","","html-keyboard-response","179","351774","0.0-1.0-239.0-0.0","0","0","18045","","307","","","68","26","","","1","26","training","adjacent","DE","4","5","N.jpg","M.jpg","0","1","0","",""
"","feedback","","html-keyboard-response","180","352780","0.0-1.0-240.0-0.0","0","0","18045","","null","","","null","26","","","","","","","","","","","","","","","",""
"","time_out","","html-keyboard-response","181","354785","0.0-1.0-242.0-0.0","0","0","18045","","null","","","null","26","","","","","","","","","","","","","","","",""
"","ITI","","html-keyboard-response","182","355790","0.0-1.0-243.0","0","0","18045","","null","","","null","26","","","","","","","","","","","","","","","NaN",""
"","S1","","html-keyboard-response","183","356043","0.0-1.0-245.0","0","0","18045","","null","","","null","27","","","","","","","","","","","","","","","",""
"","ISI","","html-keyboard-response","184","357048","0.0-1.0-246.0","0","0","18045","","null","","","null","27","NaN","","","","","","","","","","","","","","",""
"","S2","","html-keyboard-response","185","357303","0.0-1.0-247.0","0","0","18045","","null","","","null","27","","NaN","","","","","","","","","","","","","",""
"","response","","html-keyboard-response","186","357327","0.0-1.0-248.0-0.0","0","0","18045","","20","","","75","27","","","1","27","training","adjacent","BA","2","1","Q.jpg","P.jpg","1","0","0","",""
"","feedback","","html-keyboard-response","187","358331","0.0-1.0-249.0-0.0","0","0","18045","","null","","","null","27","","","","","","","","","","","","","","","",""
"","time_out","","html-keyboard-response","188","360336","0.0-1.0-251.0-0.0","0","0","18045","","null","","","null","27","","","","","","","","","","","","","","","",""
"","ITI","","html-keyboard-response","189","361340","0.0-1.0-252.0","0","0","18045","","null","","","null","27","","","","","","","","","","","","","","","NaN",""
"","S1","","html-keyboard-response","190","361604","0.0-1.0-254.0","0","0","18045","","null","","","null","28","","","","","","","","","","","","","","","",""
"","ISI","","html-keyboard-response","191","362608","0.0-1.0-255.0","0","0","18045","","null","","","null","28","NaN","","","","","","","","","","","","","","",""
"","S2","","html-keyboard-response","192","362862","0.0-1.0-256.0","0","0","18045","","null","","","null","28","","NaN","","","","","","","","","","","","","",""
"","response","","html-keyboard-response","193","363288","0.0-1.0-257.0-0.0","0","0","18045","","423","","","68","28","","","1","28","training","adjacent","CB","3","2","R.jpg","Q.jpg","0","0","1","",""
"","feedback","","html-keyboard-response","194","364293","0.0-1.0-258.0-0.0","0","0","18045","","null","","","null","28","","","","","","","","","","","","","","","",""
"","ITI","","html-keyboard-response","195","365297","0.0-1.0-261.0","0","0","18045","","null","","","null","28","","","","","","","","","","","","","","","NaN",""
"","S1","","html-keyboard-response","196","365551","0.0-1.0-263.0","0","0","18045","","null","","","null","29","","","","","","","","","","","","","","","",""
"","ISI","","html-keyboard-response","197","366554","0.0-1.0-264.0","0","0","18045","","null","","","null","29","NaN","","","","","","","","","","","","","","",""
"","S2","","html-keyboard-response","198","366810","0.0-1.0-265.0","0","0","18045","","null","","","null","29","","NaN","","","","","","","","","","","","","",""
"","response","","html-keyboard-response","199","367116","0.0-1.0-266.0-0.0","0","0","18045","","301","","","68","29","","","1","29","training","adjacent","GF","7","6","L.jpg","O.jpg","0","0","1","",""
"","feedback","","html-keyboard-response","200","368134","0.0-1.0-267.0-0.0","0","0","18045","","null","","","null","29","","","","","","","","","","","","","","","",""
"","ITI","","html-keyboard-response","201","369139","0.0-1.0-270.0","0","0","18045","","null","","","null","29","","","","","","","","","","","","","","","NaN",""
"","S1","","html-keyboard-response","202","369393","0.0-1.0-272.0","0","0","18045","","null","","","null","30","","","","","","","","","","","","","","","",""
"","ISI","","html-keyboard-response","203","370396","0.0-1.0-273.0","0","0","18045","","null","","","null","30","NaN","","","","","","","","","","","","","","",""
"","S2","","html-keyboard-response","204","370651","0.0-1.0-274.0","0","0","18045","","null","","","null","30","","NaN","","","","","","","","","","","","","",""
"","response","","html-keyboard-response","205","371109","0.0-1.0-275.0-0.0","0","0","18045","","455","","","68","30","","","1","30","training","adjacent","CD","3","4","R.jpg","N.jpg","0","1","0","",""
"","feedback","","html-keyboard-response","206","372113","0.0-1.0-276.0-0.0","0","0","18045","","null","","","null","30","","","","","","","","","","","","","","","",""
"","time_out","","html-keyboard-response","207","374117","0.0-1.0-278.0-0.0","0","0","18045","","null","","","null","30","","","","","","","","","","","","","","","",""
"","ITI","","html-keyboard-response","208","375121","0.0-1.0-279.0","0","0","18045","","null","","","null","30","","","","","","","","","","","","","","","NaN",""
"","S1","","html-keyboard-response","209","375376","0.0-1.0-281.0","0","0","18045","","null","","","null","31","","","","","","","","","","","","","","","",""
"","ISI","","html-keyboard-response","210","376379","0.0-1.0-282.0","0","0","18045","","null","","","null","31","NaN","","","","","","","","","","","","","","",""
"","S2","","html-keyboard-response","211","376633","0.0-1.0-283.0","0","0","18045","","null","","","null","31","","NaN","","","","","","","","","","","","","",""
"","response","","html-keyboard-response","212","376980","0.0-1.0-284.0-0.0","0","0","18045","","343","","","75","31","","","1","31","training","adjacent","AB","1","2","P.jpg","Q.jpg","1","1","1","",""
"","feedback","","html-keyboard-response","213","377985","0.0-1.0-285.0-0.0","0","0","18045","","null","","","null","31","","","","","","","","","","","","","","","",""
"","ITI","","html-keyboard-response","214","378990","0.0-1.0-288.0","0","0","18045","","null","","","null","31","","","","","","","","","","","","","","","NaN",""
"","S1","","html-keyboard-response","215","379244","0.0-1.0-290.0","0","0","18045","","null","","","null","32","","","","","","","","","","","","","","","",""
"","ISI","","html-keyboard-response","216","380248","0.0-1.0-291.0","0","0","18045","","null","","","null","32","NaN","","","","","","","","","","","","","","",""
"","S2","","html-keyboard-response","217","380502","0.0-1.0-292.0","0","0","18045","","null","","","null","32","","NaN","","","","","","","","","","","","","",""
"","response","","html-keyboard-response","218","380897","0.0-1.0-293.0-0.0","0","0","18045","","391","","","68","32","","","1","32","training","adjacent","CB","3","2","R.jpg","Q.jpg","0","0","1","",""
"","feedback","","html-keyboard-response","219","381901","0.0-1.0-294.0-0.0","0","0","18045","","null","","","null","32","","","","","","","","","","","","","","","",""
"","ITI","","html-keyboard-response","220","382905","0.0-1.0-297.0","0","0","18045","","null","","","null","32","","","","","","","","","","","","","","","NaN",""
"","S1","","html-keyboard-response","221","383160","0.0-1.0-299.0","0","0","18045","","null","","","null","33","","","","","","","","","","","","","","","",""
"","ISI","","html-keyboard-response","222","384163","0.0-1.0-300.0","0","0","18045","","null","","","null","33","NaN","","","","","","","","","","","","","","",""
"","S2","","html-keyboard-response","223","384418","0.0-1.0-301.0","0","0","18045","","null","","","null","33","","NaN","","","","","","","","","","","","","",""
"","response","","html-keyboard-response","224","384689","0.0-1.0-302.0-0.0","0","0","18045","","267","","","75","33","","","1","33","training","adjacent","BC","2","3","Q.jpg","R.jpg","1","1","1","",""
"","feedback","","html-keyboard-response","225","385693","0.0-1.0-303.0-0.0","0","0","18045","","null","","","null","33","","","","","","","","","","","","","","","",""
"","ITI","","html-keyboard-response","226","386697","0.0-1.0-306.0","0","0","18045","","null","","","null","33","","","","","","","","","","","","","","","NaN",""
"","S1","","html-keyboard-response","227","386951","0.0-1.0-308.0","0","0","18045","","null","","","null","34","","","","","","","","","","","","","","","",""
"","ISI","","html-keyboard-response","228","387954","0.0-1.0-309.0","0","0","18045","","null","","","null","34","NaN","","","","","","","","","","","","","","",""
"","S2","","html-keyboard-response","229","388208","0.0-1.0-310.0","0","0","18045","","null","","","null","34","","NaN","","","","","","","","","","","","","",""
"","response","","html-keyboard-response","230","388444","0.0-1.0-311.0-0.0","0","0","18045","","233","","","75","34","","","1","34","training","adjacent","BA","2","1","Q.jpg","P.jpg","1","0","0","",""
"","feedback","","html-keyboard-response","231","389449","0.0-1.0-312.0-0.0","0","0","18045","","null","","","null","34","","","","","","","","","","","","","","","",""
"","time_out","","html-keyboard-response","232","391453","0.0-1.0-314.0-0.0","0","0","18045","","null","","","null","34","","","","","","","","","","","","","","","",""
"","ITI","","html-keyboard-response","233","392458","0.0-1.0-315.0","0","0","18045","","null","","","null","34","","","","","","","","","","","","","","","NaN",""
"","S1","","html-keyboard-response","234","392712","0.0-1.0-317.0","0","0","18045","","null","","","null","35","","","","","","","","","","","","","","","",""
"","ISI","","html-keyboard-response","235","393716","0.0-1.0-318.0","0","0","18045","","null","","","null","35","NaN","","","","","","","","","","","","","","",""
"","S2","","html-keyboard-response","236","393970","0.0-1.0-319.0","0","0","18045","","null","","","null","35","","NaN","","","","","","","","","","","","","",""
"","response","","html-keyboard-response","237","394279","0.0-1.0-320.0-0.0","0","0","18045","","305","","","68","35","","","1","35","training","adjacent","DE","4","5","N.jpg","M.jpg","0","1","0","",""
"","feedback","","html-keyboard-response","238","395283","0.0-1.0-321.0-0.0","0","0","18045","","null","","","null","35","","","","","","","","","","","","","","","",""
"","time_out","","html-keyboard-response","239","397288","0.0-1.0-323.0-0.0","0","0","18045","","null","","","null","35","","","","","","","","","","","","","","","",""
"","ITI","","html-keyboard-response","240","398291","0.0-1.0-324.0","0","0","18045","","null","","","null","35","","","","","","","","","","","","","","","NaN",""
"","S1","","html-keyboard-response","241","398545","0.0-1.0-326.0","0","0","18045","","null","","","null","36","","","","","","","","","","","","","","","",""
"","ISI","","html-keyboard-response","242","399548","0.0-1.0-327.0","0","0","18045","","null","","","null","36","NaN","","","","","","","","","","","","","","",""
"","S2","","html-keyboard-response","243","399802","0.0-1.0-328.0","0","0","18045","","null","","","null","36","","NaN","","","","","","","","","","","","","",""
"","response","","html-keyboard-response","244","400099","0.0-1.0-329.0-0.0","0","0","18045","","292","","","75","36","","","1","36","training","adjacent","FG","6","7","O.jpg","L.jpg","1","1","1","",""
"","feedback","","html-keyboard-response","245","401103","0.0-1.0-330.0-0.0","0","0","18045","","null","","","null","36","","","","","","","","","","","","","","","",""
"","ITI","","html-keyboard-response","246","402107","0.0-1.0-333.0","0","0","18045","","null","","","null","36","","","","","","","","","","","","","","","NaN",""
"","S1","","html-keyboard-response","247","402361","0.0-1.0-335.0","0","0","18045","","null","","","null","37","","","","","","","","","","","","","","","",""
"","ISI","","html-keyboard-response","248","403365","0.0-1.0-336.0","0","0","18045","","null","","","null","37","NaN","","","","","","","","","","","","","","",""
"","S2","","html-keyboard-response","249","403620","0.0-1.0-337.0","0","0","18045","","null","","","null","37","","NaN","","","","","","","","","","","","","",""
"","response","","html-keyboard-response","250","403759","0.0-1.0-338.0-0.0","0","0","18045","","135","","","75","37","","","1","37","training","adjacent","BA","2","1","Q.jpg","P.jpg","1","0","0","",""
"","feedback","","html-keyboard-response","251","404763","0.0-1.0-339.0-0.0","0","0","18045","","null","","","null","37","","","","","","","","","","","","","","","",""
"","time_out","","html-keyboard-response","252","406767","0.0-1.0-341.0-0.0","0","0","18045","","null","","","null","37","","","","","","","","","","","","","","","",""
"","ITI","","html-keyboard-response","253","407771","0.0-1.0-342.0","0","0","18045","","null","","","null","37","","","","","","","","","","","","","","","NaN",""
"","S1","","html-keyboard-response","254","408027","0.0-1.0-344.0","0","0","18045","","null","","","null","38","","","","","","","","","","","","","","","",""
"","ISI","","html-keyboard-response","255","409030","0.0-1.0-345.0","0","0","18045","","null","","","null","38","NaN","","","","","","","","","","","","","","",""
"","S2","","html-keyboard-response","256","409287","0.0-1.0-346.0","0","0","18045","","null","","","null","38","","NaN","","","","","","","","","","","","","",""
"","response","","html-keyboard-response","257","409548","0.0-1.0-347.0-0.0","0","0","18045","","257","","","75","38","","","1","38","training","adjacent","BC","2","3","Q.jpg","R.jpg","1","1","1","",""
"","feedback","","html-keyboard-response","258","410552","0.0-1.0-348.0-0.0","0","0","18045","","null","","","null","38","","","","","","","","","","","","","","","",""
"","ITI","","html-keyboard-response","259","411556","0.0-1.0-351.0","0","0","18045","","null","","","null","38","","","","","","","","","","","","","","","NaN",""
"","S1","","html-keyboard-response","260","411810","0.0-1.0-353.0","0","0","18045","","null","","","null","39","","","","","","","","","","","","","","","",""
"","ISI","","html-keyboard-response","261","412822","0.0-1.0-354.0","0","0","18045","","null","","","null","39","NaN","","","","","","","","","","","","","","",""
"","S2","","html-keyboard-response","262","413078","0.0-1.0-355.0","0","0","18045","","null","","","null","39","","NaN","","","","","","","","","","","","","",""
"","response","","html-keyboard-response","263","413368","0.0-1.0-356.0-0.0","0","0","18045","","287","","","75","39","","","1","39","training","adjacent","DC","4","3","N.jpg","R.jpg","1","0","0","",""
"","feedback","","html-keyboard-response","264","414373","0.0-1.0-357.0-0.0","0","0","18045","","null","","","null","39","","","","","","","","","","","","","","","",""
"","time_out","","html-keyboard-response","265","416378","0.0-1.0-359.0-0.0","0","0","18045","","null","","","null","39","","","","","","","","","","","","","","","",""
"","ITI","","html-keyboard-response","266","417382","0.0-1.0-360.0","0","0","18045","","null","","","null","39","","","","","","","","","","","","","","","NaN",""
"","S1","","html-keyboard-response","267","417636","0.0-1.0-362.0","0","0","18045","","null","","","null","40","","","","","","","","","","","","","","","",""
"","ISI","","html-keyboard-response","268","418639","0.0-1.0-363.0","0","0","18045","","null","","","null","40","NaN","","","","","","","","","","","","","","",""
"","S2","","html-keyboard-response","269","418893","0.0-1.0-364.0","0","0","18045","","null","","","null","40","","NaN","","","","","","","","","","","","","",""
"","response","","html-keyboard-response","270","419308","0.0-1.0-365.0-0.0","0","0","18045","","412","","","68","40","","","1","40","training","adjacent","ED","5","4","M.jpg","N.jpg","0","0","1","",""
"","feedback","","html-keyboard-response","271","420313","0.0-1.0-366.0-0.0","0","0","18045","","null","","","null","40","","","","","","","","","","","","","","","",""
"","ITI","","html-keyboard-response","272","421317","0.0-1.0-369.0","0","0","18045","","null","","","null","40","","","","","","","","","","","","","","","NaN",""
"","S1","","html-keyboard-response","273","421571","0.0-1.0-371.0","0","0","18045","","null","","","null","41","","","","","","","","","","","","","","","",""
"","ISI","","html-keyboard-response","274","422575","0.0-1.0-372.0","0","0","18045","","null","","","null","41","NaN","","","","","","","","","","","","","","",""
"","S2","","html-keyboard-response","275","422828","0.0-1.0-373.0","0","0","18045","","null","","","null","41","","NaN","","","","","","","","","","","","","",""
"","response","","html-keyboard-response","276","423457","0.0-1.0-374.0-0.0","0","0","18045","","627","","","75","41","","","1","41","training","adjacent","GF","7","6","L.jpg","O.jpg","1","0","0","",""
"","feedback","","html-keyboard-response","277","424461","0.0-1.0-375.0-0.0","0","0","18045","","null","","","null","41","","","","","","","","","","","","","","","",""
"","time_out","","html-keyboard-response","278","426465","0.0-1.0-377.0-0.0","0","0","18045","","null","","","null","41","","","","","","","","","","","","","","","",""
"","ITI","","html-keyboard-response","279","427470","0.0-1.0-378.0","0","0","18045","","null","","","null","41","","","","","","","","","","","","","","","NaN",""
"","S1","","html-keyboard-response","280","427735","0.0-1.0-380.0","0","0","18045","","null","","","null","42","","","","","","","","","","","","","","","",""
"","ISI","","html-keyboard-response","281","428738","0.0-1.0-381.0","0","0","18045","","null","","","null","42","NaN","","","","","","","","","","","","","","",""
"","S2","","html-keyboard-response","282","428992","0.0-1.0-382.0","0","0","18045","","null","","","null","42","","NaN","","","","","","","","","","","","","",""
"","response","","html-keyboard-response","283","429336","0.0-1.0-383.0-0.0","0","0","18045","","340","","","75","42","","","1","42","training","adjacent","BC","2","3","Q.jpg","R.jpg","1","1","1","",""
"","feedback","","html-keyboard-response","284","430340","0.0-1.0-384.0-0.0","0","0","18045","","null","","","null","42","","","","","","","","","","","","","","","",""
"","ITI","","html-keyboard-response","285","431344","0.0-1.0-387.0","0","0","18045","","null","","","null","42","","","","","","","","","","","","","","","NaN",""
"","S1","","html-keyboard-response","286","431599","0.0-1.0-389.0","0","0","18045","","null","","","null","43","","","","","","","","","","","","","","","",""
"","ISI","","html-keyboard-response","287","432602","0.0-1.0-390.0","0","0","18045","","null","","","null","43","NaN","","","","","","","","","","","","","","",""
"","S2","","html-keyboard-response","288","432857","0.0-1.0-391.0","0","0","18045","","null","","","null","43","","NaN","","","","","","","","","","","","","",""
"","response","","html-keyboard-response","289","433434","0.0-1.0-392.0-0.0","0","0","18045","","573","","","68","43","","","1","43","training","adjacent","DE","4","5","N.jpg","M.jpg","0","1","0","",""
"","feedback","","html-keyboard-response","290","434438","0.0-1.0-393.0-0.0","0","0","18045","","null","","","null","43","","","","","","","","","","","","","","","",""
"","time_out","","html-keyboard-response","291","436442","0.0-1.0-395.0-0.0","0","0","18045","","null","","","null","43","","","","","","","","","","","","","","","",""
"","ITI","","html-keyboard-response","292","437447","0.0-1.0-396.0","0","0","18045","","null","","","null","43","","","","","","","","","","","","","","","NaN",""
"","S1","","html-keyboard-response","293","437701","0.0-1.0-398.0","0","0","18045","","null","","","null","44","","","","","","","","","","","","","","","",""
"","ISI","","html-keyboard-response","294","438704","0.0-1.0-399.0","0","0","18045","","null","","","null","44","NaN","","","","","","","","","","","","","","",""
"","S2","","html-keyboard-response","295","438959","0.0-1.0-400.0","0","0","18045","","null","","","null","44","","NaN","","","","","","","","","","","","","",""
"","response","","html-keyboard-response","296","439253","0.0-1.0-401.0-0.0","0","0","18045","","291","","","75","44","","","1","44","training","adjacent","FE","6","5","O.jpg","M.jpg","1","0","0","",""
"","feedback","","html-keyboard-response","297","440258","0.0-1.0-402.0-0.0","0","0","18045","","null","","","null","44","","","","","","","","","","","","","","","",""
"","time_out","","html-keyboard-response","298","442263","0.0-1.0-404.0-0.0","0","0","18045","","null","","","null","44","","","","","","","","","","","","","","","",""
"","ITI","","html-keyboard-response","299","443267","0.0-1.0-405.0","0","0","18045","","null","","","null","44","","","","","","","","","","","","","","","NaN",""
"","S1","","html-keyboard-response","300","443521","0.0-1.0-407.0","0","0","18045","","null","","","null","45","","","","","","","","","","","","","","","",""
"","ISI","","html-keyboard-response","301","444525","0.0-1.0-408.0","0","0","18045","","null","","","null","45","NaN","","","","","","","","","","","","","","",""
"","S2","","html-keyboard-response","302","444780","0.0-1.0-409.0","0","0","18045","","null","","","null","45","","NaN","","","","","","","","","","","","","",""
"","response","","html-keyboard-response","303","445243","0.0-1.0-410.0-0.0","0","0","18045","","459","","","68","45","","","1","45","training","adjacent","FE","6","5","O.jpg","M.jpg","0","0","1","",""
"","feedback","","html-keyboard-response","304","446247","0.0-1.0-411.0-0.0","0","0","18045","","null","","","null","45","","","","","","","","","","","","","","","",""
"","ITI","","html-keyboard-response","305","447251","0.0-1.0-414.0","0","0","18045","","null","","","null","45","","","","","","","","","","","","","","","NaN",""
"","S1","","html-keyboard-response","306","447505","0.0-1.0-416.0","0","0","18045","","null","","","null","46","","","","","","","","","","","","","","","",""
"","ISI","","html-keyboard-response","307","448508","0.0-1.0-417.0","0","0","18045","","null","","","null","46","NaN","","","","","","","","","","","","","","",""
"","S2","","html-keyboard-response","308","448762","0.0-1.0-418.0","0","0","18045","","null","","","null","46","","NaN","","","","","","","","","","","","","",""
"","response","","html-keyboard-response","309","449432","0.0-1.0-419.0-0.0","0","0","18045","","666","","","75","46","","","1","46","training","adjacent","AB","1","2","P.jpg","Q.jpg","1","1","1","",""
"","feedback","","html-keyboard-response","310","450437","0.0-1.0-420.0-0.0","0","0","18045","","null","","","null","46","","","","","","","","","","","","","","","",""
"","ITI","","html-keyboard-response","311","451441","0.0-1.0-423.0","0","0","18045","","null","","","null","46","","","","","","","","","","","","","","","NaN",""
"","S1","","html-keyboard-response","312","451696","0.0-1.0-425.0","0","0","18045","","null","","","null","47","","","","","","","","","","","","","","","",""
"","ISI","","html-keyboard-response","313","452700","0.0-1.0-426.0","0","0","18045","","null","","","null","47","NaN","","","","","","","","","","","","","","",""
"","S2","","html-keyboard-response","314","452955","0.0-1.0-427.0","0","0","18045","","null","","","null","47","","NaN","","","","","","","","","","","","","",""
"","response","","html-keyboard-response","315","453601","0.0-1.0-428.0-0.0","0","0","18045","","642","","","68","47","","","1","47","training","adjacent","FE","6","5","O.jpg","M.jpg","0","0","1","",""
"","feedback","","html-keyboard-response","316","454605","0.0-1.0-429.0-0.0","0","0","18045","","null","","","null","47","","","","","","","","","","","","","","","",""
"","ITI","","html-keyboard-response","317","455609","0.0-1.0-432.0","0","0","18045","","null","","","null","47","","","","","","","","","","","","","","","NaN",""
"","block_over","","html-keyboard-response","318","457251","0.0-1.0-433.0-0.0","0","0","18045","","1637","","","32","47","","","","","","","","","","","","","","","",""
"","S1","","html-keyboard-response","319","457504","0.0-1.0-434.0","0","0","18045","","null","","","null","48","","","","","","","","","","","","","","","",""
"","ISI","","html-keyboard-response","320","458507","0.0-1.0-435.0","0","0","18045","","null","","","null","48","NaN","","","","","","","","","","","","","","",""
"","S2","","html-keyboard-response","321","458762","0.0-1.0-436.0","0","0","18045","","null","","","null","48","","NaN","","","","","","","","","","","","","",""
"","response","","html-keyboard-response","322","459184","0.0-1.0-437.0-0.0","0","0","18045","","419","","","68","48","","","2","48","training","adjacent","CD","3","4","R.jpg","N.jpg","0","1","0","",""
"","feedback","","html-keyboard-response","323","460188","0.0-1.0-438.0-0.0","0","0","18045","","null","","","null","48","","","","","","","","","","","","","","","",""
"","time_out","","html-keyboard-response","324","462192","0.0-1.0-440.0-0.0","0","0","18045","","null","","","null","48","","","","","","","","","","","","","","","",""
"","ITI","","html-keyboard-response","325","463196","0.0-1.0-441.0","0","0","18045","","null","","","null","48","","","","","","","","","","","","","","","NaN",""
"","S1","","html-keyboard-response","326","463453","0.0-1.0-443.0","0","0","18045","","null","","","null","49","","","","","","","","","","","","","","","",""
"","ISI","","html-keyboard-response","327","464457","0.0-1.0-444.0","0","0","18045","","null","","","null","49","NaN","","","","","","","","","","","","","","",""
"","S2","","html-keyboard-response","328","464710","0.0-1.0-445.0","0","0","18045","","null","","","null","49","","NaN","","","","","","","","","","","","","",""
"","response","","html-keyboard-response","329","465085","0.0-1.0-446.0-0.0","0","0","18045","","372","","","68","49","","","2","49","training","adjacent","CD","3","4","R.jpg","N.jpg","0","1","0","",""
"","feedback","","html-keyboard-response","330","466090","0.0-1.0-447.0-0.0","0","0","18045","","null","","","null","49","","","","","","","","","","","","","","","",""
"","time_out","","html-keyboard-response","331","468094","0.0-1.0-449.0-0.0","0","0","18045","","null","","","null","49","","","","","","","","","","","","","","","",""
"","ITI","","html-keyboard-response","332","469098","0.0-1.0-450.0","0","0","18045","","null","","","null","49","","","","","","","","","","","","","","","NaN",""
"","S1","","html-keyboard-response","333","469352","0.0-1.0-452.0","0","0","18045","","null","","","null","50","","","","","","","","","","","","","","","",""
"","ISI","","html-keyboard-response","334","470355","0.0-1.0-453.0","0","0","18045","","null","","","null","50","NaN","","","","","","","","","","","","","","",""
"","S2","","html-keyboard-response","335","470610","0.0-1.0-454.0","0","0","18045","","null","","","null","50","","NaN","","","","","","","","","","","","","",""
"","response","","html-keyboard-response","336","471358","0.0-1.0-455.0-0.0","0","0","18045","","744","","","68","50","","","2","50","training","adjacent","EF","5","6","M.jpg","O.jpg","0","1","0","",""
"","feedback","","html-keyboard-response","337","472362","0.0-1.0-456.0-0.0","0","0","18045","","null","","","null","50","","","","","","","","","","","","","","","",""
"","time_out","","html-keyboard-response","338","474368","0.0-1.0-458.0-0.0","0","0","18045","","null","","","null","50","","","","","","","","","","","","","","","",""
"","ITI","","html-keyboard-response","339","475371","0.0-1.0-459.0","0","0","18045","","null","","","null","50","","","","","","","","","","","","","","","NaN",""
"","S1","","html-keyboard-response","340","475624","0.0-1.0-461.0","0","0","18045","","null","","","null","51","","","","","","","","","","","","","","","",""
"","ISI","","html-keyboard-response","341","476628","0.0-1.0-462.0","0","0","18045","","null","","","null","51","NaN","","","","","","","","","","","","","","",""
"","S2","","html-keyboard-response","342","476882","0.0-1.0-463.0","0","0","18045","","null","","","null","51","","NaN","","","","","","","","","","","","","",""
"","response","","html-keyboard-response","343","477258","0.0-1.0-464.0-0.0","0","0","18045","","373","","","75","51","","","2","51","training","adjacent","AB","1","2","P.jpg","Q.jpg","1","1","1","",""
"","feedback","","html-keyboard-response","344","478263","0.0-1.0-465.0-0.0","0","0","18045","","null","","","null","51","","","","","","","","","","","","","","","",""
"","ITI","","html-keyboard-response","345","479267","0.0-1.0-468.0","0","0","18045","","null","","","null","51","","","","","","","","","","","","","","","NaN",""
"","S1","","html-keyboard-response","346","479521","0.0-1.0-470.0","0","0","18045","","null","","","null","52","","","","","","","","","","","","","","","",""
"","ISI","","html-keyboard-response","347","480524","0.0-1.0-471.0","0","0","18045","","null","","","null","52","NaN","","","","","","","","","","","","","","",""
"","S2","","html-keyboard-response","348","480779","0.0-1.0-472.0","0","0","18045","","null","","","null","52","","NaN","","","","","","","","","","","","","",""
"","response","","html-keyboard-response","349","481122","0.0-1.0-473.0-0.0","0","0","18045","","341","","","75","52","","","2","52","training","adjacent","FG","6","7","O.jpg","L.jpg","1","1","1","",""
"","feedback","","html-keyboard-response","350","482126","0.0-1.0-474.0-0.0","0","0","18045","","null","","","null","52","","","","","","","","","","","","","","","",""
"","ITI","","html-keyboard-response","351","483130","0.0-1.0-477.0","0","0","18045","","null","","","null","52","","","","","","","","","","","","","","","NaN",""
"","S1","","html-keyboard-response","352","483384","0.0-1.0-479.0","0","0","18045","","null","","","null","53","","","","","","","","","","","","","","","",""
"","ISI","","html-keyboard-response","353","484388","0.0-1.0-480.0","0","0","18045","","null","","","null","53","NaN","","","","","","","","","","","","","","",""
"","S2","","html-keyboard-response","354","484643","0.0-1.0-481.0","0","0","18045","","null","","","null","53","","NaN","","","","","","","","","","","","","",""
"","response","","html-keyboard-response","355","485035","0.0-1.0-482.0-0.0","0","0","18045","","389","","","75","53","","","2","53","training","adjacent","DC","4","3","N.jpg","R.jpg","1","0","0","",""
"","feedback","","html-keyboard-response","356","486040","0.0-1.0-483.0-0.0","0","0","18045","","null","","","null","53","","","","","","","","","","","","","","","",""
"","time_out","","html-keyboard-response","357","488043","0.0-1.0-485.0-0.0","0","0","18045","","null","","","null","53","","","","","","","","","","","","","","","",""
"","ITI","","html-keyboard-response","358","489048","0.0-1.0-486.0","0","0","18045","","null","","","null","53","","","","","","","","","","","","","","","NaN",""
"","S1","","html-keyboard-response","359","489302","0.0-1.0-488.0","0","0","18045","","null","","","null","54","","","","","","","","","","","","","","","",""
"","ISI","","html-keyboard-response","360","490305","0.0-1.0-489.0","0","0","18045","","null","","","null","54","NaN","","","","","","","","","","","","","","",""
"","S2","","html-keyboard-response","361","490560","0.0-1.0-490.0","0","0","18045","","null","","","null","54","","NaN","","","","","","","","","","","","","",""
"","response","","html-keyboard-response","362","490853","0.0-1.0-491.0-0.0","0","0","18045","","290","","","75","54","","","2","54","training","adjacent","CD","3","4","R.jpg","N.jpg","1","1","1","",""
"","feedback","","html-keyboard-response","363","491857","0.0-1.0-492.0-0.0","0","0","18045","","null","","","null","54","","","","","","","","","","","","","","","",""
"","ITI","","html-keyboard-response","364","492860","0.0-1.0-495.0","0","0","18045","","null","","","null","54","","","","","","","","","","","","","","","NaN",""
"","S1","","html-keyboard-response","365","493113","0.0-1.0-497.0","0","0","18045","","null","","","null","55","","","","","","","","","","","","","","","",""
"","ISI","","html-keyboard-response","366","494117","0.0-1.0-498.0","0","0","18045","","null","","","null","55","NaN","","","","","","","","","","","","","","",""
"","S2","","html-keyboard-response","367","494371","0.0-1.0-499.0","0","0","18045","","null","","","null","55","","NaN","","","","","","","","","","","","","",""
"","response","","html-keyboard-response","368","494660","0.0-1.0-500.0-0.0","0","0","18045","","286","","","68","55","","","2","55","training","adjacent","DE","4","5","N.jpg","M.jpg","0","1","0","",""
"","feedback","","html-keyboard-response","369","495665","0.0-1.0-501.0-0.0","0","0","18045","","null","","","null","55","","","","","","","","","","","","","","","",""
"","time_out","","html-keyboard-response","370","497670","0.0-1.0-503.0-0.0","0","0","18045","","null","","","null","55","","","","","","","","","","","","","","","",""
"","ITI","","html-keyboard-response","371","498674","0.0-1.0-504.0","0","0","18045","","null","","","null","55","","","","","","","","","","","","","","","NaN",""
"","S1","","html-keyboard-response","372","498928","0.0-1.0-506.0","0","0","18045","","null","","","null","56","","","","","","","","","","","","","","","",""
"","ISI","","html-keyboard-response","373","499932","0.0-1.0-507.0","0","0","18045","","null","","","null","56","NaN","","","","","","","","","","","","","","",""
"","S2","","html-keyboard-response","374","500185","0.0-1.0-508.0","0","0","18045","","null","","","null","56","","NaN","","","","","","","","","","","","","",""
"","response","","html-keyboard-response","375","500773","0.0-1.0-509.0-0.0","0","0","18045","","584","","","68","56","","","2","56","training","adjacent","EF","5","6","M.jpg","O.jpg","0","1","0","",""
"","feedback","","html-keyboard-response","376","501777","0.0-1.0-510.0-0.0","0","0","18045","","null","","","null","56","","","","","","","","","","","","","","","",""
"","time_out","","html-keyboard-response","377","503782","0.0-1.0-512.0-0.0","0","0","18045","","null","","","null","56","","","","","","","","","","","","","","","",""
"","ITI","","html-keyboard-response","378","504786","0.0-1.0-513.0","0","0","18045","","null","","","null","56","","","","","","","","","","","","","","","NaN",""
"","S1","","html-keyboard-response","379","505040","0.0-1.0-515.0","0","0","18045","","null","","","null","57","","","","","","","","","","","","","","","",""
"","ISI","","html-keyboard-response","380","506043","0.0-1.0-516.0","0","0","18045","","null","","","null","57","NaN","","","","","","","","","","","","","","",""
"","S2","","html-keyboard-response","381","506299","0.0-1.0-517.0","0","0","18045","","null","","","null","57","","NaN","","","","","","","","","","","","","",""
"","response","","html-keyboard-response","382","506590","0.0-1.0-518.0-0.0","0","0","18045","","287","","","75","57","","","2","57","training","adjacent","FG","6","7","O.jpg","L.jpg","1","1","1","",""
"","feedback","","html-keyboard-response","383","507594","0.0-1.0-519.0-0.0","0","0","18045","","null","","","null","57","","","","","","","","","","","","","","","",""
"","ITI","","html-keyboard-response","384","508599","0.0-1.0-522.0","0","0","18045","","null","","","null","57","","","","","","","","","","","","","","","NaN",""
"","S1","","html-keyboard-response","385","508852","0.0-1.0-524.0","0","0","18045","","null","","","null","58","","","","","","","","","","","","","","","",""
"","ISI","","html-keyboard-response","386","509855","0.0-1.0-525.0","0","0","18045","","null","","","null","58","NaN","","","","","","","","","","","","","","",""
"","S2","","html-keyboard-response","387","510110","0.0-1.0-526.0","0","0","18045","","null","","","null","58","","NaN","","","","","","","","","","","","","",""
"","response","","html-keyboard-response","388","510831","0.0-1.0-527.0-0.0","0","0","18045","","718","","","68","58","","","2","58","training","adjacent","DC","4","3","N.jpg","R.jpg","0","0","1","",""
"","feedback","","html-keyboard-response","389","511836","0.0-1.0-528.0-0.0","0","0","18045","","null","","","null","58","","","","","","","","","","","","","","","",""
"","ITI","","html-keyboard-response","390","512840","0.0-1.0-531.0","0","0","18045","","null","","","null","58","","","","","","","","","","","","","","","NaN",""
"","S1","","html-keyboard-response","391","513094","0.0-1.0-533.0","0","0","18045","","null","","","null","59","","","","","","","","","","","","","","","",""
"","ISI","","html-keyboard-response","392","514099","0.0-1.0-534.0","0","0","18045","","null","","","null","59","NaN","","","","","","","","","","","","","","",""
"","S2","","html-keyboard-response","393","514353","0.0-1.0-535.0","0","0","18045","","null","","","null","59","","NaN","","","","","","","","","","","","","",""
"","response","","html-keyboard-response","394","515109","0.0-1.0-536.0-0.0","0","0","18045","","751","","","68","59","","","2","59","training","adjacent","GF","7","6","L.jpg","O.jpg","0","0","1","",""
"","feedback","","html-keyboard-response","395","516114","0.0-1.0-537.0-0.0","0","0","18045","","null","","","null","59","","","","","","","","","","","","","","","",""
"","ITI","","html-keyboard-response","396","517118","0.0-1.0-540.0","0","0","18045","","null","","","null","59","","","","","","","","","","","","","","","NaN",""
"","S1","","html-keyboard-response","397","517372","0.0-1.0-542.0","0","0","18045","","null","","","null","60","","","","","","","","","","","","","","","",""
"","ISI","","html-keyboard-response","398","518377","0.0-1.0-543.0","0","0","18045","","null","","","null","60","NaN","","","","","","","","","","","","","","",""
"","S2","","html-keyboard-response","399","518631","0.0-1.0-544.0","0","0","18045","","null","","","null","60","","NaN","","","","","","","","","","","","","",""
"","response","","html-keyboard-response","400","519257","0.0-1.0-545.0-0.0","0","0","18045","","622","","","75","60","","","2","60","training","adjacent","BC","2","3","Q.jpg","R.jpg","1","1","1","",""
"","feedback","","html-keyboard-response","401","520262","0.0-1.0-546.0-0.0","0","0","18045","","null","","","null","60","","","","","","","","","","","","","","","",""
"","ITI","","html-keyboard-response","402","521268","0.0-1.0-549.0","0","0","18045","","null","","","null","60","","","","","","","","","","","","","","","NaN",""
"","S1","","html-keyboard-response","403","521522","0.0-1.0-551.0","0","0","18045","","null","","","null","61","","","","","","","","","","","","","","","",""
"","ISI","","html-keyboard-response","404","522527","0.0-1.0-552.0","0","0","18045","","null","","","null","61","NaN","","","","","","","","","","","","","","",""
"","S2","","html-keyboard-response","405","522781","0.0-1.0-553.0","0","0","18045","","null","","","null","61","","NaN","","","","","","","","","","","","","",""
"","response","","html-keyboard-response","406","523154","0.0-1.0-554.0-0.0","0","0","18045","","369","","","75","61","","","2","61","training","adjacent","CD","3","4","R.jpg","N.jpg","1","1","1","",""
"","feedback","","html-keyboard-response","407","524158","0.0-1.0-555.0-0.0","0","0","18045","","null","","","null","61","","","","","","","","","","","","","","","",""
"","ITI","","html-keyboard-response","408","525163","0.0-1.0-558.0","0","0","18045","","null","","","null","61","","","","","","","","","","","","","","","NaN",""
"","S1","","html-keyboard-response","409","525417","0.0-1.0-560.0","0","0","18045","","null","","","null","62","","","","","","","","","","","","","","","",""
"","ISI","","html-keyboard-response","410","526421","0.0-1.0-561.0","0","0","18045","","null","","","null","62","NaN","","","","","","","","","","","","","","",""
"","S2","","html-keyboard-response","411","526688","0.0-1.0-562.0","0","0","18045","","null","","","null","62","","NaN","","","","","","","","","","","","","",""
"","response","","html-keyboard-response","412","527080","0.0-1.0-563.0-0.0","0","0","18045","","388","","","75","62","","","2","62","training","adjacent","FE","6","5","O.jpg","M.jpg","1","0","0","",""
"","feedback","","html-keyboard-response","413","528084","0.0-1.0-564.0-0.0","0","0","18045","","null","","","null","62","","","","","","","","","","","","","","","",""
"","time_out","","html-keyboard-response","414","530089","0.0-1.0-566.0-0.0","0","0","18045","","null","","","null","62","","","","","","","","","","","","","","","",""
"","ITI","","html-keyboard-response","415","531093","0.0-1.0-567.0","0","0","18045","","null","","","null","62","","","","","","","","","","","","","","","NaN",""
"","S1","","html-keyboard-response","416","531347","0.0-1.0-569.0","0","0","18045","","null","","","null","63","","","","","","","","","","","","","","","",""
"","ISI","","html-keyboard-response","417","532350","0.0-1.0-570.0","0","0","18045","","null","","","null","63","NaN","","","","","","","","","","","","","","",""
"","S2","","html-keyboard-response","418","532604","0.0-1.0-571.0","0","0","18045","","null","","","null","63","","NaN","","","","","","","","","","","","","",""
"","response","","html-keyboard-response","419","533070","0.0-1.0-572.0-0.0","0","0","18045","","462","","","68","63","","","2","63","training","adjacent","FE","6","5","O.jpg","M.jpg","0","0","1","",""
"","feedback","","html-keyboard-response","420","534074","0.0-1.0-573.0-0.0","0","0","18045","","null","","","null","63","","","","","","","","","","","","","","","",""
"","ITI","","html-keyboard-response","421","535079","0.0-1.0-576.0","0","0","18045","","null","","","null","63","","","","","","","","","","","","","","","NaN",""
"","S1","","html-keyboard-response","422","535332","0.0-1.0-578.0","0","0","18045","","null","","","null","64","","","","","","","","","","","","","","","",""
"","ISI","","html-keyboard-response","423","536336","0.0-1.0-579.0","0","0","18045","","null","","","null","64","NaN","","","","","","","","","","","","","","",""
"","S2","","html-keyboard-response","424","536590","0.0-1.0-580.0","0","0","18045","","null","","","null","64","","NaN","","","","","","","","","","","","","",""
"","response","","html-keyboard-response","425","537025","0.0-1.0-581.0-0.0","0","0","18045","","431","","","68","64","","","2","64","training","adjacent","FG","6","7","O.jpg","L.jpg","0","1","0","",""
"","feedback","","html-keyboard-response","426","538029","0.0-1.0-582.0-0.0","0","0","18045","","null","","","null","64","","","","","","","","","","","","","","","",""
"","time_out","","html-keyboard-response","427","540033","0.0-1.0-584.0-0.0","0","0","18045","","null","","","null","64","","","","","","","","","","","","","","","",""
"","ITI","","html-keyboard-response","428","541037","0.0-1.0-585.0","0","0","18045","","null","","","null","64","","","","","","","","","","","","","","","NaN",""
"","S1","","html-keyboard-response","429","541291","0.0-1.0-587.0","0","0","18045","","null","","","null","65","","","","","","","","","","","","","","","",""
"","ISI","","html-keyboard-response","430","542295","0.0-1.0-588.0","0","0","18045","","null","","","null","65","NaN","","","","","","","","","","","","","","",""
"","S2","","html-keyboard-response","431","542549","0.0-1.0-589.0","0","0","18045","","null","","","null","65","","NaN","","","","","","","","","","","","","",""
"","response","","html-keyboard-response","432","543328","0.0-1.0-590.0-0.0","0","0","18045","","775","","","68","65","","","2","65","training","adjacent","GF","7","6","L.jpg","O.jpg","0","0","1","",""
"","feedback","","html-keyboard-response","433","544332","0.0-1.0-591.0-0.0","0","0","18045","","null","","","null","65","","","","","","","","","","","","","","","",""
"","ITI","","html-keyboard-response","434","545337","0.0-1.0-594.0","0","0","18045","","null","","","null","65","","","","","","","","","","","","","","","NaN",""
"","S1","","html-keyboard-response","435","545591","0.0-1.0-596.0","0","0","18045","","null","","","null","66","","","","","","","","","","","","","","","",""
"","ISI","","html-keyboard-response","436","546593","0.0-1.0-597.0","0","0","18045","","null","","","null","66","NaN","","","","","","","","","","","","","","",""
"","S2","","html-keyboard-response","437","546846","0.0-1.0-598.0","0","0","18045","","null","","","null","66","","NaN","","","","","","","","","","","","","",""
"","response","","html-keyboard-response","438","547559","0.0-1.0-599.0-0.0","0","0","18045","","709","","","68","66","","","2","66","training","adjacent","BC","2","3","Q.jpg","R.jpg","0","1","0","",""
"","feedback","","html-keyboard-response","439","548564","0.0-1.0-600.0-0.0","0","0","18045","","null","","","null","66","","","","","","","","","","","","","","","",""
"","time_out","","html-keyboard-response","440","550568","0.0-1.0-602.0-0.0","0","0","18045","","null","","","null","66","","","","","","","","","","","","","","","",""
"","ITI","","html-keyboard-response","441","551572","0.0-1.0-603.0","0","0","18045","","null","","","null","66","","","","","","","","","","","","","","","NaN",""
"","S1","","html-keyboard-response","442","551827","0.0-1.0-605.0","0","0","18045","","null","","","null","67","","","","","","","","","","","","","","","",""
"","ISI","","html-keyboard-response","443","552832","0.0-1.0-606.0","0","0","18045","","null","","","null","67","NaN","","","","","","","","","","","","","","",""
"","S2","","html-keyboard-response","444","553086","0.0-1.0-607.0","0","0","18045","","null","","","null","67","","NaN","","","","","","","","","","","","","",""
"","response","","html-keyboard-response","445","553404","0.0-1.0-608.0-0.0","0","0","18045","","315","","","75","67","","","2","67","training","adjacent","GF","7","6","L.jpg","O.jpg","1","0","0","",""
"","feedback","","html-keyboard-response","446","554410","0.0-1.0-609.0-0.0","0","0","18045","","null","","","null","67","","","","","","","","","","","","","","","",""
"","time_out","","html-keyboard-response","447","556414","0.0-1.0-611.0-0.0","0","0","18045","","null","","","null","67","","","","","","","","","","","","","","","",""
"","ITI","","html-keyboard-response","448","557419","0.0-1.0-612.0","0","0","18045","","null","","","null","67","","","","","","","","","","","","","","","NaN",""
"","S1","","html-keyboard-response","449","557673","0.0-1.0-614.0","0","0","18045","","null","","","null","68","","","","","","","","","","","","","","","",""
"","ISI","","html-keyboard-response","450","558677","0.0-1.0-615.0","0","0","18045","","null","","","null","68","NaN","","","","","","","","","","","","","","",""
"","S2","","html-keyboard-response","451","558931","0.0-1.0-616.0","0","0","18045","","null","","","null","68","","NaN","","","","","","","","","","","","","",""
"","response","","html-keyboard-response","452","559645","0.0-1.0-617.0-0.0","0","0","18045","","711","","","68","68","","","2","68","training","adjacent","BA","2","1","Q.jpg","P.jpg","0","0","1","",""
"","feedback","","html-keyboard-response","453","560660","0.0-1.0-618.0-0.0","0","0","18045","","null","","","null","68","","","","","","","","","","","","","","","",""
"","ITI","","html-keyboard-response","454","561664","0.0-1.0-621.0","0","0","18045","","null","","","null","68","","","","","","","","","","","","","","","NaN",""
"","S1","","html-keyboard-response","455","561918","0.0-1.0-623.0","0","0","18045","","null","","","null","69","","","","","","","","","","","","","","","",""
"","ISI","","html-keyboard-response","456","562922","0.0-1.0-624.0","0","0","18045","","null","","","null","69","NaN","","","","","","","","","","","","","","",""
"","S2","","html-keyboard-response","457","563176","0.0-1.0-625.0","0","0","18045","","null","","","null","69","","NaN","","","","","","","","","","","","","",""
"","response","","html-keyboard-response","458","563848","0.0-1.0-626.0-0.0","0","0","18045","","667","","","68","69","","","2","69","training","adjacent","DE","4","5","N.jpg","M.jpg","0","1","0","",""
"","feedback","","html-keyboard-response","459","564853","0.0-1.0-627.0-0.0","0","0","18045","","null","","","null","69","","","","","","","","","","","","","","","",""
"","time_out","","html-keyboard-response","460","566857","0.0-1.0-629.0-0.0","0","0","18045","","null","","","null","69","","","","","","","","","","","","","","","",""
"","ITI","","html-keyboard-response","461","567861","0.0-1.0-630.0","0","0","18045","","null","","","null","69","","","","","","","","","","","","","","","NaN",""
"","S1","","html-keyboard-response","462","568115","0.0-1.0-632.0","0","0","18045","","null","","","null","70","","","","","","","","","","","","","","","",""
"","ISI","","html-keyboard-response","463","569118","0.0-1.0-633.0","0","0","18045","","null","","","null","70","NaN","","","","","","","","","","","","","","",""
"","S2","","html-keyboard-response","464","569373","0.0-1.0-634.0","0","0","18045","","null","","","null","70","","NaN","","","","","","","","","","","","","",""
"","response","","html-keyboard-response","465","569868","0.0-1.0-635.0-0.0","0","0","18045","","491","","","75","70","","","2","70","training","adjacent","AB","1","2","P.jpg","Q.jpg","1","1","1","",""
"","feedback","","html-keyboard-response","466","570872","0.0-1.0-636.0-0.0","0","0","18045","","null","","","null","70","","","","","","","","","","","","","","","",""
"","ITI","","html-keyboard-response","467","571877","0.0-1.0-639.0","0","0","18045","","null","","","null","70","","","","","","","","","","","","","","","NaN",""
"","S1","","html-keyboard-response","468","572131","0.0-1.0-641.0","0","0","18045","","null","","","null","71","","","","","","","","","","","","","","","",""
"","ISI","","html-keyboard-response","469","573134","0.0-1.0-642.0","0","0","18045","","null","","","null","71","NaN","","","","","","","","","","","","","","",""
"","S2","","html-keyboard-response","470","573389","0.0-1.0-643.0","0","0","18045","","null","","","null","71","","NaN","","","","","","","","","","","","","",""
"","response","","html-keyboard-response","471","573780","0.0-1.0-644.0-0.0","0","0","18045","","388","","","75","71","","","2","71","training","adjacent","AB","1","2","P.jpg","Q.jpg","1","1","1","",""
"","feedback","","html-keyboard-response","472","574786","0.0-1.0-645.0-0.0","0","0","18045","","null","","","null","71","","","","","","","","","","","","","","","",""
"","ITI","","html-keyboard-response","473","575790","0.0-1.0-648.0","0","0","18045","","null","","","null","71","","","","","","","","","","","","","","","NaN",""
"","S1","","html-keyboard-response","474","576044","0.0-1.0-650.0","0","0","18045","","null","","","null","72","","","","","","","","","","","","","","","",""
"","ISI","","html-keyboard-response","475","577048","0.0-1.0-651.0","0","0","18045","","null","","","null","72","NaN","","","","","","","","","","","","","","",""
"","S2","","html-keyboard-response","476","577302","0.0-1.0-652.0","0","0","18045","","null","","","null","72","","NaN","","","","","","","","","","","","","",""
"","response","","html-keyboard-response","477","577663","0.0-1.0-653.0-0.0","0","0","18045","","357","","","75","72","","","2","72","training","adjacent","DE","4","5","N.jpg","M.jpg","1","1","1","",""
"","feedback","","html-keyboard-response","478","578668","0.0-1.0-654.0-0.0","0","0","18045","","null","","","null","72","","","","","","","","","","","","","","","",""
"","ITI","","html-keyboard-response","479","579673","0.0-1.0-657.0","0","0","18045","","null","","","null","72","","","","","","","","","","","","","","","NaN",""
"","S1","","html-keyboard-response","480","579928","0.0-1.0-659.0","0","0","18045","","null","","","null","73","","","","","","","","","","","","","","","",""
"","ISI","","html-keyboard-response","481","580931","0.0-1.0-660.0","0","0","18045","","null","","","null","73","NaN","","","","","","","","","","","","","","",""
"","S2","","html-keyboard-response","482","581186","0.0-1.0-661.0","0","0","18045","","null","","","null","73","","NaN","","","","","","","","","","","","","",""
"","response","","html-keyboard-response","483","581966","0.0-1.0-662.0-0.0","0","0","18045","","776","","","68","73","","","2","73","training","adjacent","DC","4","3","N.jpg","R.jpg","0","0","1","",""
"","feedback","","html-keyboard-response","484","582969","0.0-1.0-663.0-0.0","0","0","18045","","null","","","null","73","","","","","","","","","","","","","","","",""
"","ITI","","html-keyboard-response","485","583973","0.0-1.0-666.0","0","0","18045","","null","","","null","73","","","","","","","","","","","","","","","NaN",""
"","S1","","html-keyboard-response","486","584227","0.0-1.0-668.0","0","0","18045","","null","","","null","74","","","","","","","","","","","","","","","",""
"","ISI","","html-keyboard-response","487","585231","0.0-1.0-669.0","0","0","18045","","null","","","null","74","NaN","","","","","","","","","","","","","","",""
"","S2","","html-keyboard-response","488","585485","0.0-1.0-670.0","0","0","18045","","null","","","null","74","","NaN","","","","","","","","","","","","","",""
"","response","","html-keyboard-response","489","585827","0.0-1.0-671.0-0.0","0","0","18045","","336","","","75","74","","","2","74","training","adjacent","CB","3","2","R.jpg","Q.jpg","1","0","0","",""
"","feedback","","html-keyboard-response","490","586831","0.0-1.0-672.0-0.0","0","0","18045","","null","","","null","74","","","","","","","","","","","","","","","",""
"","time_out","","html-keyboard-response","491","588837","0.0-1.0-674.0-0.0","0","0","18045","","null","","","null","74","","","","","","","","","","","","","","","",""
"","ITI","","html-keyboard-response","492","589841","0.0-1.0-675.0","0","0","18045","","null","","","null","74","","","","","","","","","","","","","","","NaN",""
"","S1","","html-keyboard-response","493","590095","0.0-1.0-677.0","0","0","18045","","null","","","null","75","","","","","","","","","","","","","","","",""
"","ISI","","html-keyboard-response","494","591099","0.0-1.0-678.0","0","0","18045","","null","","","null","75","NaN","","","","","","","","","","","","","","",""
"","S2","","html-keyboard-response","495","591352","0.0-1.0-679.0","0","0","18045","","null","","","null","75","","NaN","","","","","","","","","","","","","",""
"","response","","html-keyboard-response","496","592144","0.0-1.0-680.0-0.0","0","0","18045","","787","","","68","75","","","2","75","training","adjacent","AB","1","2","P.jpg","Q.jpg","0","1","0","",""
"","feedback","","html-keyboard-response","497","593149","0.0-1.0-681.0-0.0","0","0","18045","","null","","","null","75","","","","","","","","","","","","","","","",""
"","time_out","","html-keyboard-response","498","595153","0.0-1.0-683.0-0.0","0","0","18045","","null","","","null","75","","","","","","","","","","","","","","","",""
"","ITI","","html-keyboard-response","499","596156","0.0-1.0-684.0","0","0","18045","","null","","","null","75","","","","","","","","","","","","","","","NaN",""
"","S1","","html-keyboard-response","500","596411","0.0-1.0-686.0","0","0","18045","","null","","","null","76","","","","","","","","","","","","","","","",""
"","ISI","","html-keyboard-response","501","597415","0.0-1.0-687.0","0","0","18045","","null","","","null","76","NaN","","","","","","","","","","","","","","",""
"","S2","","html-keyboard-response","502","597669","0.0-1.0-688.0","0","0","18045","","null","","","null","76","","NaN","","","","","","","","","","","","","",""
"","response","","html-keyboard-response","503","598315","0.0-1.0-689.0-0.0","0","0","18045","","642","","","68","76","","","2","76","training","adjacent","BC","2","3","Q.jpg","R.jpg","0","1","0","",""
"","feedback","","html-keyboard-response","504","599320","0.0-1.0-690.0-0.0","0","0","18045","","null","","","null","76","","","","","","","","","","","","","","","",""
"","time_out","","html-keyboard-response","505","601324","0.0-1.0-692.0-0.0","0","0","18045","","null","","","null","76","","","","","","","","","","","","","","","",""
"","ITI","","html-keyboard-response","506","602328","0.0-1.0-693.0","0","0","18045","","null","","","null","76","","","","","","","","","","","","","","","NaN",""
"","S1","","html-keyboard-response","507","602582","0.0-1.0-695.0","0","0","18045","","null","","","null","77","","","","","","","","","","","","","","","",""
"","ISI","","html-keyboard-response","508","603586","0.0-1.0-696.0","0","0","18045","","null","","","null","77","NaN","","","","","","","","","","","","","","",""
"","S2","","html-keyboard-response","509","603841","0.0-1.0-697.0","0","0","18045","","null","","","null","77","","NaN","","","","","","","","","","","","","",""
"","response","","html-keyboard-response","510","604772","0.0-1.0-698.0-0.0","0","0","18045","","927","","","75","77","","","2","77","training","adjacent","CB","3","2","R.jpg","Q.jpg","1","0","0","",""
"","feedback","","html-keyboard-response","511","605777","0.0-1.0-699.0-0.0","0","0","18045","","null","","","null","77","","","","","","","","","","","","","","","",""
"","time_out","","html-keyboard-response","512","607781","0.0-1.0-701.0-0.0","0","0","18045","","null","","","null","77","","","","","","","","","","","","","","","",""
"","ITI","","html-keyboard-response","513","608784","0.0-1.0-702.0","0","0","18045","","null","","","null","77","","","","","","","","","","","","","","","NaN",""
"","S1","","html-keyboard-response","514","609039","0.0-1.0-704.0","0","0","18045","","null","","","null","78","","","","","","","","","","","","","","","",""
"","ISI","","html-keyboard-response","515","610042","0.0-1.0-705.0","0","0","18045","","null","","","null","78","NaN","","","","","","","","","","","","","","",""
"","S2","","html-keyboard-response","516","610297","0.0-1.0-706.0","0","0","18045","","null","","","null","78","","NaN","","","","","","","","","","","","","",""
"","response","","html-keyboard-response","517","610721","0.0-1.0-707.0-0.0","0","0","18045","","420","","","68","78","","","2","78","training","adjacent","FE","6","5","O.jpg","M.jpg","0","0","1","",""
"","feedback","","html-keyboard-response","518","611725","0.0-1.0-708.0-0.0","0","0","18045","","null","","","null","78","","","","","","","","","","","","","","","",""
"","ITI","","html-keyboard-response","519","612730","0.0-1.0-711.0","0","0","18045","","null","","","null","78","","","","","","","","","","","","","","","NaN",""
"","S1","","html-keyboard-response","520","612983","0.0-1.0-713.0","0","0","18045","","null","","","null","79","","","","","","","","","","","","","","","",""
"","ISI","","html-keyboard-response","521","613987","0.0-1.0-714.0","0","0","18045","","null","","","null","79","NaN","","","","","","","","","","","","","","",""
"","S2","","html-keyboard-response","522","614241","0.0-1.0-715.0","0","0","18045","","null","","","null","79","","NaN","","","","","","","","","","","","","",""
"","response","","html-keyboard-response","523","614626","0.0-1.0-716.0-0.0","0","0","18045","","381","","","75","79","","","2","79","training","adjacent","DE","4","5","N.jpg","M.jpg","1","1","1","",""
"","feedback","","html-keyboard-response","524","615632","0.0-1.0-717.0-0.0","0","0","18045","","null","","","null","79","","","","","","","","","","","","","","","",""
"","ITI","","html-keyboard-response","525","616637","0.0-1.0-720.0","0","0","18045","","null","","","null","79","","","","","","","","","","","","","","","NaN",""
"","S1","","html-keyboard-response","526","616890","0.0-1.0-722.0","0","0","18045","","null","","","null","80","","","","","","","","","","","","","","","",""
"","ISI","","html-keyboard-response","527","617894","0.0-1.0-723.0","0","0","18045","","null","","","null","80","NaN","","","","","","","","","","","","","","",""
"","S2","","html-keyboard-response","528","618148","0.0-1.0-724.0","0","0","18045","","null","","","null","80","","NaN","","","","","","","","","","","","","",""
"","response","","html-keyboard-response","529","618682","0.0-1.0-725.0-0.0","0","0","18045","","530","","","75","80","","","2","80","training","adjacent","FG","6","7","O.jpg","L.jpg","1","1","1","",""
"","feedback","","html-keyboard-response","530","619685","0.0-1.0-726.0-0.0","0","0","18045","","null","","","null","80","","","","","","","","","","","","","","","",""
"","ITI","","html-keyboard-response","531","620690","0.0-1.0-729.0","0","0","18045","","null","","","null","80","","","","","","","","","","","","","","","NaN",""
"","S1","","html-keyboard-response","532","620945","0.0-1.0-731.0","0","0","18045","","null","","","null","81","","","","","","","","","","","","","","","",""
"","ISI","","html-keyboard-response","533","621948","0.0-1.0-732.0","0","0","18045","","null","","","null","81","NaN","","","","","","","","","","","","","","",""
"","S2","","html-keyboard-response","534","622203","0.0-1.0-733.0","0","0","18045","","null","","","null","81","","NaN","","","","","","","","","","","","","",""
"","response","","html-keyboard-response","535","622992","0.0-1.0-734.0-0.0","0","0","18045","","786","","","68","81","","","2","81","training","adjacent","BA","2","1","Q.jpg","P.jpg","0","0","1","",""
"","feedback","","html-keyboard-response","536","623999","0.0-1.0-735.0-0.0","0","0","18045","","null","","","null","81","","","","","","","","","","","","","","","",""
"","ITI","","html-keyboard-response","537","625006","0.0-1.0-738.0","0","0","18045","","null","","","null","81","","","","","","","","","","","","","","","NaN",""
"","S1","","html-keyboard-response","538","625259","0.0-1.0-740.0","0","0","18045","","null","","","null","82","","","","","","","","","","","","","","","",""
"","ISI","","html-keyboard-response","539","626263","0.0-1.0-741.0","0","0","18045","","null","","","null","82","NaN","","","","","","","","","","","","","","",""
"","S2","","html-keyboard-response","540","626518","0.0-1.0-742.0","0","0","18045","","null","","","null","82","","NaN","","","","","","","","","","","","","",""
"","response","","html-keyboard-response","541","626876","0.0-1.0-743.0-0.0","0","0","18045","","355","","","68","82","","","2","82","training","adjacent","BA","2","1","Q.jpg","P.jpg","0","0","1","",""
"","feedback","","html-keyboard-response","542","627880","0.0-1.0-744.0-0.0","0","0","18045","","null","","","null","82","","","","","","","","","","","","","","","",""
"","ITI","","html-keyboard-response","543","628884","0.0-1.0-747.0","0","0","18045","","null","","","null","82","","","","","","","","","","","","","","","NaN",""
"","S1","","html-keyboard-response","544","629139","0.0-1.0-749.0","0","0","18045","","null","","","null","83","","","","","","","","","","","","","","","",""
"","ISI","","html-keyboard-response","545","630142","0.0-1.0-750.0","0","0","18045","","null","","","null","83","NaN","","","","","","","","","","","","","","",""
"","S2","","html-keyboard-response","546","630397","0.0-1.0-751.0","0","0","18045","","null","","","null","83","","NaN","","","","","","","","","","","","","",""
"","response","","html-keyboard-response","547","631232","0.0-1.0-752.0-0.0","0","0","18045","","831","","","75","83","","","2","83","training","adjacent","ED","5","4","M.jpg","N.jpg","1","0","0","",""
"","feedback","","html-keyboard-response","548","632237","0.0-1.0-753.0-0.0","0","0","18045","","null","","","null","83","","","","","","","","","","","","","","","",""
"","time_out","","html-keyboard-response","549","634242","0.0-1.0-755.0-0.0","0","0","18045","","null","","","null","83","","","","","","","","","","","","","","","",""
"","ITI","","html-keyboard-response","550","635245","0.0-1.0-756.0","0","0","18045","","null","","","null","83","","","","","","","","","","","","","","","NaN",""
"","S1","","html-keyboard-response","551","635500","0.0-1.0-758.0","0","0","18045","","null","","","null","84","","","","","","","","","","","","","","","",""
"","ISI","","html-keyboard-response","552","636503","0.0-1.0-759.0","0","0","18045","","null","","","null","84","NaN","","","","","","","","","","","","","","",""
"","S2","","html-keyboard-response","553","636758","0.0-1.0-760.0","0","0","18045","","null","","","null","84","","NaN","","","","","","","","","","","","","",""
"","response","","html-keyboard-response","554","637314","0.0-1.0-761.0-0.0","0","0","18045","","553","","","68","84","","","2","84","training","adjacent","EF","5","6","M.jpg","O.jpg","0","1","0","",""
"","feedback","","html-keyboard-response","555","638318","0.0-1.0-762.0-0.0","0","0","18045","","null","","","null","84","","","","","","","","","","","","","","","",""
"","time_out","","html-keyboard-response","556","640323","0.0-1.0-764.0-0.0","0","0","18045","","null","","","null","84","","","","","","","","","","","","","","","",""
"","ITI","","html-keyboard-response","557","641327","0.0-1.0-765.0","0","0","18045","","null","","","null","84","","","","","","","","","","","","","","","NaN",""
"","S1","","html-keyboard-response","558","641581","0.0-1.0-767.0","0","0","18045","","null","","","null","85","","","","","","","","","","","","","","","",""
"","ISI","","html-keyboard-response","559","642584","0.0-1.0-768.0","0","0","18045","","null","","","null","85","NaN","","","","","","","","","","","","","","",""
"","S2","","html-keyboard-response","560","642839","0.0-1.0-769.0","0","0","18045","","null","","","null","85","","NaN","","","","","","","","","","","","","",""
"","response","","html-keyboard-response","561","643355","0.0-1.0-770.0-0.0","0","0","18045","","513","","","75","85","","","2","85","training","adjacent","EF","5","6","M.jpg","O.jpg","1","1","1","",""
"","feedback","","html-keyboard-response","562","644360","0.0-1.0-771.0-0.0","0","0","18045","","null","","","null","85","","","","","","","","","","","","","","","",""
"","ITI","","html-keyboard-response","563","645364","0.0-1.0-774.0","0","0","18045","","null","","","null","85","","","","","","","","","","","","","","","NaN",""
"","S1","","html-keyboard-response","564","645619","0.0-1.0-776.0","0","0","18045","","null","","","null","86","","","","","","","","","","","","","","","",""
"","ISI","","html-keyboard-response","565","646623","0.0-1.0-777.0","0","0","18045","","null","","","null","86","NaN","","","","","","","","","","","","","","",""
"","S2","","html-keyboard-response","566","646877","0.0-1.0-778.0","0","0","18045","","null","","","null","86","","NaN","","","","","","","","","","","","","",""
"","response","","html-keyboard-response","567","647074","0.0-1.0-779.0-0.0","0","0","18045","","193","","","75","86","","","2","86","training","adjacent","DC","4","3","N.jpg","R.jpg","1","0","0","",""
"","feedback","","html-keyboard-response","568","648079","0.0-1.0-780.0-0.0","0","0","18045","","null","","","null","86","","","","","","","","","","","","","","","",""
"","time_out","","html-keyboard-response","569","650084","0.0-1.0-782.0-0.0","0","0","18045","","null","","","null","86","","","","","","","","","","","","","","","",""
"","ITI","","html-keyboard-response","570","651089","0.0-1.0-783.0","0","0","18045","","null","","","null","86","","","","","","","","","","","","","","","NaN",""
"","S1","","html-keyboard-response","571","651343","0.0-1.0-785.0","0","0","18045","","null","","","null","87","","","","","","","","","","","","","","","",""
"","ISI","","html-keyboard-response","572","652347","0.0-1.0-786.0","0","0","18045","","null","","","null","87","NaN","","","","","","","","","","","","","","",""
"","S2","","html-keyboard-response","573","652602","0.0-1.0-787.0","0","0","18045","","null","","","null","87","","NaN","","","","","","","","","","","","","",""
"","response","","html-keyboard-response","574","653632","0.0-1.0-788.0-0.0","0","0","18045","","1027","","","75","87","","","2","87","training","adjacent","CB","3","2","R.jpg","Q.jpg","1","0","0","",""
"","feedback","","html-keyboard-response","575","654638","0.0-1.0-789.0-0.0","0","0","18045","","null","","","null","87","","","","","","","","","","","","","","","",""
"","time_out","","html-keyboard-response","576","656643","0.0-1.0-791.0-0.0","0","0","18045","","null","","","null","87","","","","","","","","","","","","","","","",""
"","ITI","","html-keyboard-response","577","657661","0.0-1.0-792.0","0","0","18045","","null","","","null","87","","","","","","","","","","","","","","","NaN",""
"","S1","","html-keyboard-response","578","657915","0.0-1.0-794.0","0","0","18045","","null","","","null","88","","","","","","","","","","","","","","","",""
