"success","ttype","start_time","trial_type","trial_index","time_elapsed","internal_node_id","warning","missed_checkup","PID","view_history","rt","responses","repeat_instructions","key_press","index","keypress_isi","keypress_S2","block","trial_num","phase","group_type","pair_type","S1_stim","S2_stim","S1_img","S2_img","S1_chosen","S1_higher","accuracy","keypress_iti","total_bonus_tally"
"true","full_screen","d04142023hr0314","fullscreen","0","11325","0.0-0.0","0","0","86668","","","","","","","","","","","","","","","","","","","","","",""
"","instructions","","instructions","1","62941","0.0-1.0-0.0-0.0","0","0","86668","[{""page_index"":0,""viewing_time"":7364},{""page_index"":1,""viewing_time"":25345},{""page_index"":2,""viewing_time"":16415},{""page_index"":3,""viewing_time"":2488}]","51613","","","","","","","","","","","","","","","","","","","",""
"","comprehension_check","","survey-multi-choice","2","85292","0.0-1.0-0.0-1.0","0","0","86668","","22346","{""Q0"":""True"",""Q1"":""D"",""Q2"":""Only when the screen 'MAKE A CHOICE' is shown"",""Q3"":""Green mark"",""Q4"":""either D or K""}","1","","","","","","","","","","","","","","","","","",""
"","missed_instruction_checkup","","html-keyboard-response","3","88462","0.0-1.0-0.0-2.0-0.0","0","1","86668","","3167","","","32","","","","","","","","","","","","","","","","",""
"","instructions","","instructions","4","121976","0.0-1.0-0.1-0.1","0","0","86668","[{""page_index"":0,""viewing_time"":3938},{""page_index"":1,""viewing_time"":26772},{""page_index"":2,""viewing_time"":1416},{""page_index"":3,""viewing_time"":1386}]","33512","","","","","","","","","","","","","","","","","","","",""
"","comprehension_check","","survey-multi-choice","5","143736","0.0-1.0-0.1-1.1","0","0","86668","","21754","{""Q0"":""True"",""Q1"":""D"",""Q2"":""Once the second image appears and while the screen 'MAKE A CHOICE' is shown"",""Q3"":""Green mark"",""Q4"":""either D or K""}","0","","","","","","","","","","","","","","","","","",""
"","start_exp","","html-keyboard-response","6","146043","0.0-1.0-1.0","0","0","86668","","2305","","","32","","","","","","","","","","","","","","","","",""
"","S1","","html-keyboard-response","7","146307","0.0-1.0-2.0","0","0","86668","","null","","","null","0","","","","","","","","","","","","","","","",""
"","ISI","","html-keyboard-response","8","147311","0.0-1.0-3.0","0","0","86668","","null","","","null","0","NaN","","","","","","","","","","","","","","",""
"","S2","","html-keyboard-response","9","147567","0.0-1.0-4.0","0","0","86668","","null","","","null","0","","NaN","","","","","","","","","","","","","",""
"","response","","html-keyboard-response","10","148547","0.0-1.0-5.0-0.0","0","0","86668","","978","","","68","0","","","1","0","training","adjacent","FE","6","5","O.jpg","L.jpg","1","0","0","",""
"","feedback","","html-keyboard-response","11","149558","0.0-1.0-6.0-0.0","0","0","86668","","null","","","null","0","","","","","","","","","","","","","","","",""
"","time_out","","html-keyboard-response","12","151567","0.0-1.0-8.0-0.0","0","0","86668","","null","","","null","0","","","","","","","","","","","","","","","",""
"","ITI","","html-keyboard-response","13","152575","0.0-1.0-9.0","0","0","86668","","null","","","null","0","","","","","","","","","","","","","","","NaN",""
"","S1","","html-keyboard-response","14","152831","0.0-1.0-11.0","0","0","86668","","null","","","null","1","","","","","","","","","","","","","","","",""
"","ISI","","html-keyboard-response","15","153841","0.0-1.0-12.0","0","0","86668","","null","","","null","1","NaN","","","","","","","","","","","","","","",""
"","S2","","html-keyboard-response","16","154103","0.0-1.0-13.0","0","0","86668","","null","","","null","1","","NaN","","","","","","","","","","","","","",""
"","response","","html-keyboard-response","17","154708","0.0-1.0-14.0-0.0","0","0","86668","","603","","","75","1","","","1","1","training","adjacent","BC","2","3","M.jpg","R.jpg","0","1","0","",""
"","feedback","","html-keyboard-response","18","155722","0.0-1.0-15.0-0.0","0","0","86668","","null","","","null","1","","","","","","","","","","","","","","","",""
"","time_out","","html-keyboard-response","19","157727","0.0-1.0-17.0-0.0","0","0","86668","","null","","","null","1","","","","","","","","","","","","","","","",""
"","ITI","","html-keyboard-response","20","158735","0.0-1.0-18.0","0","0","86668","","null","","","null","1","","","","","","","","","","","","","","","NaN",""
"","S1","","html-keyboard-response","21","158990","0.0-1.0-20.0","0","0","86668","","null","","","null","2","","","","","","","","","","","","","","","",""
"","ISI","","html-keyboard-response","22","159999","0.0-1.0-21.0","0","0","86668","","null","","","null","2","NaN","","","","","","","","","","","","","","",""
"","S2","","html-keyboard-response","23","160255","0.0-1.0-22.0","0","0","86668","","null","","","null","2","","NaN","","","","","","","","","","","","","",""
"","response","","html-keyboard-response","24","160627","0.0-1.0-23.0-0.0","0","0","86668","","370","","","68","2","","","1","2","training","adjacent","FG","6","7","O.jpg","Q.jpg","1","1","1","",""
"","feedback","","html-keyboard-response","25","161637","0.0-1.0-24.0-0.0","0","0","86668","","null","","","null","2","","","","","","","","","","","","","","","",""
"","ITI","","html-keyboard-response","26","162646","0.0-1.0-27.0","0","0","86668","","null","","","null","2","","","","","","","","","","","","","","","NaN",""
"","S1","","html-keyboard-response","27","162902","0.0-1.0-29.0","0","0","86668","","null","","","null","3","","","","","","","","","","","","","","","",""
"","ISI","","html-keyboard-response","28","163913","0.0-1.0-30.0","0","0","86668","","null","","","null","3","NaN","","","","","","","","","","","","","","",""
"","S2","","html-keyboard-response","29","164174","0.0-1.0-31.0","0","0","86668","","null","","","null","3","","NaN","","","","","","","","","","","","","",""
"","response","","html-keyboard-response","30","164402","0.0-1.0-32.0-0.0","0","0","86668","","226","","","68","3","","","1","3","training","adjacent","FG","6","7","O.jpg","Q.jpg","1","1","1","",""
"","feedback","","html-keyboard-response","31","165406","0.0-1.0-33.0-0.0","0","0","86668","","null","","","null","3","","","","","","","","","","","","","","","",""
"","ITI","","html-keyboard-response","32","166415","0.0-1.0-36.0","0","0","86668","","null","","","null","3","","","","","","","","","","","","","","","NaN",""
"","S1","","html-keyboard-response","33","166670","0.0-1.0-38.0","0","0","86668","","null","","","null","4","","","","","","","","","","","","","","","",""
"","ISI","","html-keyboard-response","34","167679","0.0-1.0-39.0","0","0","86668","","null","","","null","4","NaN","","","","","","","","","","","","","","",""
"","S2","","html-keyboard-response","35","167935","0.0-1.0-40.0","0","0","86668","","null","","","null","4","","NaN","","","","","","","","","","","","","",""
"","response","","html-keyboard-response","36","168322","0.0-1.0-41.0-0.0","0","0","86668","","385","","","75","4","","","1","4","training","adjacent","ED","5","4","L.jpg","P.jpg","0","0","1","",""
"","feedback","","html-keyboard-response","37","169326","0.0-1.0-42.0-0.0","0","0","86668","","null","","","null","4","","","","","","","","","","","","","","","",""
"","ITI","","html-keyboard-response","38","170333","0.0-1.0-45.0","0","0","86668","","null","","","null","4","","","","","","","","","","","","","","","NaN",""
"","S1","","html-keyboard-response","39","170590","0.0-1.0-47.0","0","0","86668","","null","","","null","5","","","","","","","","","","","","","","","",""
"","ISI","","html-keyboard-response","40","171598","0.0-1.0-48.0","0","0","86668","","null","","","null","5","NaN","","","","","","","","","","","","","","",""
"","S2","","html-keyboard-response","41","171854","0.0-1.0-49.0","0","0","86668","","null","","","null","5","","NaN","","","","","","","","","","","","","",""
"","response","","html-keyboard-response","42","172170","0.0-1.0-50.0-0.0","0","0","86668","","314","","","68","5","","","1","5","training","adjacent","CD","3","4","R.jpg","P.jpg","1","1","1","",""
"","feedback","","html-keyboard-response","43","173177","0.0-1.0-51.0-0.0","0","0","86668","","null","","","null","5","","","","","","","","","","","","","","","",""
"","ITI","","html-keyboard-response","44","174181","0.0-1.0-54.0","0","0","86668","","null","","","null","5","","","","","","","","","","","","","","","NaN",""
"","S1","","html-keyboard-response","45","174437","0.0-1.0-56.0","0","0","86668","","null","","","null","6","","","","","","","","","","","","","","","",""
"","ISI","","html-keyboard-response","46","175447","0.0-1.0-57.0","0","0","86668","","null","","","null","6","NaN","","","","","","","","","","","","","","",""
"","S2","","html-keyboard-response","47","175702","0.0-1.0-58.0","0","0","86668","","null","","","null","6","","NaN","","","","","","","","","","","","","",""
"","response","","html-keyboard-response","48","175865","0.0-1.0-59.0-0.0","0","0","86668","","161","","","75","6","","","1","6","training","adjacent","AB","1","2","N.jpg","M.jpg","0","1","0","",""
"","feedback","","html-keyboard-response","49","176869","0.0-1.0-60.0-0.0","0","0","86668","","null","","","null","6","","","","","","","","","","","","","","","",""
"","time_out","","html-keyboard-response","50","178878","0.0-1.0-62.0-0.0","0","0","86668","","null","","","null","6","","","","","","","","","","","","","","","",""
"","ITI","","html-keyboard-response","51","179886","0.0-1.0-63.0","0","0","86668","","null","","","null","6","","","","","","","","","","","","","","","NaN",""
"","S1","","html-keyboard-response","52","180142","0.0-1.0-65.0","0","0","86668","","null","","","null","7","","","","","","","","","","","","","","","",""
"","ISI","","html-keyboard-response","53","181153","0.0-1.0-66.0","0","0","86668","","null","","","null","7","NaN","","","","","","","","","","","","","","",""
"","S2","","html-keyboard-response","54","181413","0.0-1.0-67.0","0","0","86668","","null","","","null","7","","NaN","","","","","","","","","","","","","",""
"","response","","html-keyboard-response","55","181611","0.0-1.0-68.0-0.0","0","0","86668","","196","","","68","7","","","1","7","training","adjacent","DC","4","3","P.jpg","R.jpg","1","0","0","",""
"","feedback","","html-keyboard-response","56","182622","0.0-1.0-69.0-0.0","0","0","86668","","null","","","null","7","","","","","","","","","","","","","","","",""
"","time_out","","html-keyboard-response","57","184630","0.0-1.0-71.0-0.0","0","0","86668","","null","","","null","7","","","","","","","","","","","","","","","",""
"","ITI","","html-keyboard-response","58","185640","0.0-1.0-72.0","0","0","86668","","null","","","null","7","","","","","","","","","","","","","","","NaN",""
"","S1","","html-keyboard-response","59","185894","0.0-1.0-74.0","0","0","86668","","null","","","null","8","","","","","","","","","","","","","","","",""
"","ISI","","html-keyboard-response","60","186902","0.0-1.0-75.0","0","0","86668","","null","","","null","8","NaN","","","","","","","","","","","","","","",""
"","S2","","html-keyboard-response","61","187161","0.0-1.0-76.0","0","0","86668","","null","","","null","8","","NaN","","","","","","","","","","","","","",""
"","response","","html-keyboard-response","62","187402","0.0-1.0-77.0-0.0","0","0","86668","","239","","","75","8","","","1","8","training","adjacent","ED","5","4","L.jpg","P.jpg","0","0","1","",""
"","feedback","","html-keyboard-response","63","188413","0.0-1.0-78.0-0.0","0","0","86668","","null","","","null","8","","","","","","","","","","","","","","","",""
"","ITI","","html-keyboard-response","64","189425","0.0-1.0-81.0","0","0","86668","","null","","","null","8","","","","","","","","","","","","","","","NaN",""
"","S1","","html-keyboard-response","65","189686","0.0-1.0-83.0","0","0","86668","","null","","","null","9","","","","","","","","","","","","","","","",""
"","ISI","","html-keyboard-response","66","190694","0.0-1.0-84.0","0","0","86668","","null","","","null","9","NaN","","","","","","","","","","","","","","",""
"","S2","","html-keyboard-response","67","190951","0.0-1.0-85.0","0","0","86668","","null","","","null","9","","NaN","","","","","","","","","","","","","",""
"","response","","html-keyboard-response","68","191210","0.0-1.0-86.0-0.0","0","0","86668","","257","","","75","9","","","1","9","training","adjacent","CB","3","2","R.jpg","M.jpg","0","0","1","",""
"","feedback","","html-keyboard-response","69","192217","0.0-1.0-87.0-0.0","0","0","86668","","null","","","null","9","","","","","","","","","","","","","","","",""
"","ITI","","html-keyboard-response","70","193221","0.0-1.0-90.0","0","0","86668","","null","","","null","9","","","","","","","","","","","","","","","NaN",""
"","S1","","html-keyboard-response","71","193476","0.0-1.0-92.0","0","0","86668","","null","","","null","10","","","","","","","","","","","","","","","",""
"","ISI","","html-keyboard-response","72","194486","0.0-1.0-93.0","0","0","86668","","null","","","null","10","NaN","","","","","","","","","","","","","","",""
"","S2","","html-keyboard-response","73","194742","0.0-1.0-94.0","0","0","86668","","null","","","null","10","","NaN","","","","","","","","","","","","","",""
"","response","","html-keyboard-response","74","194930","0.0-1.0-95.0-0.0","0","0","86668","","186","","","68","10","","","1","10","training","adjacent","CD","3","4","R.jpg","P.jpg","1","1","1","",""
"","feedback","","html-keyboard-response","75","195944","0.0-1.0-96.0-0.0","0","0","86668","","null","","","null","10","","","","","","","","","","","","","","","",""
"","ITI","","html-keyboard-response","76","196948","0.0-1.0-99.0","0","0","86668","","null","","","null","10","","","","","","","","","","","","","","","NaN",""
"","S1","","html-keyboard-response","77","197209","0.0-1.0-101.0","0","0","86668","","null","","","null","11","","","","","","","","","","","","","","","",""
"","ISI","","html-keyboard-response","78","198214","0.0-1.0-102.0","0","0","86668","","null","","","null","11","NaN","","","","","","","","","","","","","","",""
"","S2","","html-keyboard-response","79","198468","0.0-1.0-103.0","0","0","86668","","null","","","null","11","","NaN","","","","","","","","","","","","","",""
"","response","","html-keyboard-response","80","198617","0.0-1.0-104.0-0.0","0","0","86668","","147","","","68","11","","","1","11","training","adjacent","BA","2","1","M.jpg","N.jpg","1","0","0","",""
"","feedback","","html-keyboard-response","81","199623","0.0-1.0-105.0-0.0","0","0","86668","","null","","","null","11","","","","","","","","","","","","","","","",""
"","time_out","","html-keyboard-response","82","201632","0.0-1.0-107.0-0.0","0","0","86668","","null","","","null","11","","","","","","","","","","","","","","","",""
"","ITI","","html-keyboard-response","83","202636","0.0-1.0-108.0","0","0","86668","","null","","","null","11","","","","","","","","","","","","","","","NaN",""
"","S1","","html-keyboard-response","84","202892","0.0-1.0-110.0","0","0","86668","","null","","","null","12","","","","","","","","","","","","","","","",""
"","ISI","","html-keyboard-response","85","203901","0.0-1.0-111.0","0","0","86668","","null","","","null","12","NaN","","","","","","","","","","","","","","",""
"","S2","","html-keyboard-response","86","204157","0.0-1.0-112.0","0","0","86668","","null","","","null","12","","NaN","","","","","","","","","","","","","",""
"","response","","html-keyboard-response","87","204209","0.0-1.0-113.0-0.0","0","0","86668","","50","","","68","12","","","1","12","training","adjacent","FE","6","5","O.jpg","L.jpg","1","0","0","",""
"","feedback","","html-keyboard-response","88","205215","0.0-1.0-114.0-0.0","0","0","86668","","null","","","null","12","","","","","","","","","","","","","","","",""
"","time_out","","html-keyboard-response","89","207221","0.0-1.0-116.0-0.0","0","0","86668","","null","","","null","12","","","","","","","","","","","","","","","",""
"","ITI","","html-keyboard-response","90","208232","0.0-1.0-117.0","0","0","86668","","null","","","null","12","","","","","","","","","","","","","","","NaN",""
"","S1","","html-keyboard-response","91","208492","0.0-1.0-119.0","0","0","86668","","null","","","null","13","","","","","","","","","","","","","","","",""
"","ISI","","html-keyboard-response","92","209504","0.0-1.0-120.0","0","0","86668","","null","","","null","13","NaN","","","","","","","","","","","","","","",""
"","S2","","html-keyboard-response","93","209765","0.0-1.0-121.0","0","0","86668","","null","","","null","13","","NaN","","","","","","","","","","","","","",""
"","response","","html-keyboard-response","94","210002","0.0-1.0-122.0-0.0","0","0","86668","","235","","","75","13","","","1","13","training","adjacent","DE","4","5","P.jpg","L.jpg","0","1","0","",""
"","feedback","","html-keyboard-response","95","211013","0.0-1.0-123.0-0.0","0","0","86668","","null","","","null","13","","","","","","","","","","","","","","","",""
"","time_out","","html-keyboard-response","96","213021","0.0-1.0-125.0-0.0","0","0","86668","","null","","","null","13","","","","","","","","","","","","","","","",""
"","ITI","","html-keyboard-response","97","214031","0.0-1.0-126.0","0","0","86668","","null","","","null","13","","","","","","","","","","","","","","","NaN",""
"","S1","","html-keyboard-response","98","214285","0.0-1.0-128.0","0","0","86668","","null","","","null","14","","","","","","","","","","","","","","","",""
"","ISI","","html-keyboard-response","99","215293","0.0-1.0-129.0","0","0","86668","","null","","","null","14","NaN","","","","","","","","","","","","","","",""
"","S2","","html-keyboard-response","100","215552","0.0-1.0-130.0","0","0","86668","","null","","","null","14","","NaN","","","","","","","","","","","","","",""
"","response","","html-keyboard-response","101","215905","0.0-1.0-131.0-0.0","0","0","86668","","351","","","75","14","","","1","14","training","adjacent","BA","2","1","M.jpg","N.jpg","0","0","1","",""
"","feedback","","html-keyboard-response","102","216916","0.0-1.0-132.0-0.0","0","0","86668","","null","","","null","14","","","","","","","","","","","","","","","",""
"","ITI","","html-keyboard-response","103","217925","0.0-1.0-135.0","0","0","86668","","null","","","null","14","","","","","","","","","","","","","","","NaN",""
"","S1","","html-keyboard-response","104","218181","0.0-1.0-137.0","0","0","86668","","null","","","null","15","","","","","","","","","","","","","","","",""
"","ISI","","html-keyboard-response","105","219192","0.0-1.0-138.0","0","0","86668","","null","","","null","15","NaN","","","","","","","","","","","","","","",""
"","S2","","html-keyboard-response","106","219453","0.0-1.0-139.0","0","0","86668","","null","","","null","15","","NaN","","","","","","","","","","","","","",""
"","response","","html-keyboard-response","107","219808","0.0-1.0-140.0-0.0","0","0","86668","","353","","","68","15","","","1","15","training","adjacent","BC","2","3","M.jpg","R.jpg","1","1","1","",""
"","feedback","","html-keyboard-response","108","220811","0.0-1.0-141.0-0.0","0","0","86668","","null","","","null","15","","","","","","","","","","","","","","","",""
"","ITI","","html-keyboard-response","109","221821","0.0-1.0-144.0","0","0","86668","","null","","","null","15","","","","","","","","","","","","","","","NaN",""
"","S1","","html-keyboard-response","110","222076","0.0-1.0-146.0","0","0","86668","","null","","","null","16","","","","","","","","","","","","","","","",""
"","ISI","","html-keyboard-response","111","223087","0.0-1.0-147.0","0","0","86668","","null","","","null","16","NaN","","","","","","","","","","","","","","",""
"","S2","","html-keyboard-response","112","223348","0.0-1.0-148.0","0","0","86668","","null","","","null","16","","NaN","","","","","","","","","","","","","",""
"","response","","html-keyboard-response","113","223609","0.0-1.0-149.0-0.0","0","0","86668","","259","","","75","16","","","1","16","training","adjacent","DC","4","3","P.jpg","R.jpg","0","0","1","",""
"","feedback","","html-keyboard-response","114","224621","0.0-1.0-150.0-0.0","0","0","86668","","null","","","null","16","","","","","","","","","","","","","","","",""
"","ITI","","html-keyboard-response","115","225628","0.0-1.0-153.0","0","0","86668","","null","","","null","16","","","","","","","","","","","","","","","NaN",""
"","S1","","html-keyboard-response","116","225884","0.0-1.0-155.0","0","0","86668","","null","","","null","17","","","","","","","","","","","","","","","",""
"","ISI","","html-keyboard-response","117","226894","0.0-1.0-156.0","0","0","86668","","null","","","null","17","NaN","","","","","","","","","","","","","","",""
"","S2","","html-keyboard-response","118","227156","0.0-1.0-157.0","0","0","86668","","null","","","null","17","","NaN","","","","","","","","","","","","","",""
"","response","","html-keyboard-response","119","227455","0.0-1.0-158.0-0.0","0","0","86668","","297","","","68","17","","","1","17","training","adjacent","CB","3","2","R.jpg","M.jpg","1","0","0","",""
"","feedback","","html-keyboard-response","120","228462","0.0-1.0-159.0-0.0","0","0","86668","","null","","","null","17","","","","","","","","","","","","","","","",""
"","time_out","","html-keyboard-response","121","230470","0.0-1.0-161.0-0.0","0","0","86668","","null","","","null","17","","","","","","","","","","","","","","","",""
"","ITI","","html-keyboard-response","122","231475","0.0-1.0-162.0","0","0","86668","","null","","","null","17","","","","","","","","","","","","","","","NaN",""
"","S1","","html-keyboard-response","123","231732","0.0-1.0-164.0","0","0","86668","","null","","","null","18","","","","","","","","","","","","","","","",""
"","ISI","","html-keyboard-response","124","232742","0.0-1.0-165.0","0","0","86668","","null","","","null","18","NaN","","","","","","","","","","","","","","",""
"","S2","","html-keyboard-response","125","233007","0.0-1.0-166.0","0","0","86668","","null","","","null","18","","NaN","","","","","","","","","","","","","",""
"","response","","html-keyboard-response","126","233264","0.0-1.0-167.0-0.0","0","0","86668","","255","","","75","18","","","1","18","training","adjacent","EF","5","6","L.jpg","O.jpg","0","1","0","",""
"","feedback","","html-keyboard-response","127","234267","0.0-1.0-168.0-0.0","0","0","86668","","null","","","null","18","","","","","","","","","","","","","","","",""
"","time_out","","html-keyboard-response","128","236276","0.0-1.0-170.0-0.0","0","0","86668","","null","","","null","18","","","","","","","","","","","","","","","",""
"","ITI","","html-keyboard-response","129","237284","0.0-1.0-171.0","0","0","86668","","null","","","null","18","","","","","","","","","","","","","","","NaN",""
"","S1","","html-keyboard-response","130","237540","0.0-1.0-173.0","0","0","86668","","null","","","null","19","","","","","","","","","","","","","","","",""
"","ISI","","html-keyboard-response","131","238551","0.0-1.0-174.0","0","0","86668","","null","","","null","19","NaN","","","","","","","","","","","","","","",""
"","S2","","html-keyboard-response","132","238812","0.0-1.0-175.0","0","0","86668","","null","","","null","19","","NaN","","","","","","","","","","","","","",""
"","response","","html-keyboard-response","133","239129","0.0-1.0-176.0-0.0","0","0","86668","","315","","","68","19","","","1","19","training","adjacent","CB","3","2","R.jpg","M.jpg","1","0","0","",""
"","feedback","","html-keyboard-response","134","240140","0.0-1.0-177.0-0.0","0","0","86668","","null","","","null","19","","","","","","","","","","","","","","","",""
"","time_out","","html-keyboard-response","135","242150","0.0-1.0-179.0-0.0","0","0","86668","","null","","","null","19","","","","","","","","","","","","","","","",""
"","ITI","","html-keyboard-response","136","243156","0.0-1.0-180.0","0","0","86668","","null","","","null","19","","","","","","","","","","","","","","","NaN",""
"","S1","","html-keyboard-response","137","243415","0.0-1.0-182.0","0","0","86668","","null","","","null","20","","","","","","","","","","","","","","","",""
"","ISI","","html-keyboard-response","138","244419","0.0-1.0-183.0","0","0","86668","","null","","","null","20","NaN","","","","","","","","","","","","","","",""
"","S2","","html-keyboard-response","139","244675","0.0-1.0-184.0","0","0","86668","","null","","","null","20","","NaN","","","","","","","","","","","","","",""
"","response","","html-keyboard-response","140","245016","0.0-1.0-185.0-0.0","0","0","86668","","339","","","75","20","","","1","20","training","adjacent","BC","2","3","M.jpg","R.jpg","0","1","0","",""
"","feedback","","html-keyboard-response","141","246027","0.0-1.0-186.0-0.0","0","0","86668","","null","","","null","20","","","","","","","","","","","","","","","",""
"","time_out","","html-keyboard-response","142","248036","0.0-1.0-188.0-0.0","0","0","86668","","null","","","null","20","","","","","","","","","","","","","","","",""
"","ITI","","html-keyboard-response","143","249046","0.0-1.0-189.0","0","0","86668","","null","","","null","20","","","","","","","","","","","","","","","NaN",""
"","S1","","html-keyboard-response","144","249300","0.0-1.0-191.0","0","0","86668","","null","","","null","21","","","","","","","","","","","","","","","",""
"","ISI","","html-keyboard-response","145","250311","0.0-1.0-192.0","0","0","86668","","null","","","null","21","NaN","","","","","","","","","","","","","","",""
"","S2","","html-keyboard-response","146","250571","0.0-1.0-193.0","0","0","86668","","null","","","null","21","","NaN","","","","","","","","","","","","","",""
"","response","","html-keyboard-response","147","250800","0.0-1.0-194.0-0.0","0","0","86668","","227","","","75","21","","","1","21","training","adjacent","AB","1","2","N.jpg","M.jpg","0","1","0","",""
"","feedback","","html-keyboard-response","148","251815","0.0-1.0-195.0-0.0","0","0","86668","","null","","","null","21","","","","","","","","","","","","","","","",""
"","time_out","","html-keyboard-response","149","253823","0.0-1.0-197.0-0.0","0","0","86668","","null","","","null","21","","","","","","","","","","","","","","","",""
"","ITI","","html-keyboard-response","150","254827","0.0-1.0-198.0","0","0","86668","","null","","","null","21","","","","","","","","","","","","","","","NaN",""
"","S1","","html-keyboard-response","151","255083","0.0-1.0-200.0","0","0","86668","","null","","","null","22","","","","","","","","","","","","","","","",""
"","ISI","","html-keyboard-response","152","256093","0.0-1.0-201.0","0","0","86668","","null","","","null","22","NaN","","","","","","","","","","","","","","",""
"","S2","","html-keyboard-response","153","256347","0.0-1.0-202.0","0","0","86668","","null","","","null","22","","NaN","","","","","","","","","","","","","",""
"","response","","html-keyboard-response","154","256599","0.0-1.0-203.0-0.0","0","0","86668","","250","","","75","22","","","1","22","training","adjacent","EF","5","6","L.jpg","O.jpg","0","1","0","",""
"","feedback","","html-keyboard-response","155","257602","0.0-1.0-204.0-0.0","0","0","86668","","null","","","null","22","","","","","","","","","","","","","","","",""
"","time_out","","html-keyboard-response","156","259611","0.0-1.0-206.0-0.0","0","0","86668","","null","","","null","22","","","","","","","","","","","","","","","",""
"","ITI","","html-keyboard-response","157","260620","0.0-1.0-207.0","0","0","86668","","null","","","null","22","","","","","","","","","","","","","","","NaN",""
"","S1","","html-keyboard-response","158","260875","0.0-1.0-209.0","0","0","86668","","null","","","null","23","","","","","","","","","","","","","","","",""
"","ISI","","html-keyboard-response","159","261886","0.0-1.0-210.0","0","0","86668","","null","","","null","23","NaN","","","","","","","","","","","","","","",""
"","S2","","html-keyboard-response","160","262147","0.0-1.0-211.0","0","0","86668","","null","","","null","23","","NaN","","","","","","","","","","","","","",""
"","response","","html-keyboard-response","161","262384","0.0-1.0-212.0-0.0","0","0","86668","","235","","","68","23","","","1","23","training","adjacent","CD","3","4","R.jpg","P.jpg","1","1","1","",""
"","feedback","","html-keyboard-response","162","263395","0.0-1.0-213.0-0.0","0","0","86668","","null","","","null","23","","","","","","","","","","","","","","","",""
"","ITI","","html-keyboard-response","163","264405","0.0-1.0-216.0","0","0","86668","","null","","","null","23","","","","","","","","","","","","","","","NaN",""
"","S1","","html-keyboard-response","164","264659","0.0-1.0-218.0","0","0","86668","","null","","","null","24","","","","","","","","","","","","","","","",""
"","ISI","","html-keyboard-response","165","265667","0.0-1.0-219.0","0","0","86668","","null","","","null","24","NaN","","","","","","","","","","","","","","",""
"","S2","","html-keyboard-response","166","265926","0.0-1.0-220.0","0","0","86668","","null","","","null","24","","NaN","","","","","","","","","","","","","",""
"","response","","html-keyboard-response","167","266271","0.0-1.0-221.0-0.0","0","0","86668","","343","","","68","24","","","1","24","training","adjacent","EF","5","6","L.jpg","O.jpg","1","1","1","",""
"","feedback","","html-keyboard-response","168","267279","0.0-1.0-222.0-0.0","0","0","86668","","null","","","null","24","","","","","","","","","","","","","","","",""
"","ITI","","html-keyboard-response","169","268283","0.0-1.0-225.0","0","0","86668","","null","","","null","24","","","","","","","","","","","","","","","NaN",""
"","S1","","html-keyboard-response","170","268538","0.0-1.0-227.0","0","0","86668","","null","","","null","25","","","","","","","","","","","","","","","",""
"","ISI","","html-keyboard-response","171","269548","0.0-1.0-228.0","0","0","86668","","null","","","null","25","NaN","","","","","","","","","","","","","","",""
"","S2","","html-keyboard-response","172","269803","0.0-1.0-229.0","0","0","86668","","null","","","null","25","","NaN","","","","","","","","","","","","","",""
"","response","","html-keyboard-response","173","270321","0.0-1.0-230.0-0.0","0","0","86668","","516","","","68","25","","","1","25","training","adjacent","DE","4","5","P.jpg","L.jpg","1","1","1","",""
"","feedback","","html-keyboard-response","174","271330","0.0-1.0-231.0-0.0","0","0","86668","","null","","","null","25","","","","","","","","","","","","","","","",""
"","ITI","","html-keyboard-response","175","272339","0.0-1.0-234.0","0","0","86668","","null","","","null","25","","","","","","","","","","","","","","","NaN",""
"","S1","","html-keyboard-response","176","272595","0.0-1.0-236.0","0","0","86668","","null","","","null","26","","","","","","","","","","","","","","","",""
"","ISI","","html-keyboard-response","177","273606","0.0-1.0-237.0","0","0","86668","","null","","","null","26","NaN","","","","","","","","","","","","","","",""
"","S2","","html-keyboard-response","178","273866","0.0-1.0-238.0","0","0","86668","","null","","","null","26","","NaN","","","","","","","","","","","","","",""
"","response","","html-keyboard-response","179","274143","0.0-1.0-239.0-0.0","0","0","86668","","275","","","68","26","","","1","26","training","adjacent","BA","2","1","M.jpg","N.jpg","1","0","0","",""
"","feedback","","html-keyboard-response","180","275155","0.0-1.0-240.0-0.0","0","0","86668","","null","","","null","26","","","","","","","","","","","","","","","",""
"","time_out","","html-keyboard-response","181","277163","0.0-1.0-242.0-0.0","0","0","86668","","null","","","null","26","","","","","","","","","","","","","","","",""
"","ITI","","html-keyboard-response","182","278174","0.0-1.0-243.0","0","0","86668","","null","","","null","26","","","","","","","","","","","","","","","NaN",""
"","S1","","html-keyboard-response","183","278435","0.0-1.0-245.0","0","0","86668","","null","","","null","27","","","","","","","","","","","","","","","",""
"","ISI","","html-keyboard-response","184","279446","0.0-1.0-246.0","0","0","86668","","null","","","null","27","NaN","","","","","","","","","","","","","","",""
"","S2","","html-keyboard-response","185","279707","0.0-1.0-247.0","0","0","86668","","null","","","null","27","","NaN","","","","","","","","","","","","","",""
"","response","","html-keyboard-response","186","280110","0.0-1.0-248.0-0.0","0","0","86668","","401","","","68","27","","","1","27","training","adjacent","CD","3","4","R.jpg","P.jpg","1","1","1","",""
"","feedback","","html-keyboard-response","187","281116","0.0-1.0-249.0-0.0","0","0","86668","","null","","","null","27","","","","","","","","","","","","","","","",""
"","ITI","","html-keyboard-response","188","282122","0.0-1.0-252.0","0","0","86668","","null","","","null","27","","","","","","","","","","","","","","","NaN",""
"","S1","","html-keyboard-response","189","282377","0.0-1.0-254.0","0","0","86668","","null","","","null","28","","","","","","","","","","","","","","","",""
"","ISI","","html-keyboard-response","190","283387","0.0-1.0-255.0","0","0","86668","","null","","","null","28","NaN","","","","","","","","","","","","","","",""
"","S2","","html-keyboard-response","191","283642","0.0-1.0-256.0","0","0","86668","","null","","","null","28","","NaN","","","","","","","","","","","","","",""
"","response","","html-keyboard-response","192","284134","0.0-1.0-257.0-0.0","0","0","86668","","490","","","68","28","","","1","28","training","adjacent","CB","3","2","R.jpg","M.jpg","1","0","0","",""
"","feedback","","html-keyboard-response","193","285139","0.0-1.0-258.0-0.0","0","0","86668","","null","","","null","28","","","","","","","","","","","","","","","",""
"","time_out","","html-keyboard-response","194","287148","0.0-1.0-260.0-0.0","0","0","86668","","null","","","null","28","","","","","","","","","","","","","","","",""
"","ITI","","html-keyboard-response","195","288153","0.0-1.0-261.0","0","0","86668","","null","","","null","28","","","","","","","","","","","","","","","NaN",""
"","S1","","html-keyboard-response","196","288414","0.0-1.0-263.0","0","0","86668","","null","","","null","29","","","","","","","","","","","","","","","",""
"","ISI","","html-keyboard-response","197","289418","0.0-1.0-264.0","0","0","86668","","null","","","null","29","NaN","","","","","","","","","","","","","","",""
"","S2","","html-keyboard-response","198","289674","0.0-1.0-265.0","0","0","86668","","null","","","null","29","","NaN","","","","","","","","","","","","","",""
"","response","","html-keyboard-response","199","289823","0.0-1.0-266.0-0.0","0","0","86668","","147","","","75","29","","","1","29","training","adjacent","GF","7","6","Q.jpg","O.jpg","0","0","1","",""
"","feedback","","html-keyboard-response","200","290834","0.0-1.0-267.0-0.0","0","0","86668","","null","","","null","29","","","","","","","","","","","","","","","",""
"","ITI","","html-keyboard-response","201","291844","0.0-1.0-270.0","0","0","86668","","null","","","null","29","","","","","","","","","","","","","","","NaN",""
"","S1","","html-keyboard-response","202","292102","0.0-1.0-272.0","0","0","86668","","null","","","null","30","","","","","","","","","","","","","","","",""
"","ISI","","html-keyboard-response","203","293106","0.0-1.0-273.0","0","0","86668","","null","","","null","30","NaN","","","","","","","","","","","","","","",""
"","S2","","html-keyboard-response","204","293364","0.0-1.0-274.0","0","0","86668","","null","","","null","30","","NaN","","","","","","","","","","","","","",""
"","response","","html-keyboard-response","205","293716","0.0-1.0-275.0-0.0","0","0","86668","","350","","","75","30","","","1","30","training","adjacent","ED","5","4","L.jpg","P.jpg","0","0","1","",""
"","feedback","","html-keyboard-response","206","294722","0.0-1.0-276.0-0.0","0","0","86668","","null","","","null","30","","","","","","","","","","","","","","","",""
"","ITI","","html-keyboard-response","207","295730","0.0-1.0-279.0","0","0","86668","","null","","","null","30","","","","","","","","","","","","","","","NaN",""
"","S1","","html-keyboard-response","208","295989","0.0-1.0-281.0","0","0","86668","","null","","","null","31","","","","","","","","","","","","","","","",""
"","ISI","","html-keyboard-response","209","296994","0.0-1.0-282.0","0","0","86668","","null","","","null","31","NaN","","","","","","","","","","","","","","",""
"","S2","","html-keyboard-response","210","297157","0.0-1.0-283.0","0","0","86668","","161","","","68","31","","d","1","31","training","adjacent","ED","5","4","L.jpg","P.jpg","1","0","0","",""
"","feedback","","html-keyboard-response","211","298160","0.0-1.0-285.0-0.0","0","0","86668","","null","","","null","31","","","","","","","","","","","","","","","",""
"","time_out","","html-keyboard-response","212","300168","0.0-1.0-287.0-0.0","0","0","86668","","null","","","null","31","","","","","","","","","","","","","","","",""
"","ITI","","html-keyboard-response","213","301178","0.0-1.0-288.0","0","0","86668","","null","","","null","31","","","","","","","","","","","","","","","NaN",""
"","S1","","html-keyboard-response","214","301434","0.0-1.0-290.0","0","0","86668","","null","","","null","32","","","","","","","","","","","","","","","",""
"","ISI","","html-keyboard-response","215","302444","0.0-1.0-291.0","0","0","86668","","null","","","null","32","NaN","","","","","","","","","","","","","","",""
"","S2","","html-keyboard-response","216","302702","0.0-1.0-292.0","0","0","86668","","256","","","75","32","","k","1","32","training","adjacent","BA","2","1","M.jpg","N.jpg","0","0","1","",""
"","feedback","","html-keyboard-response","217","303715","0.0-1.0-294.0-0.0","0","0","86668","","null","","","null","32","","","","","","","","","","","","","","","",""
"","ITI","","html-keyboard-response","218","304725","0.0-1.0-297.0","0","0","86668","","null","","","null","32","","","","","","","","","","","","","","","NaN",""
"","S1","","html-keyboard-response","219","304985","0.0-1.0-299.0","0","0","86668","","null","","","null","33","","","","","","","","","","","","","","","",""
"","ISI","","html-keyboard-response","220","305996","0.0-1.0-300.0","0","0","86668","","null","","","null","33","NaN","","","","","","","","","","","","","","",""
"","S2","","html-keyboard-response","221","306246","0.0-1.0-301.0","0","0","86668","","246","","","68","33","","d","1","33","training","adjacent","DC","4","3","P.jpg","R.jpg","1","0","0","",""
"","feedback","","html-keyboard-response","222","307249","0.0-1.0-303.0-0.0","0","0","86668","","null","","","null","33","","","","","","","","","","","","","","","",""
"","time_out","","html-keyboard-response","223","309259","0.0-1.0-305.0-0.0","0","0","86668","","null","","","null","33","","","","","","","","","","","","","","","",""
"","ITI","","html-keyboard-response","224","310269","0.0-1.0-306.0","0","0","86668","","null","","","null","33","","","","","","","","","","","","","","","NaN",""
"","S1","","html-keyboard-response","225","310530","0.0-1.0-308.0","0","0","86668","","null","","","null","34","","","","","","","","","","","","","","","",""
"","ISI","","html-keyboard-response","226","311540","0.0-1.0-309.0","0","0","86668","","null","","","null","34","NaN","","","","","","","","","","","","","","",""
"","S2","","html-keyboard-response","227","311802","0.0-1.0-310.0","0","0","86668","","null","","","null","34","","NaN","","","","","","","","","","","","","",""
"","response","","html-keyboard-response","228","311901","0.0-1.0-311.0-0.0","0","0","86668","","98","","","68","34","","","1","34","training","adjacent","AB","1","2","N.jpg","M.jpg","1","1","1","",""
"","feedback","","html-keyboard-response","229","312916","0.0-1.0-312.0-0.0","0","0","86668","","null","","","null","34","","","","","","","","","","","","","","","",""
"","ITI","","html-keyboard-response","230","313920","0.0-1.0-315.0","0","0","86668","","null","","","null","34","","","","","","","","","","","","","","","NaN",""
"","S1","","html-keyboard-response","231","314177","0.0-1.0-317.0","0","0","86668","","null","","","null","35","","","","","","","","","","","","","","","",""
"","ISI","","html-keyboard-response","232","315185","0.0-1.0-318.0","0","0","86668","","null","","","null","35","NaN","","","","","","","","","","","","","","",""
"","S2","","html-keyboard-response","233","315374","0.0-1.0-319.0","0","0","86668","","187","","","75","35","","k","1","35","training","adjacent","BC","2","3","M.jpg","R.jpg","0","1","0","",""
"","feedback","","html-keyboard-response","234","316386","0.0-1.0-321.0-0.0","0","0","86668","","null","","","null","35","","","","","","","","","","","","","","","",""
"","time_out","","html-keyboard-response","235","318395","0.0-1.0-323.0-0.0","0","0","86668","","null","","","null","35","","","","","","","","","","","","","","","",""
"","ITI","","html-keyboard-response","236","319401","0.0-1.0-324.0","0","0","86668","","null","","","null","35","","","","","","","","","","","","","","","NaN",""
"","S1","","html-keyboard-response","237","319657","0.0-1.0-326.0","0","0","86668","","null","","","null","36","","","","","","","","","","","","","","","",""
"","ISI","","html-keyboard-response","238","320665","0.0-1.0-327.0","0","0","86668","","null","","","null","36","NaN","","","","","","","","","","","","","","",""
"","S2","","html-keyboard-response","239","320813","0.0-1.0-328.0","0","0","86668","","146","","","75","36","","k","1","36","training","adjacent","FG","6","7","O.jpg","Q.jpg","0","1","0","",""
"","feedback","","html-keyboard-response","240","321825","0.0-1.0-330.0-0.0","0","0","86668","","null","","","null","36","","","","","","","","","","","","","","","",""
"","time_out","","html-keyboard-response","241","323833","0.0-1.0-332.0-0.0","0","0","86668","","null","","","null","36","","","","","","","","","","","","","","","",""
"","ITI","","html-keyboard-response","242","324845","0.0-1.0-333.0","0","0","86668","","null","","","null","36","","","","","","","","","","","","","","","NaN",""
"","S1","","html-keyboard-response","243","325105","0.0-1.0-335.0","0","0","86668","","null","","","null","37","","","","","","","","","","","","","","","",""
"","ISI","","html-keyboard-response","244","326116","0.0-1.0-336.0","0","0","86668","","null","","","null","37","NaN","","","","","","","","","","","","","","",""
"","S2","","html-keyboard-response","245","326377","0.0-1.0-337.0","0","0","86668","","null","","","null","37","","NaN","","","","","","","","","","","","","",""
"","response","","html-keyboard-response","246","326518","0.0-1.0-338.0-0.0","0","0","86668","","140","","","75","37","","","1","37","training","adjacent","GF","7","6","Q.jpg","O.jpg","0","0","1","",""
"","feedback","","html-keyboard-response","247","327532","0.0-1.0-339.0-0.0","0","0","86668","","null","","","null","37","","","","","","","","","","","","","","","",""
"","ITI","","html-keyboard-response","248","328537","0.0-1.0-342.0","0","0","86668","","null","","","null","37","","","","","","","","","","","","","","","NaN",""
"","S1","","html-keyboard-response","249","328792","0.0-1.0-344.0","0","0","86668","","null","","","null","38","","","","","","","","","","","","","","","",""
"","ISI","","html-keyboard-response","250","329801","0.0-1.0-345.0","0","0","86668","","null","","","null","38","NaN","","","","","","","","","","","","","","",""
"","S2","","html-keyboard-response","251","330057","0.0-1.0-346.0","0","0","86668","","null","","","null","38","","NaN","","","","","","","","","","","","","",""
"","response","","html-keyboard-response","252","330629","0.0-1.0-347.0-0.0","0","0","86668","","570","","","75","38","","","1","38","training","adjacent","EF","5","6","L.jpg","O.jpg","0","1","0","",""
"","feedback","","html-keyboard-response","253","331636","0.0-1.0-348.0-0.0","0","0","86668","","null","","","null","38","","","","","","","","","","","","","","","",""
"","time_out","","html-keyboard-response","254","333639","0.0-1.0-350.0-0.0","0","0","86668","","null","","","null","38","","","","","","","","","","","","","","","",""
"","ITI","","html-keyboard-response","255","334648","0.0-1.0-351.0","0","0","86668","","null","","","null","38","","","","","","","","","","","","","","","NaN",""
"","S1","","html-keyboard-response","256","334905","0.0-1.0-353.0","0","0","86668","","null","","","null","39","","","","","","","","","","","","","","","",""
"","ISI","","html-keyboard-response","257","335914","0.0-1.0-354.0","0","0","86668","","null","","","null","39","NaN","","","","","","","","","","","","","","",""
"","S2","","html-keyboard-response","258","336168","0.0-1.0-355.0","0","0","86668","","null","","","null","39","","NaN","","","","","","","","","","","","","",""
"","response","","html-keyboard-response","259","336173","0.0-1.0-356.0-0.0","0","0","86668","","2","","","68","39","","","1","39","training","adjacent","DE","4","5","P.jpg","L.jpg","1","1","1","",""
"","feedback","","html-keyboard-response","260","337180","0.0-1.0-357.0-0.0","0","0","86668","","null","","","null","39","","","","","","","","","","","","","","","",""
"","ITI","","html-keyboard-response","261","338184","0.0-1.0-360.0","0","0","86668","","null","","","null","39","","","","","","","","","","","","","","","NaN",""
"","S1","","html-keyboard-response","262","338440","0.0-1.0-362.0","0","0","86668","","null","","","null","40","","","","","","","","","","","","","","","",""
"","ISI","","html-keyboard-response","263","339449","0.0-1.0-363.0","0","0","86668","","null","","","null","40","NaN","","","","","","","","","","","","","","",""
"","S2","","html-keyboard-response","264","339705","0.0-1.0-364.0","0","0","86668","","null","","","null","40","","NaN","","","","","","","","","","","","","",""
"","response","","html-keyboard-response","265","340069","0.0-1.0-365.0-0.0","0","0","86668","","362","","","75","40","","","1","40","training","adjacent","GF","7","6","Q.jpg","O.jpg","0","0","1","",""
"","feedback","","html-keyboard-response","266","341080","0.0-1.0-366.0-0.0","0","0","86668","","null","","","null","40","","","","","","","","","","","","","","","",""
"","ITI","","html-keyboard-response","267","342091","0.0-1.0-369.0","0","0","86668","","null","","","null","40","","","","","","","","","","","","","","","NaN",""
"","S1","","html-keyboard-response","268","342352","0.0-1.0-371.0","0","0","86668","","null","","","null","41","","","","","","","","","","","","","","","",""
"","ISI","","html-keyboard-response","269","343363","0.0-1.0-372.0","0","0","86668","","null","","","null","41","NaN","","","","","","","","","","","","","","",""
"","S2","","html-keyboard-response","270","343624","0.0-1.0-373.0","0","0","86668","","null","","","null","41","","NaN","","","","","","","","","","","","","",""
"","response","","html-keyboard-response","271","343949","0.0-1.0-374.0-0.0","0","0","86668","","323","","","68","41","","","1","41","training","adjacent","FG","6","7","O.jpg","Q.jpg","1","1","1","",""
"","feedback","","html-keyboard-response","272","344960","0.0-1.0-375.0-0.0","0","0","86668","","null","","","null","41","","","","","","","","","","","","","","","",""
"","ITI","","html-keyboard-response","273","345968","0.0-1.0-378.0","0","0","86668","","null","","","null","41","","","","","","","","","","","","","","","NaN",""
"","S1","","html-keyboard-response","274","346224","0.0-1.0-380.0","0","0","86668","","null","","","null","42","","","","","","","","","","","","","","","",""
"","ISI","","html-keyboard-response","275","347233","0.0-1.0-381.0","0","0","86668","","null","","","null","42","NaN","","","","","","","","","","","","","","",""
"","S2","","html-keyboard-response","276","347488","0.0-1.0-382.0","0","0","86668","","null","","","null","42","","NaN","","","","","","","","","","","","","",""
"","response","","html-keyboard-response","277","347636","0.0-1.0-383.0-0.0","0","0","86668","","146","","","68","42","","","1","42","training","adjacent","FE","6","5","O.jpg","L.jpg","1","0","0","",""
"","feedback","","html-keyboard-response","278","348650","0.0-1.0-384.0-0.0","0","0","86668","","null","","","null","42","","","","","","","","","","","","","","","",""
"","time_out","","html-keyboard-response","279","350659","0.0-1.0-386.0-0.0","0","0","86668","","null","","","null","42","","","","","","","","","","","","","","","",""
"","ITI","","html-keyboard-response","280","351663","0.0-1.0-387.0","0","0","86668","","null","","","null","42","","","","","","","","","","","","","","","NaN",""
"","S1","","html-keyboard-response","281","351920","0.0-1.0-389.0","0","0","86668","","null","","","null","43","","","","","","","","","","","","","","","",""
"","ISI","","html-keyboard-response","282","352928","0.0-1.0-390.0","0","0","86668","","null","","","null","43","NaN","","","","","","","","","","","","","","",""
"","S2","","html-keyboard-response","283","353029","0.0-1.0-391.0","0","0","86668","","98","","","75","43","","k","1","43","training","adjacent","DE","4","5","P.jpg","L.jpg","0","1","0","",""
"","feedback","","html-keyboard-response","284","354043","0.0-1.0-393.0-0.0","0","0","86668","","null","","","null","43","","","","","","","","","","","","","","","",""
"","time_out","","html-keyboard-response","285","356051","0.0-1.0-395.0-0.0","0","0","86668","","null","","","null","43","","","","","","","","","","","","","","","",""
"","ITI","","html-keyboard-response","286","357056","0.0-1.0-396.0","0","0","86668","","null","","","null","43","","","","","","","","","","","","","","","NaN",""
"","S1","","html-keyboard-response","287","357311","0.0-1.0-398.0","0","0","86668","","null","","","null","44","","","","","","","","","","","","","","","",""
"","ISI","","html-keyboard-response","288","358320","0.0-1.0-399.0","0","0","86668","","null","","","null","44","NaN","","","","","","","","","","","","","","",""
"","S2","","html-keyboard-response","289","358576","0.0-1.0-400.0","0","0","86668","","null","","","null","44","","NaN","","","","","","","","","","","","","",""
"","response","","html-keyboard-response","290","359012","0.0-1.0-401.0-0.0","0","0","86668","","434","","","68","44","","","1","44","training","adjacent","FE","6","5","O.jpg","L.jpg","1","0","0","",""
"","feedback","","html-keyboard-response","291","360016","0.0-1.0-402.0-0.0","0","0","86668","","null","","","null","44","","","","","","","","","","","","","","","",""
"","time_out","","html-keyboard-response","292","362024","0.0-1.0-404.0-0.0","0","0","86668","","null","","","null","44","","","","","","","","","","","","","","","",""
"","ITI","","html-keyboard-response","293","363034","0.0-1.0-405.0","0","0","86668","","null","","","null","44","","","","","","","","","","","","","","","NaN",""
"","S1","","html-keyboard-response","294","363295","0.0-1.0-407.0","0","0","86668","","null","","","null","45","","","","","","","","","","","","","","","",""
"","ISI","","html-keyboard-response","295","364305","0.0-1.0-408.0","0","0","86668","","null","","","null","45","NaN","","","","","","","","","","","","","","",""
"","S2","","html-keyboard-response","296","364560","0.0-1.0-409.0","0","0","86668","","null","","","null","45","","NaN","","","","","","","","","","","","","",""
"","response","","html-keyboard-response","297","364948","0.0-1.0-410.0-0.0","0","0","86668","","386","","","75","45","","","1","45","training","adjacent","GF","7","6","Q.jpg","O.jpg","0","0","1","",""
"","feedback","","html-keyboard-response","298","365960","0.0-1.0-411.0-0.0","0","0","86668","","null","","","null","45","","","","","","","","","","","","","","","",""
"","ITI","","html-keyboard-response","299","366970","0.0-1.0-414.0","0","0","86668","","null","","","null","45","","","","","","","","","","","","","","","NaN",""
"","S1","","html-keyboard-response","300","367232","0.0-1.0-416.0","0","0","86668","","null","","","null","46","","","","","","","","","","","","","","","",""
"","ISI","","html-keyboard-response","301","368240","0.0-1.0-417.0","0","0","86668","","null","","","null","46","NaN","","","","","","","","","","","","","","",""
"","S2","","html-keyboard-response","302","368496","0.0-1.0-418.0","0","0","86668","","null","","","null","46","","NaN","","","","","","","","","","","","","",""
"","response","","html-keyboard-response","303","369052","0.0-1.0-419.0-0.0","0","0","86668","","553","","","75","46","","","1","46","training","adjacent","DC","4","3","P.jpg","R.jpg","0","0","1","",""
"","feedback","","html-keyboard-response","304","370063","0.0-1.0-420.0-0.0","0","0","86668","","null","","","null","46","","","","","","","","","","","","","","","",""
"","ITI","","html-keyboard-response","305","371074","0.0-1.0-423.0","0","0","86668","","null","","","null","46","","","","","","","","","","","","","","","NaN",""
"","S1","","html-keyboard-response","306","371335","0.0-1.0-425.0","0","0","86668","","null","","","null","47","","","","","","","","","","","","","","","",""
"","ISI","","html-keyboard-response","307","372344","0.0-1.0-426.0","0","0","86668","","null","","","null","47","NaN","","","","","","","","","","","","","","",""
"","S2","","html-keyboard-response","308","372599","0.0-1.0-427.0","0","0","86668","","null","","","null","47","","NaN","","","","","","","","","","","","","",""
"","response","","html-keyboard-response","309","373059","0.0-1.0-428.0-0.0","0","0","86668","","458","","","68","47","","","1","47","training","adjacent","AB","1","2","N.jpg","M.jpg","1","1","1","",""
"","feedback","","html-keyboard-response","310","374064","0.0-1.0-429.0-0.0","0","0","86668","","null","","","null","47","","","","","","","","","","","","","","","",""
"","ITI","","html-keyboard-response","311","375073","0.0-1.0-432.0","0","0","86668","","null","","","null","47","","","","","","","","","","","","","","","NaN",""
"","block_over","","html-keyboard-response","312","576035","0.0-1.0-433.0-0.0","0","0","86668","","200960","","","32","47","","","","","","","","","","","","","","","",""
"","S1","","html-keyboard-response","313","576296","0.0-1.0-434.0","0","0","86668","","null","","","null","48","","","","","","","","","","","","","","","",""
"","ISI","","html-keyboard-response","314","577306","0.0-1.0-435.0","0","0","86668","","null","","","null","48","NaN","","","","","","","","","","","","","","",""
"","S2","","html-keyboard-response","315","577568","0.0-1.0-436.0","0","0","86668","","null","","","null","48","","NaN","","","","","","","","","","","","","",""
"","response","","html-keyboard-response","316","578036","0.0-1.0-437.0-0.0","0","0","86668","","466","","","68","48","","","2","48","training","adjacent","FE","6","5","O.jpg","L.jpg","1","0","0","",""
"","feedback","","html-keyboard-response","317","579041","0.0-1.0-438.0-0.0","0","0","86668","","null","","","null","48","","","","","","","","","","","","","","","",""
"","time_out","","html-keyboard-response","318","581051","0.0-1.0-440.0-0.0","0","0","86668","","null","","","null","48","","","","","","","","","","","","","","","",""
"","ITI","","html-keyboard-response","319","582055","0.0-1.0-441.0","0","0","86668","","null","","","null","48","","","","","","","","","","","","","","","NaN",""
"","S1","","html-keyboard-response","320","582312","0.0-1.0-443.0","0","0","86668","","null","","","null","49","","","","","","","","","","","","","","","",""
"","ISI","","html-keyboard-response","321","583320","0.0-1.0-444.0","0","0","86668","","null","","","null","49","NaN","","","","","","","","","","","","","","",""
"","S2","","html-keyboard-response","322","583576","0.0-1.0-445.0","0","0","86668","","null","","","null","49","","NaN","","","","","","","","","","","","","",""
"","response","","html-keyboard-response","323","583852","0.0-1.0-446.0-0.0","0","0","86668","","274","","","75","49","","","2","49","training","adjacent","CD","3","4","R.jpg","P.jpg","0","1","0","",""
"","feedback","","html-keyboard-response","324","584858","0.0-1.0-447.0-0.0","0","0","86668","","null","","","null","49","","","","","","","","","","","","","","","",""
"","time_out","","html-keyboard-response","325","586867","0.0-1.0-449.0-0.0","0","0","86668","","null","","","null","49","","","","","","","","","","","","","","","",""
"","ITI","","html-keyboard-response","326","587871","0.0-1.0-450.0","0","0","86668","","null","","","null","49","","","","","","","","","","","","","","","NaN",""
"","S1","","html-keyboard-response","327","588128","0.0-1.0-452.0","0","0","86668","","null","","","null","50","","","","","","","","","","","","","","","",""
"","ISI","","html-keyboard-response","328","589136","0.0-1.0-453.0","0","0","86668","","null","","","null","50","NaN","","","","","","","","","","","","","","",""
"","S2","","html-keyboard-response","329","589392","0.0-1.0-454.0","0","0","86668","","null","","","null","50","","NaN","","","","","","","","","","","","","",""
"","response","","html-keyboard-response","330","589740","0.0-1.0-455.0-0.0","0","0","86668","","346","","","68","50","","","2","50","training","adjacent","DC","4","3","P.jpg","R.jpg","1","0","0","",""
"","feedback","","html-keyboard-response","331","590751","0.0-1.0-456.0-0.0","0","0","86668","","null","","","null","50","","","","","","","","","","","","","","","",""
"","time_out","","html-keyboard-response","332","592759","0.0-1.0-458.0-0.0","0","0","86668","","null","","","null","50","","","","","","","","","","","","","","","",""
"","ITI","","html-keyboard-response","333","593769","0.0-1.0-459.0","0","0","86668","","null","","","null","50","","","","","","","","","","","","","","","NaN",""
"","S1","","html-keyboard-response","334","594024","0.0-1.0-461.0","0","0","86668","","null","","","null","51","","","","","","","","","","","","","","","",""
"","ISI","","html-keyboard-response","335","595034","0.0-1.0-462.0","0","0","86668","","null","","","null","51","NaN","","","","","","","","","","","","","","",""
"","S2","","html-keyboard-response","336","595296","0.0-1.0-463.0","0","0","86668","","null","","","null","51","","NaN","","","","","","","","","","","","","",""
"","response","","html-keyboard-response","337","595859","0.0-1.0-464.0-0.0","0","0","86668","","561","","","68","51","","","2","51","training","adjacent","DC","4","3","P.jpg","R.jpg","1","0","0","",""
"","feedback","","html-keyboard-response","338","596863","0.0-1.0-465.0-0.0","0","0","86668","","null","","","null","51","","","","","","","","","","","","","","","",""
"","time_out","","html-keyboard-response","339","598871","0.0-1.0-467.0-0.0","0","0","86668","","null","","","null","51","","","","","","","","","","","","","","","",""
"","ITI","","html-keyboard-response","340","599881","0.0-1.0-468.0","0","0","86668","","null","","","null","51","","","","","","","","","","","","","","","NaN",""
"","S1","","html-keyboard-response","341","600135","0.0-1.0-470.0","0","0","86668","","null","","","null","52","","","","","","","","","","","","","","","",""
"","ISI","","html-keyboard-response","342","601147","0.0-1.0-471.0","0","0","86668","","null","","","null","52","NaN","","","","","","","","","","","","","","",""
"","S2","","html-keyboard-response","343","601408","0.0-1.0-472.0","0","0","86668","","null","","","null","52","","NaN","","","","","","","","","","","","","",""
"","response","","html-keyboard-response","344","601756","0.0-1.0-473.0-0.0","0","0","86668","","346","","","75","52","","","2","52","training","adjacent","DC","4","3","P.jpg","R.jpg","0","0","1","",""
"","feedback","","html-keyboard-response","345","602766","0.0-1.0-474.0-0.0","0","0","86668","","null","","","null","52","","","","","","","","","","","","","","","",""
"","ITI","","html-keyboard-response","346","603775","0.0-1.0-477.0","0","0","86668","","null","","","null","52","","","","","","","","","","","","","","","NaN",""
"","S1","","html-keyboard-response","347","604032","0.0-1.0-479.0","0","0","86668","","null","","","null","53","","","","","","","","","","","","","","","",""
"","ISI","","html-keyboard-response","348","605042","0.0-1.0-480.0","0","0","86668","","null","","","null","53","NaN","","","","","","","","","","","","","","",""
"","S2","","html-keyboard-response","349","605303","0.0-1.0-481.0","0","0","86668","","null","","","null","53","","NaN","","","","","","","","","","","","","",""
"","response","","html-keyboard-response","350","605787","0.0-1.0-482.0-0.0","0","0","86668","","482","","","68","53","","","2","53","training","adjacent","FE","6","5","O.jpg","L.jpg","1","0","0","",""
"","feedback","","html-keyboard-response","351","606794","0.0-1.0-483.0-0.0","0","0","86668","","null","","","null","53","","","","","","","","","","","","","","","",""
"","time_out","","html-keyboard-response","352","608798","0.0-1.0-485.0-0.0","0","0","86668","","null","","","null","53","","","","","","","","","","","","","","","",""
"","ITI","","html-keyboard-response","353","609807","0.0-1.0-486.0","0","0","86668","","null","","","null","53","","","","","","","","","","","","","","","NaN",""
"","S1","","html-keyboard-response","354","610063","0.0-1.0-488.0","0","0","86668","","null","","","null","54","","","","","","","","","","","","","","","",""
"","ISI","","html-keyboard-response","355","611072","0.0-1.0-489.0","0","0","86668","","null","","","null","54","NaN","","","","","","","","","","","","","","",""
"","S2","","html-keyboard-response","356","611327","0.0-1.0-490.0","0","0","86668","","null","","","null","54","","NaN","","","","","","","","","","","","","",""
"","response","","html-keyboard-response","357","611379","0.0-1.0-491.0-0.0","0","0","86668","","50","","","68","54","","","2","54","training","adjacent","CB","3","2","R.jpg","M.jpg","1","0","0","",""
"","feedback","","html-keyboard-response","358","612385","0.0-1.0-492.0-0.0","0","0","86668","","null","","","null","54","","","","","","","","","","","","","","","",""
"","time_out","","html-keyboard-response","359","614393","0.0-1.0-494.0-0.0","0","0","86668","","null","","","null","54","","","","","","","","","","","","","","","",""
"","ITI","","html-keyboard-response","360","615398","0.0-1.0-495.0","0","0","86668","","null","","","null","54","","","","","","","","","","","","","","","NaN",""
"","S1","","html-keyboard-response","361","615655","0.0-1.0-497.0","0","0","86668","","null","","","null","55","","","","","","","","","","","","","","","",""
"","ISI","","html-keyboard-response","362","616662","0.0-1.0-498.0","0","0","86668","","null","","","null","55","NaN","","","","","","","","","","","","","","",""
"","S2","","html-keyboard-response","363","616919","0.0-1.0-499.0","0","0","86668","","null","","","null","55","","NaN","","","","","","","","","","","","","",""
"","response","","html-keyboard-response","364","618395","0.0-1.0-500.0-0.0","0","0","86668","","1474","","","75","55","","","2","55","training","adjacent","FE","6","5","O.jpg","L.jpg","0","0","1","",""
"","feedback","","html-keyboard-response","365","619407","0.0-1.0-501.0-0.0","0","0","86668","","null","","","null","55","","","","","","","","","","","","","","","",""
"","ITI","","html-keyboard-response","366","620415","0.0-1.0-504.0","0","0","86668","","null","","","null","55","","","","","","","","","","","","","","","NaN",""
"","S1","","html-keyboard-response","367","620674","0.0-1.0-506.0","0","0","86668","","null","","","null","56","","","","","","","","","","","","","","","",""
"","ISI","","html-keyboard-response","368","621678","0.0-1.0-507.0","0","0","86668","","null","","","null","56","NaN","","","","","","","","","","","","","","",""
"","S2","","html-keyboard-response","369","621934","0.0-1.0-508.0","0","0","86668","","null","","","null","56","","NaN","","","","","","","","","","","","","",""
"","response","","html-keyboard-response","370","623314","0.0-1.0-509.0-0.0","0","0","86668","","1378","","","75","56","","","2","56","training","adjacent","EF","5","6","L.jpg","O.jpg","0","1","0","",""
"","feedback","","html-keyboard-response","371","624318","0.0-1.0-510.0-0.0","0","0","86668","","null","","","null","56","","","","","","","","","","","","","","","",""
"","time_out","","html-keyboard-response","372","626326","0.0-1.0-512.0-0.0","0","0","86668","","null","","","null","56","","","","","","","","","","","","","","","",""
"","ITI","","html-keyboard-response","373","627338","0.0-1.0-513.0","0","0","86668","","null","","","null","56","","","","","","","","","","","","","","","NaN",""
"","S1","","html-keyboard-response","374","627599","0.0-1.0-515.0","0","0","86668","","null","","","null","57","","","","","","","","","","","","","","","",""
"","ISI","","html-keyboard-response","375","628609","0.0-1.0-516.0","0","0","86668","","null","","","null","57","NaN","","","","","","","","","","","","","","",""
"","S2","","html-keyboard-response","376","628870","0.0-1.0-517.0","0","0","86668","","null","","","null","57","","NaN","","","","","","","","","","","","","",""
"","response","","html-keyboard-response","377","629211","0.0-1.0-518.0-0.0","0","0","86668","","339","","","75","57","","","2","57","training","adjacent","GF","7","6","Q.jpg","O.jpg","0","0","1","",""
"","feedback","","html-keyboard-response","378","630223","0.0-1.0-519.0-0.0","0","0","86668","","null","","","null","57","","","","","","","","","","","","","","","",""
"","ITI","","html-keyboard-response","379","631233","0.0-1.0-522.0","0","0","86668","","null","","","null","57","","","","","","","","","","","","","","","NaN",""
"","S1","","html-keyboard-response","380","631494","0.0-1.0-524.0","0","0","86668","","null","","","null","58","","","","","","","","","","","","","","","",""
"","ISI","","html-keyboard-response","381","632503","0.0-1.0-525.0","0","0","86668","","null","","","null","58","NaN","","","","","","","","","","","","","","",""
"","S2","","html-keyboard-response","382","632759","0.0-1.0-526.0","0","0","86668","","null","","","null","58","","NaN","","","","","","","","","","","","","",""
"","response","","html-keyboard-response","383","633066","0.0-1.0-527.0-0.0","0","0","86668","","305","","","68","58","","","2","58","training","adjacent","CD","3","4","R.jpg","P.jpg","1","1","1","",""
"","feedback","","html-keyboard-response","384","634070","0.0-1.0-528.0-0.0","0","0","86668","","null","","","null","58","","","","","","","","","","","","","","","",""
"","ITI","","html-keyboard-response","385","635081","0.0-1.0-531.0","0","0","86668","","null","","","null","58","","","","","","","","","","","","","","","NaN",""
"","S1","","html-keyboard-response","386","635342","0.0-1.0-533.0","0","0","86668","","null","","","null","59","","","","","","","","","","","","","","","",""
"","ISI","","html-keyboard-response","387","636353","0.0-1.0-534.0","0","0","86668","","null","","","null","59","NaN","","","","","","","","","","","","","","",""
"","S2","","html-keyboard-response","388","636614","0.0-1.0-535.0","0","0","86668","","null","","","null","59","","NaN","","","","","","","","","","","","","",""
"","response","","html-keyboard-response","389","636898","0.0-1.0-536.0-0.0","0","0","86668","","283","","","75","59","","","2","59","training","adjacent","BC","2","3","M.jpg","R.jpg","0","1","0","",""
"","feedback","","html-keyboard-response","390","637903","0.0-1.0-537.0-0.0","0","0","86668","","null","","","null","59","","","","","","","","","","","","","","","",""
"","time_out","","html-keyboard-response","391","639910","0.0-1.0-539.0-0.0","0","0","86668","","null","","","null","59","","","","","","","","","","","","","","","",""
"","ITI","","html-keyboard-response","392","640921","0.0-1.0-540.0","0","0","86668","","null","","","null","59","","","","","","","","","","","","","","","NaN",""
"","S1","","html-keyboard-response","393","641182","0.0-1.0-542.0","0","0","86668","","null","","","null","60","","","","","","","","","","","","","","","",""
"","ISI","","html-keyboard-response","394","642192","0.0-1.0-543.0","0","0","86668","","null","","","null","60","NaN","","","","","","","","","","","","","","",""
"","S2","","html-keyboard-response","395","642454","0.0-1.0-544.0","0","0","86668","","null","","","null","60","","NaN","","","","","","","","","","","","","",""
"","response","","html-keyboard-response","396","642738","0.0-1.0-545.0-0.0","0","0","86668","","283","","","75","60","","","2","60","training","adjacent","EF","5","6","L.jpg","O.jpg","0","1","0","",""
"","feedback","","html-keyboard-response","397","643750","0.0-1.0-546.0-0.0","0","0","86668","","null","","","null","60","","","","","","","","","","","","","","","",""
"","time_out","","html-keyboard-response","398","645758","0.0-1.0-548.0-0.0","0","0","86668","","null","","","null","60","","","","","","","","","","","","","","","",""
"","ITI","","html-keyboard-response","399","646766","0.0-1.0-549.0","0","0","86668","","null","","","null","60","","","","","","","","","","","","","","","NaN",""
"","S1","","html-keyboard-response","400","647022","0.0-1.0-551.0","0","0","86668","","null","","","null","61","","","","","","","","","","","","","","","",""
"","ISI","","html-keyboard-response","401","648032","0.0-1.0-552.0","0","0","86668","","null","","","null","61","NaN","","","","","","","","","","","","","","",""
"","S2","","html-keyboard-response","402","648293","0.0-1.0-553.0","0","0","86668","","null","","","null","61","","NaN","","","","","","","","","","","","","",""
"","response","","html-keyboard-response","403","648530","0.0-1.0-554.0-0.0","0","0","86668","","234","","","68","61","","","2","61","training","adjacent","FG","6","7","O.jpg","Q.jpg","1","1","1","",""
"","feedback","","html-keyboard-response","404","649542","0.0-1.0-555.0-0.0","0","0","86668","","null","","","null","61","","","","","","","","","","","","","","","",""
"","ITI","","html-keyboard-response","405","650553","0.0-1.0-558.0","0","0","86668","","null","","","null","61","","","","","","","","","","","","","","","NaN",""
"","S1","","html-keyboard-response","406","650813","0.0-1.0-560.0","0","0","86668","","null","","","null","62","","","","","","","","","","","","","","","",""
"","ISI","","html-keyboard-response","407","651822","0.0-1.0-561.0","0","0","86668","","null","","","null","62","NaN","","","","","","","","","","","","","","",""
"","S2","","html-keyboard-response","408","652077","0.0-1.0-562.0","0","0","86668","","null","","","null","62","","NaN","","","","","","","","","","","","","",""
"","response","","html-keyboard-response","409","652337","0.0-1.0-563.0-0.0","0","0","86668","","258","","","68","62","","","2","62","training","adjacent","CD","3","4","R.jpg","P.jpg","1","1","1","",""
"","feedback","","html-keyboard-response","410","653343","0.0-1.0-564.0-0.0","0","0","86668","","null","","","null","62","","","","","","","","","","","","","","","",""
"","ITI","","html-keyboard-response","411","654350","0.0-1.0-567.0","0","0","86668","","null","","","null","62","","","","","","","","","","","","","","","NaN",""
"","S1","","html-keyboard-response","412","654609","0.0-1.0-569.0","0","0","86668","","null","","","null","63","","","","","","","","","","","","","","","",""
"","ISI","","html-keyboard-response","413","655613","0.0-1.0-570.0","0","0","86668","","null","","","null","63","NaN","","","","","","","","","","","","","","",""
"","S2","","html-keyboard-response","414","655868","0.0-1.0-571.0","0","0","86668","","null","","","null","63","","NaN","","","","","","","","","","","","","",""
"","response","","html-keyboard-response","415","656250","0.0-1.0-572.0-0.0","0","0","86668","","380","","","68","63","","","2","63","training","adjacent","CB","3","2","R.jpg","M.jpg","1","0","0","",""
"","feedback","","html-keyboard-response","416","657262","0.0-1.0-573.0-0.0","0","0","86668","","null","","","null","63","","","","","","","","","","","","","","","",""
"","time_out","","html-keyboard-response","417","659269","0.0-1.0-575.0-0.0","0","0","86668","","null","","","null","63","","","","","","","","","","","","","","","",""
"","ITI","","html-keyboard-response","418","660280","0.0-1.0-576.0","0","0","86668","","null","","","null","63","","","","","","","","","","","","","","","NaN",""
"","S1","","html-keyboard-response","419","660541","0.0-1.0-578.0","0","0","86668","","null","","","null","64","","","","","","","","","","","","","","","",""
"","ISI","","html-keyboard-response","420","661551","0.0-1.0-579.0","0","0","86668","","null","","","null","64","NaN","","","","","","","","","","","","","","",""
"","S2","","html-keyboard-response","421","661813","0.0-1.0-580.0","0","0","86668","","null","","","null","64","","NaN","","","","","","","","","","","","","",""
"","response","","html-keyboard-response","422","662089","0.0-1.0-581.0-0.0","0","0","86668","","275","","","75","64","","","2","64","training","adjacent","AB","1","2","N.jpg","M.jpg","0","1","0","",""
"","feedback","","html-keyboard-response","423","663095","0.0-1.0-582.0-0.0","0","0","86668","","null","","","null","64","","","","","","","","","","","","","","","",""
"","time_out","","html-keyboard-response","424","665104","0.0-1.0-584.0-0.0","0","0","86668","","null","","","null","64","","","","","","","","","","","","","","","",""
"","ITI","","html-keyboard-response","425","666108","0.0-1.0-585.0","0","0","86668","","null","","","null","64","","","","","","","","","","","","","","","NaN",""
"","S1","","html-keyboard-response","426","666364","0.0-1.0-587.0","0","0","86668","","null","","","null","65","","","","","","","","","","","","","","","",""
"","ISI","","html-keyboard-response","427","667374","0.0-1.0-588.0","0","0","86668","","null","","","null","65","NaN","","","","","","","","","","","","","","",""
"","S2","","html-keyboard-response","428","667628","0.0-1.0-589.0","0","0","86668","","null","","","null","65","","NaN","","","","","","","","","","","","","",""
"","response","","html-keyboard-response","429","667874","0.0-1.0-590.0-0.0","0","0","86668","","244","","","75","65","","","2","65","training","adjacent","ED","5","4","L.jpg","P.jpg","0","0","1","",""
"","feedback","","html-keyboard-response","430","668889","0.0-1.0-591.0-0.0","0","0","86668","","null","","","null","65","","","","","","","","","","","","","","","",""
"","ITI","","html-keyboard-response","431","669893","0.0-1.0-594.0","0","0","86668","","null","","","null","65","","","","","","","","","","","","","","","NaN",""
"","S1","","html-keyboard-response","432","670149","0.0-1.0-596.0","0","0","86668","","null","","","null","66","","","","","","","","","","","","","","","",""
"","ISI","","html-keyboard-response","433","671152","0.0-1.0-597.0","0","0","86668","","null","","","null","66","NaN","","","","","","","","","","","","","","",""
"","S2","","html-keyboard-response","434","671413","0.0-1.0-598.0","0","0","86668","","null","","","null","66","","NaN","","","","","","","","","","","","","",""
"","response","","html-keyboard-response","435","671537","0.0-1.0-599.0-0.0","0","0","86668","","122","","","68","66","","","2","66","training","adjacent","BA","2","1","M.jpg","N.jpg","1","0","0","",""
"","feedback","","html-keyboard-response","436","672540","0.0-1.0-600.0-0.0","0","0","86668","","null","","","null","66","","","","","","","","","","","","","","","",""
"","time_out","","html-keyboard-response","437","674548","0.0-1.0-602.0-0.0","0","0","86668","","null","","","null","66","","","","","","","","","","","","","","","",""
"","ITI","","html-keyboard-response","438","675557","0.0-1.0-603.0","0","0","86668","","null","","","null","66","","","","","","","","","","","","","","","NaN",""
"","S1","","html-keyboard-response","439","675813","0.0-1.0-605.0","0","0","86668","","null","","","null","67","","","","","","","","","","","","","","","",""
"","ISI","","html-keyboard-response","440","676824","0.0-1.0-606.0","0","0","86668","","null","","","null","67","NaN","","","","","","","","","","","","","","",""
"","S2","","html-keyboard-response","441","677084","0.0-1.0-607.0","0","0","86668","","null","","","null","67","","NaN","","","","","","","","","","","","","",""
"","response","","html-keyboard-response","442","677529","0.0-1.0-608.0-0.0","0","0","86668","","443","","","68","67","","","2","67","training","adjacent","FG","6","7","O.jpg","Q.jpg","1","1","1","",""
"","feedback","","html-keyboard-response","443","678541","0.0-1.0-609.0-0.0","0","0","86668","","null","","","null","67","","","","","","","","","","","","","","","",""
"","ITI","","html-keyboard-response","444","679552","0.0-1.0-612.0","0","0","86668","","null","","","null","67","","","","","","","","","","","","","","","NaN",""
"","S1","","html-keyboard-response","445","679813","0.0-1.0-614.0","0","0","86668","","null","","","null","68","","","","","","","","","","","","","","","",""
"","ISI","","html-keyboard-response","446","680823","0.0-1.0-615.0","0","0","86668","","null","","","null","68","NaN","","","","","","","","","","","","","","",""
"","S2","","html-keyboard-response","447","681085","0.0-1.0-616.0","0","0","86668","","null","","","null","68","","NaN","","","","","","","","","","","","","",""
"","response","","html-keyboard-response","448","681433","0.0-1.0-617.0-0.0","0","0","86668","","346","","","68","68","","","2","68","training","adjacent","CB","3","2","R.jpg","M.jpg","1","0","0","",""
"","feedback","","html-keyboard-response","449","682437","0.0-1.0-618.0-0.0","0","0","86668","","null","","","null","68","","","","","","","","","","","","","","","",""
"","time_out","","html-keyboard-response","450","684445","0.0-1.0-620.0-0.0","0","0","86668","","null","","","null","68","","","","","","","","","","","","","","","",""
"","ITI","","html-keyboard-response","451","685455","0.0-1.0-621.0","0","0","86668","","null","","","null","68","","","","","","","","","","","","","","","NaN",""
"","S1","","html-keyboard-response","452","685717","0.0-1.0-623.0","0","0","86668","","null","","","null","69","","","","","","","","","","","","","","","",""
"","ISI","","html-keyboard-response","453","686727","0.0-1.0-624.0","0","0","86668","","null","","","null","69","NaN","","","","","","","","","","","","","","",""
"","S2","","html-keyboard-response","454","686988","0.0-1.0-625.0","0","0","86668","","null","","","null","69","","NaN","","","","","","","","","","","","","",""
"","response","","html-keyboard-response","455","687233","0.0-1.0-626.0-0.0","0","0","86668","","242","","","75","69","","","2","69","training","adjacent","EF","5","6","L.jpg","O.jpg","0","1","0","",""
"","feedback","","html-keyboard-response","456","688248","0.0-1.0-627.0-0.0","0","0","86668","","null","","","null","69","","","","","","","","","","","","","","","",""
"","time_out","","html-keyboard-response","457","690252","0.0-1.0-629.0-0.0","0","0","86668","","null","","","null","69","","","","","","","","","","","","","","","",""
"","ITI","","html-keyboard-response","458","691260","0.0-1.0-630.0","0","0","86668","","null","","","null","69","","","","","","","","","","","","","","","NaN",""
"","S1","","html-keyboard-response","459","691516","0.0-1.0-632.0","0","0","86668","","null","","","null","70","","","","","","","","","","","","","","","",""
"","ISI","","html-keyboard-response","460","692525","0.0-1.0-633.0","0","0","86668","","null","","","null","70","NaN","","","","","","","","","","","","","","",""
"","S2","","html-keyboard-response","461","692781","0.0-1.0-634.0","0","0","86668","","null","","","null","70","","NaN","","","","","","","","","","","","","",""
"","response","","html-keyboard-response","462","693033","0.0-1.0-635.0-0.0","0","0","86668","","250","","","75","70","","","2","70","training","adjacent","EF","5","6","L.jpg","O.jpg","0","1","0","",""
"","feedback","","html-keyboard-response","463","694047","0.0-1.0-636.0-0.0","0","0","86668","","null","","","null","70","","","","","","","","","","","","","","","",""
"","time_out","","html-keyboard-response","464","696055","0.0-1.0-638.0-0.0","0","0","86668","","null","","","null","70","","","","","","","","","","","","","","","",""
"","ITI","","html-keyboard-response","465","697059","0.0-1.0-639.0","0","0","86668","","null","","","null","70","","","","","","","","","","","","","","","NaN",""
"","S1","","html-keyboard-response","466","697316","0.0-1.0-641.0","0","0","86668","","null","","","null","71","","","","","","","","","","","","","","","",""
"","ISI","","html-keyboard-response","467","698324","0.0-1.0-642.0","0","0","86668","","null","","","null","71","NaN","","","","","","","","","","","","","","",""
"","S2","","html-keyboard-response","468","698580","0.0-1.0-643.0","0","0","86668","","null","","","null","71","","NaN","","","","","","","","","","","","","",""
"","response","","html-keyboard-response","469","698752","0.0-1.0-644.0-0.0","0","0","86668","","170","","","68","71","","","2","71","training","adjacent","GF","7","6","Q.jpg","O.jpg","1","0","0","",""
"","feedback","","html-keyboard-response","470","699764","0.0-1.0-645.0-0.0","0","0","86668","","null","","","null","71","","","","","","","","","","","","","","","",""
"","time_out","","html-keyboard-response","471","701772","0.0-1.0-647.0-0.0","0","0","86668","","null","","","null","71","","","","","","","","","","","","","","","",""
"","ITI","","html-keyboard-response","472","702783","0.0-1.0-648.0","0","0","86668","","null","","","null","71","","","","","","","","","","","","","","","NaN",""
"","S1","","html-keyboard-response","473","703044","0.0-1.0-650.0","0","0","86668","","null","","","null","72","","","","","","","","","","","","","","","",""
"","ISI","","html-keyboard-response","474","704054","0.0-1.0-651.0","0","0","86668","","null","","","null","72","NaN","","","","","","","","","","","","","","",""
"","S2","","html-keyboard-response","475","704315","0.0-1.0-652.0","0","0","86668","","null","","","null","72","","NaN","","","","","","","","","","","","","",""
"","response","","html-keyboard-response","476","704560","0.0-1.0-653.0-0.0","0","0","86668","","243","","","68","72","","","2","72","training","adjacent","BC","2","3","M.jpg","R.jpg","1","1","1","",""
"","feedback","","html-keyboard-response","477","705575","0.0-1.0-654.0-0.0","0","0","86668","","null","","","null","72","","","","","","","","","","","","","","","",""
"","ITI","","html-keyboard-response","478","706579","0.0-1.0-657.0","0","0","86668","","null","","","null","72","","","","","","","","","","","","","","","NaN",""
"","S1","","html-keyboard-response","479","706835","0.0-1.0-659.0","0","0","86668","","null","","","null","73","","","","","","","","","","","","","","","",""
"","ISI","","html-keyboard-response","480","707845","0.0-1.0-660.0","0","0","86668","","null","","","null","73","NaN","","","","","","","","","","","","","","",""
"","S2","","html-keyboard-response","481","708100","0.0-1.0-661.0","0","0","86668","","null","","","null","73","","NaN","","","","","","","","","","","","","",""
"","response","","html-keyboard-response","482","708272","0.0-1.0-662.0-0.0","0","0","86668","","169","","","75","73","","","2","73","training","adjacent","BC","2","3","M.jpg","R.jpg","0","1","0","",""
"","feedback","","html-keyboard-response","483","709283","0.0-1.0-663.0-0.0","0","0","86668","","null","","","null","73","","","","","","","","","","","","","","","",""
"","time_out","","html-keyboard-response","484","711292","0.0-1.0-665.0-0.0","0","0","86668","","null","","","null","73","","","","","","","","","","","","","","","",""
"","ITI","","html-keyboard-response","485","712302","0.0-1.0-666.0","0","0","86668","","null","","","null","73","","","","","","","","","","","","","","","NaN",""
"","S1","","html-keyboard-response","486","712558","0.0-1.0-668.0","0","0","86668","","null","","","null","74","","","","","","","","","","","","","","","",""
"","ISI","","html-keyboard-response","487","713562","0.0-1.0-669.0","0","0","86668","","null","","","null","74","NaN","","","","","","","","","","","","","","",""
"","S2","","html-keyboard-response","488","713818","0.0-1.0-670.0","0","0","86668","","null","","","null","74","","NaN","","","","","","","","","","","","","",""
"","response","","html-keyboard-response","489","714120","0.0-1.0-671.0-0.0","0","0","86668","","300","","","75","74","","","2","74","training","adjacent","FG","6","7","O.jpg","Q.jpg","0","1","0","",""
"","feedback","","html-keyboard-response","490","715130","0.0-1.0-672.0-0.0","0","0","86668","","null","","","null","74","","","","","","","","","","","","","","","",""
"","time_out","","html-keyboard-response","491","717139","0.0-1.0-674.0-0.0","0","0","86668","","null","","","null","74","","","","","","","","","","","","","","","",""
"","ITI","","html-keyboard-response","492","718149","0.0-1.0-675.0","0","0","86668","","null","","","null","74","","","","","","","","","","","","","","","NaN",""
"","S1","","html-keyboard-response","493","718403","0.0-1.0-677.0","0","0","86668","","null","","","null","75","","","","","","","","","","","","","","","",""
"","ISI","","html-keyboard-response","494","719413","0.0-1.0-678.0","0","0","86668","","null","","","null","75","NaN","","","","","","","","","","","","","","",""
"","S2","","html-keyboard-response","495","719668","0.0-1.0-679.0","0","0","86668","","null","","","null","75","","NaN","","","","","","","","","","","","","",""
"","response","","html-keyboard-response","496","719719","0.0-1.0-680.0-0.0","0","0","86668","","50","","","68","75","","","2","75","training","adjacent","CD","3","4","R.jpg","P.jpg","1","1","1","",""
"","feedback","","html-keyboard-response","497","720724","0.0-1.0-681.0-0.0","0","0","86668","","null","","","null","75","","","","","","","","","","","","","","","",""
"","ITI","","html-keyboard-response","498","721731","0.0-1.0-684.0","0","0","86668","","null","","","null","75","","","","","","","","","","","","","","","NaN",""
"","S1","","html-keyboard-response","499","721987","0.0-1.0-686.0","0","0","86668","","null","","","null","76","","","","","","","","","","","","","","","",""
"","ISI","","html-keyboard-response","500","722994","0.0-1.0-687.0","0","0","86668","","null","","","null","76","NaN","","","","","","","","","","","","","","",""
"","S2","","html-keyboard-response","501","723254","0.0-1.0-688.0","0","0","86668","","null","","","null","76","","NaN","","","","","","","","","","","","","",""
"","response","","html-keyboard-response","502","723445","0.0-1.0-689.0-0.0","0","0","86668","","189","","","75","76","","","2","76","training","adjacent","ED","5","4","L.jpg","P.jpg","0","0","1","",""
"","feedback","","html-keyboard-response","503","724451","0.0-1.0-690.0-0.0","0","0","86668","","null","","","null","76","","","","","","","","","","","","","","","",""
"","ITI","","html-keyboard-response","504","725462","0.0-1.0-693.0","0","0","86668","","null","","","null","76","","","","","","","","","","","","","","","NaN",""
"","S1","","html-keyboard-response","505","725723","0.0-1.0-695.0","0","0","86668","","null","","","null","77","","","","","","","","","","","","","","","",""
"","ISI","","html-keyboard-response","506","726732","0.0-1.0-696.0","0","0","86668","","null","","","null","77","NaN","","","","","","","","","","","","","","",""
"","S2","","html-keyboard-response","507","726989","0.0-1.0-697.0","0","0","86668","","null","","","null","77","","NaN","","","","","","","","","","","","","",""
"","response","","html-keyboard-response","508","727031","0.0-1.0-698.0-0.0","0","0","86668","","40","","","68","77","","","2","77","training","adjacent","BC","2","3","M.jpg","R.jpg","1","1","1","",""
"","feedback","","html-keyboard-response","509","728044","0.0-1.0-699.0-0.0","0","0","86668","","null","","","null","77","","","","","","","","","","","","","","","",""
"","ITI","","html-keyboard-response","510","729050","0.0-1.0-702.0","0","0","86668","","null","","","null","77","","","","","","","","","","","","","","","NaN",""
"","S1","","html-keyboard-response","511","729307","0.0-1.0-704.0","0","0","86668","","null","","","null","78","","","","","","","","","","","","","","","",""
"","ISI","","html-keyboard-response","512","730315","0.0-1.0-705.0","0","0","86668","","931","","","75","78","k","","","","","","","","","","","","","","",""
"","S2","","html-keyboard-response","513","730571","0.0-1.0-706.0","0","0","86668","","null","","","null","78","","NaN","","","","","","","","","","","","","",""
"","response","","html-keyboard-response","514","730742","0.0-1.0-707.0-0.0","0","0","86668","","169","","","75","78","","","2","78","training","adjacent","BA","2","1","M.jpg","N.jpg","0","0","1","",""
"","feedback","","html-keyboard-response","515","731748","0.0-1.0-708.0-0.0","0","0","86668","","null","","","null","78","","","","","","","","","","","","","","","",""
"","ITI","","html-keyboard-response","516","732755","0.0-1.0-711.0","0","0","86668","","null","","","null","78","","","","","","","","","","","","","","","NaN",""
"","S1","","html-keyboard-response","517","733014","0.0-1.0-713.0","0","0","86668","","null","","","null","79","","","","","","","","","","","","","","","",""
"","ISI","","html-keyboard-response","518","734018","0.0-1.0-714.0","0","0","86668","","null","","","null","79","NaN","","","","","","","","","","","","","","",""
"","S2","","html-keyboard-response","519","734274","0.0-1.0-715.0","0","0","86668","","null","","","null","79","","NaN","","","","","","","","","","","","","",""
"","response","","html-keyboard-response","520","736031","0.0-1.0-716.0-0.0","0","0","86668","","1755","","","68","79","","","2","79","training","adjacent","FG","6","7","O.jpg","Q.jpg","1","1","1","",""
"","feedback","","html-keyboard-response","521","737042","0.0-1.0-717.0-0.0","0","0","86668","","null","","","null","79","","","","","","","","","","","","","","","",""
"","ITI","","html-keyboard-response","522","738052","0.0-1.0-720.0","0","0","86668","","null","","","null","79","","","","","","","","","","","","","","","NaN",""
"","S1","","html-keyboard-response","523","738306","0.0-1.0-722.0","0","0","86668","","null","","","null","80","","","","","","","","","","","","","","","",""
"","ISI","","html-keyboard-response","524","739315","0.0-1.0-723.0","0","0","86668","","null","","","null","80","NaN","","","","","","","","","","","","","","",""
"","S2","","html-keyboard-response","525","739572","0.0-1.0-724.0","0","0","86668","","null","","","null","80","","NaN","","","","","","","","","","","","","",""
"","response","","html-keyboard-response","526","739919","0.0-1.0-725.0-0.0","0","0","86668","","344","","","75","80","","","2","80","training","adjacent","BA","2","1","M.jpg","N.jpg","0","0","1","",""
"","feedback","","html-keyboard-response","527","740931","0.0-1.0-726.0-0.0","0","0","86668","","null","","","null","80","","","","","","","","","","","","","","","",""
"","ITI","","html-keyboard-response","528","741942","0.0-1.0-729.0","0","0","86668","","null","","","null","80","","","","","","","","","","","","","","","NaN",""
"","S1","","html-keyboard-response","529","742202","0.0-1.0-731.0","0","0","86668","","null","","","null","81","","","","","","","","","","","","","","","",""
"","ISI","","html-keyboard-response","530","743213","0.0-1.0-732.0","0","0","86668","","null","","","null","81","NaN","","","","","","","","","","","","","","",""
"","S2","","html-keyboard-response","531","743474","0.0-1.0-733.0","0","0","86668","","null","","","null","81","","NaN","","","","","","","","","","","","","",""
"","response","","html-keyboard-response","532","743943","0.0-1.0-734.0-0.0","0","0","86668","","467","","","68","81","","","2","81","training","adjacent","ED","5","4","L.jpg","P.jpg","1","0","0","",""
"","feedback","","html-keyboard-response","533","744953","0.0-1.0-735.0-0.0","0","0","86668","","null","","","null","81","","","","","","","","","","","","","","","",""
"","time_out","","html-keyboard-response","534","746963","0.0-1.0-737.0-0.0","0","0","86668","","null","","","null","81","","","","","","","","","","","","","","","",""
"","ITI","","html-keyboard-response","535","747973","0.0-1.0-738.0","0","0","86668","","null","","","null","81","","","","","","","","","","","","","","","NaN",""
"","S1","","html-keyboard-response","536","748234","0.0-1.0-740.0","0","0","86668","","null","","","null","82","","","","","","","","","","","","","","","",""
"","ISI","","html-keyboard-response","537","749244","0.0-1.0-741.0","0","0","86668","","null","","","null","82","NaN","","","","","","","","","","","","","","",""
"","S2","","html-keyboard-response","538","749506","0.0-1.0-742.0","0","0","86668","","null","","","null","82","","NaN","","","","","","","","","","","","","",""
"","response","","html-keyboard-response","539","749878","0.0-1.0-743.0-0.0","0","0","86668","","370","","","75","82","","","2","82","training","adjacent","AB","1","2","N.jpg","M.jpg","0","1","0","",""
"","feedback","","html-keyboard-response","540","750893","0.0-1.0-744.0-0.0","0","0","86668","","null","","","null","82","","","","","","","","","","","","","","","",""
"","time_out","","html-keyboard-response","541","752901","0.0-1.0-746.0-0.0","0","0","86668","","null","","","null","82","","","","","","","","","","","","","","","",""
"","ITI","","html-keyboard-response","542","753906","0.0-1.0-747.0","0","0","86668","","null","","","null","82","","","","","","","","","","","","","","","NaN",""
"","S1","","html-keyboard-response","543","754161","0.0-1.0-749.0","0","0","86668","","null","","","null","83","","","","","","","","","","","","","","","",""
"","ISI","","html-keyboard-response","544","755169","0.0-1.0-750.0","0","0","86668","","null","","","null","83","NaN","","","","","","","","","","","","","","",""
"","S2","","html-keyboard-response","545","755426","0.0-1.0-751.0","0","0","86668","","null","","","null","83","","NaN","","","","","","","","","","","","","",""
"","response","","html-keyboard-response","546","755703","0.0-1.0-752.0-0.0","0","0","86668","","275","","","75","83","","","2","83","training","adjacent","AB","1","2","N.jpg","M.jpg","0","1","0","",""
"","feedback","","html-keyboard-response","547","756715","0.0-1.0-753.0-0.0","0","0","86668","","null","","","null","83","","","","","","","","","","","","","","","",""
"","time_out","","html-keyboard-response","548","758723","0.0-1.0-755.0-0.0","0","0","86668","","null","","","null","83","","","","","","","","","","","","","","","",""
"","ITI","","html-keyboard-response","549","759730","0.0-1.0-756.0","0","0","86668","","null","","","null","83","","","","","","","","","","","","","","","NaN",""
"","S1","","html-keyboard-response","550","759988","0.0-1.0-758.0","0","0","86668","","null","","","null","84","","","","","","","","","","","","","","","",""
"","ISI","","html-keyboard-response","551","760993","0.0-1.0-759.0","0","0","86668","","null","","","null","84","NaN","","","","","","","","","","","","","","",""
"","S2","","html-keyboard-response","552","761249","0.0-1.0-760.0","0","0","86668","","null","","","null","84","","NaN","","","","","","","","","","","","","",""
"","response","","html-keyboard-response","553","761549","0.0-1.0-761.0-0.0","0","0","86668","","298","","","68","84","","","2","84","training","adjacent","BA","2","1","M.jpg","N.jpg","1","0","0","",""
"","feedback","","html-keyboard-response","554","762555","0.0-1.0-762.0-0.0","0","0","86668","","null","","","null","84","","","","","","","","","","","","","","","",""
"","time_out","","html-keyboard-response","555","764562","0.0-1.0-764.0-0.0","0","0","86668","","null","","","null","84","","","","","","","","","","","","","","","",""
"","ITI","","html-keyboard-response","556","765572","0.0-1.0-765.0","0","0","86668","","null","","","null","84","","","","","","","","","","","","","","","NaN",""
"","S1","","html-keyboard-response","557","765834","0.0-1.0-767.0","0","0","86668","","null","","","null","85","","","","","","","","","","","","","","","",""
"","ISI","","html-keyboard-response","558","766844","0.0-1.0-768.0","0","0","86668","","null","","","null","85","NaN","","","","","","","","","","","","","","",""
"","S2","","html-keyboard-response","559","767106","0.0-1.0-769.0","0","0","86668","","null","","","null","85","","NaN","","","","","","","","","","","","","",""
"","response","","html-keyboard-response","560","767398","0.0-1.0-770.0-0.0","0","0","86668","","290","","","75","85","","","2","85","training","adjacent","GF","7","6","Q.jpg","O.jpg","0","0","1","",""
"","feedback","","html-keyboard-response","561","768412","0.0-1.0-771.0-0.0","0","0","86668","","null","","","null","85","","","","","","","","","","","","","","","",""
"","ITI","","html-keyboard-response","562","769416","0.0-1.0-774.0","0","0","86668","","null","","","null","85","","","","","","","","","","","","","","","NaN",""
"","S1","","html-keyboard-response","563","769673","0.0-1.0-776.0","0","0","86668","","null","","","null","86","","","","","","","","","","","","","","","",""
"","ISI","","html-keyboard-response","564","770681","0.0-1.0-777.0","0","0","86668","","null","","","null","86","NaN","","","","","","","","","","","","","","",""
"","S2","","html-keyboard-response","565","770937","0.0-1.0-778.0","0","0","86668","","null","","","null","86","","NaN","","","","","","","","","","","","","",""
"","response","","html-keyboard-response","566","771237","0.0-1.0-779.0-0.0","0","0","86668","","298","","","75","86","","","2","86","training","adjacent","FE","6","5","O.jpg","L.jpg","0","0","1","",""
"","feedback","","html-keyboard-response","567","772244","0.0-1.0-780.0-0.0","0","0","86668","","null","","","null","86","","","","","","","","","","","","","","","",""
"","ITI","","html-keyboard-response","568","773253","0.0-1.0-783.0","0","0","86668","","null","","","null","86","","","","","","","","","","","","","","","NaN",""
"","S1","","html-keyboard-response","569","773514","0.0-1.0-785.0","0","0","86668","","null","","","null","87","","","","","","","","","","","","","","","",""
"","ISI","","html-keyboard-response","570","774524","0.0-1.0-786.0","0","0","86668","","null","","","null","87","NaN","","","","","","","","","","","","","","",""
"","S2","","html-keyboard-response","571","774785","0.0-1.0-787.0","0","0","86668","","null","","","null","87","","NaN","","","","","","","","","","","","","",""
"","response","","html-keyboard-response","572","775357","0.0-1.0-788.0-0.0","0","0","86668","","570","","","68","87","","","2","87","training","adjacent","GF","7","6","Q.jpg","O.jpg","1","0","0","",""
"","feedback","","html-keyboard-response","573","776363","0.0-1.0-789.0-0.0","0","0","86668","","null","","","null","87","","","","","","","","","","","","","","","",""
"","time_out","","html-keyboard-response","574","778373","0.0-1.0-791.0-0.0","0","0","86668","","null","","","null","87","","","","","","","","","","","","","","","",""
"","ITI","","html-keyboard-response","575","779377","0.0-1.0-792.0","0","0","86668","","null","","","null","87","","","","","","","","","","","","","","","NaN",""
"","S1","","html-keyboard-response","576","779632","0.0-1.0-794.0","0","0","86668","","null","","","null","88","","","","","","","","","","","","","","","",""
"","ISI","","html-keyboard-response","577","780641","0.0-1.0-795.0","0","0","86668","","null","","","null","88","NaN","","","","","","","","","","","","","","",""
"","S2","","html-keyboard-response","578","780897","0.0-1.0-796.0","0","0","86668","","null","","","null","88","","NaN","","","","","","","","","","","","","",""
"","response","","html-keyboard-response","579","781230","0.0-1.0-797.0-0.0","0","0","86668","","331","","","68","88","","","2","88","training","adjacent","CB","3","2","R.jpg","M.jpg","1","0","0","",""
"","feedback","","html-keyboard-response","580","782244","0.0-1.0-798.0-0.0","0","0","86668","","null","","","null","88","","","","","","","","","","","","","","","",""
