"success","ttype","start_time","trial_type","trial_index","time_elapsed","internal_node_id","warning","missed_checkup","PID","view_history","rt","responses","repeat_instructions","key_press","index","keypress_isi","keypress_S2","block","trial_num","phase","group_type","pair_type","S1_stim","S2_stim","S1_img","S2_img","S1_chosen","S1_higher","accuracy","keypress_iti","total_bonus_tally"
"true","full_screen","d08052022hr1227","fullscreen","0","14982","0.0-0.0","0","0","88731","","","","","","","","","","","","","","","","","","","","","",""
"","instructions","","instructions","1","140278","0.0-1.0-0.0-0.0","0","0","88731","[{""page_index"":0,""viewing_time"":23093},{""page_index"":1,""viewing_time"":45552},{""page_index"":2,""viewing_time"":17352},{""page_index"":1,""viewing_time"":33712},{""page_index"":2,""viewing_time"":3922},{""page_index"":3,""viewing_time"":1663}]","125294","","","","","","","","","","","","","","","","","","","",""
"","comprehension_check","","survey-multi-choice","2","177442","0.0-1.0-0.0-1.0","0","0","88731","","37159","{""Q0"":""True"",""Q1"":""K"",""Q2"":""Only when the screen 'MAKE A CHOICE' is shown"",""Q3"":""Green mark"",""Q4"":""either D or K""}","1","","","","","","","","","","","","","","","","","",""
"","missed_instruction_checkup","","html-keyboard-response","3","180489","0.0-1.0-0.0-2.0-0.0","0","1","88731","","3044","","","32","","","","","","","","","","","","","","","","",""
"","instructions","","instructions","4","214649","0.0-1.0-0.1-0.1","0","0","88731","[{""page_index"":0,""viewing_time"":1723},{""page_index"":1,""viewing_time"":26083},{""page_index"":2,""viewing_time"":5262},{""page_index"":3,""viewing_time"":1091}]","34159","","","","","","","","","","","","","","","","","","","",""
"","comprehension_check","","survey-multi-choice","5","232172","0.0-1.0-0.1-1.1","0","0","88731","","17517","{""Q0"":""True"",""Q1"":""K"",""Q2"":""Once the second image appears and while the screen 'MAKE A CHOICE' is shown"",""Q3"":""Green mark"",""Q4"":""either D or K""}","0","","","","","","","","","","","","","","","","","",""
"","start_exp","","html-keyboard-response","6","236689","0.0-1.0-1.0","0","0","88731","","4515","","","32","","","","","","","","","","","","","","","","",""
"","S1","","html-keyboard-response","7","236942","0.0-1.0-2.0","0","0","88731","","null","","","null","0","","","","","","","","","","","","","","","",""
"","ISI","","html-keyboard-response","8","238944","0.0-1.0-3.0","0","0","88731","","null","","","null","0","NaN","","","","","","","","","","","","","","",""
"","S2","","html-keyboard-response","9","239197","0.0-1.0-4.0","0","0","88731","","null","","","null","0","","NaN","","","","","","","","","","","","","",""
"","response","","html-keyboard-response","10","240322","0.0-1.0-5.0-0.0","0","0","88731","","1123","","","75","0","","","1","0","training","adjacent","BA","2","1","O.jpg","R.jpg","1","0","0","",""
"","feedback","","html-keyboard-response","11","241324","0.0-1.0-6.0-0.0","0","0","88731","","null","","","null","0","","","","","","","","","","","","","","","",""
"","time_out","","html-keyboard-response","12","243326","0.0-1.0-8.0-0.0","0","0","88731","","null","","","null","0","","","","","","","","","","","","","","","",""
"","ITI","","html-keyboard-response","13","244328","0.0-1.0-9.0","0","0","88731","","null","","","null","0","","","","","","","","","","","","","","","NaN",""
"","S1","","html-keyboard-response","14","244580","0.0-1.0-11.0","0","0","88731","","null","","","null","1","","","","","","","","","","","","","","","",""
"","ISI","","html-keyboard-response","15","246583","0.0-1.0-12.0","0","0","88731","","null","","","null","1","NaN","","","","","","","","","","","","","","",""
"","S2","","html-keyboard-response","16","246836","0.0-1.0-13.0","0","0","88731","","null","","","null","1","","NaN","","","","","","","","","","","","","",""
"","response","","html-keyboard-response","17","248401","0.0-1.0-14.0-0.0","0","0","88731","","1564","","","68","1","","","1","1","training","adjacent","AB","1","2","R.jpg","O.jpg","0","1","0","",""
"","feedback","","html-keyboard-response","18","249404","0.0-1.0-15.0-0.0","0","0","88731","","null","","","null","1","","","","","","","","","","","","","","","",""
"","time_out","","html-keyboard-response","19","251406","0.0-1.0-17.0-0.0","0","0","88731","","null","","","null","1","","","","","","","","","","","","","","","",""
"","ITI","","html-keyboard-response","20","252409","0.0-1.0-18.0","0","0","88731","","null","","","null","1","","","","","","","","","","","","","","","NaN",""
"","S1","","html-keyboard-response","21","252661","0.0-1.0-20.0","0","0","88731","","null","","","null","2","","","","","","","","","","","","","","","",""
"","ISI","","html-keyboard-response","22","254664","0.0-1.0-21.0","0","0","88731","","null","","","null","2","NaN","","","","","","","","","","","","","","",""
"","S2","","html-keyboard-response","23","254917","0.0-1.0-22.0","0","0","88731","","null","","","null","2","","NaN","","","","","","","","","","","","","",""
"","response","","html-keyboard-response","24","256186","0.0-1.0-23.0-0.0","0","0","88731","","1267","","","68","2","","","1","2","training","adjacent","GF","7","6","P.jpg","M.jpg","0","0","1","",""
"","feedback","","html-keyboard-response","25","257194","0.0-1.0-24.0-0.0","0","0","88731","","null","","","null","2","","","","","","","","","","","","","","","",""
"","ITI","","html-keyboard-response","26","258197","0.0-1.0-27.0","0","0","88731","","null","","","null","2","","","","","","","","","","","","","","","NaN",""
"","S1","","html-keyboard-response","27","258449","0.0-1.0-29.0","0","0","88731","","null","","","null","3","","","","","","","","","","","","","","","",""
"","ISI","","html-keyboard-response","28","260451","0.0-1.0-30.0","0","0","88731","","null","","","null","3","NaN","","","","","","","","","","","","","","",""
"","S2","","html-keyboard-response","29","260704","0.0-1.0-31.0","0","0","88731","","null","","","null","3","","NaN","","","","","","","","","","","","","",""
"","response","","html-keyboard-response","30","261929","0.0-1.0-32.0-0.0","0","0","88731","","1224","","","68","3","","","1","3","training","adjacent","CB","3","2","Q.jpg","O.jpg","0","0","1","",""
"","feedback","","html-keyboard-response","31","262932","0.0-1.0-33.0-0.0","0","0","88731","","null","","","null","3","","","","","","","","","","","","","","","",""
"","ITI","","html-keyboard-response","32","263934","0.0-1.0-36.0","0","0","88731","","null","","","null","3","","","","","","","","","","","","","","","NaN",""
"","S1","","html-keyboard-response","33","264186","0.0-1.0-38.0","0","0","88731","","null","","","null","4","","","","","","","","","","","","","","","",""
"","ISI","","html-keyboard-response","34","266188","0.0-1.0-39.0","0","0","88731","","null","","","null","4","NaN","","","","","","","","","","","","","","",""
"","S2","","html-keyboard-response","35","266440","0.0-1.0-40.0","0","0","88731","","null","","","null","4","","NaN","","","","","","","","","","","","","",""
"","response","","html-keyboard-response","36","267640","0.0-1.0-41.0-0.0","0","0","88731","","1198","","","75","4","","","1","4","training","adjacent","DC","4","3","N.jpg","Q.jpg","1","0","0","",""
"","feedback","","html-keyboard-response","37","268642","0.0-1.0-42.0-0.0","0","0","88731","","null","","","null","4","","","","","","","","","","","","","","","",""
"","time_out","","html-keyboard-response","38","270645","0.0-1.0-44.0-0.0","0","0","88731","","null","","","null","4","","","","","","","","","","","","","","","",""
"","ITI","","html-keyboard-response","39","271647","0.0-1.0-45.0","0","0","88731","","null","","","null","4","","","","","","","","","","","","","","","NaN",""
"","S1","","html-keyboard-response","40","271899","0.0-1.0-47.0","0","0","88731","","null","","","null","5","","","","","","","","","","","","","","","",""
"","ISI","","html-keyboard-response","41","273901","0.0-1.0-48.0","0","0","88731","","null","","","null","5","NaN","","","","","","","","","","","","","","",""
"","S2","","html-keyboard-response","42","274154","0.0-1.0-49.0","0","0","88731","","null","","","null","5","","NaN","","","","","","","","","","","","","",""
"","response","","html-keyboard-response","43","274841","0.0-1.0-50.0-0.0","0","0","88731","","686","","","75","5","","","1","5","training","adjacent","BC","2","3","O.jpg","Q.jpg","1","1","1","",""
"","feedback","","html-keyboard-response","44","275844","0.0-1.0-51.0-0.0","0","0","88731","","null","","","null","5","","","","","","","","","","","","","","","",""
"","ITI","","html-keyboard-response","45","276846","0.0-1.0-54.0","0","0","88731","","null","","","null","5","","","","","","","","","","","","","","","NaN",""
"","S1","","html-keyboard-response","46","277099","0.0-1.0-56.0","0","0","88731","","null","","","null","6","","","","","","","","","","","","","","","",""
"","ISI","","html-keyboard-response","47","279102","0.0-1.0-57.0","0","0","88731","","null","","","null","6","NaN","","","","","","","","","","","","","","",""
"","S2","","html-keyboard-response","48","279354","0.0-1.0-58.0","0","0","88731","","null","","","null","6","","NaN","","","","","","","","","","","","","",""
"","response","","html-keyboard-response","49","280297","0.0-1.0-59.0-0.0","0","0","88731","","942","","","75","6","","","1","6","training","adjacent","DE","4","5","N.jpg","L.jpg","1","1","1","",""
"","feedback","","html-keyboard-response","50","281298","0.0-1.0-60.0-0.0","0","0","88731","","null","","","null","6","","","","","","","","","","","","","","","",""
"","ITI","","html-keyboard-response","51","282300","0.0-1.0-63.0","0","0","88731","","null","","","null","6","","","","","","","","","","","","","","","NaN",""
"","S1","","html-keyboard-response","52","282553","0.0-1.0-65.0","0","0","88731","","null","","","null","7","","","","","","","","","","","","","","","",""
"","ISI","","html-keyboard-response","53","284555","0.0-1.0-66.0","0","0","88731","","null","","","null","7","NaN","","","","","","","","","","","","","","",""
"","S2","","html-keyboard-response","54","284808","0.0-1.0-67.0","0","0","88731","","null","","","null","7","","NaN","","","","","","","","","","","","","",""
"","response","","html-keyboard-response","55","285449","0.0-1.0-68.0-0.0","0","0","88731","","640","","","68","7","","","1","7","training","adjacent","GF","7","6","P.jpg","M.jpg","0","0","1","",""
"","feedback","","html-keyboard-response","56","286451","0.0-1.0-69.0-0.0","0","0","88731","","null","","","null","7","","","","","","","","","","","","","","","",""
"","ITI","","html-keyboard-response","57","287454","0.0-1.0-72.0","0","0","88731","","null","","","null","7","","","","","","","","","","","","","","","NaN",""
"","S1","","html-keyboard-response","58","287706","0.0-1.0-74.0","0","0","88731","","null","","","null","8","","","","","","","","","","","","","","","",""
"","ISI","","html-keyboard-response","59","289709","0.0-1.0-75.0","0","0","88731","","null","","","null","8","NaN","","","","","","","","","","","","","","",""
"","S2","","html-keyboard-response","60","289961","0.0-1.0-76.0","0","0","88731","","null","","","null","8","","NaN","","","","","","","","","","","","","",""
"","response","","html-keyboard-response","61","290297","0.0-1.0-77.0-0.0","0","0","88731","","333","","","68","8","","","1","8","training","adjacent","EF","5","6","L.jpg","M.jpg","0","1","0","",""
"","feedback","","html-keyboard-response","62","291299","0.0-1.0-78.0-0.0","0","0","88731","","null","","","null","8","","","","","","","","","","","","","","","",""
"","time_out","","html-keyboard-response","63","293301","0.0-1.0-80.0-0.0","0","0","88731","","null","","","null","8","","","","","","","","","","","","","","","",""
"","ITI","","html-keyboard-response","64","294303","0.0-1.0-81.0","0","0","88731","","null","","","null","8","","","","","","","","","","","","","","","NaN",""
"","S1","","html-keyboard-response","65","294555","0.0-1.0-83.0","0","0","88731","","null","","","null","9","","","","","","","","","","","","","","","",""
"","ISI","","html-keyboard-response","66","296557","0.0-1.0-84.0","0","0","88731","","null","","","null","9","NaN","","","","","","","","","","","","","","",""
"","S2","","html-keyboard-response","67","296809","0.0-1.0-85.0","0","0","88731","","null","","","null","9","","NaN","","","","","","","","","","","","","",""
"","response","","html-keyboard-response","68","297393","0.0-1.0-86.0-0.0","0","0","88731","","582","","","75","9","","","1","9","training","adjacent","FG","6","7","M.jpg","P.jpg","1","1","1","",""
"","feedback","","html-keyboard-response","69","298395","0.0-1.0-87.0-0.0","0","0","88731","","null","","","null","9","","","","","","","","","","","","","","","",""
"","ITI","","html-keyboard-response","70","299398","0.0-1.0-90.0","0","0","88731","","null","","","null","9","","","","","","","","","","","","","","","NaN",""
"","S1","","html-keyboard-response","71","299649","0.0-1.0-92.0","0","0","88731","","null","","","null","10","","","","","","","","","","","","","","","",""
"","ISI","","html-keyboard-response","72","301652","0.0-1.0-93.0","0","0","88731","","null","","","null","10","NaN","","","","","","","","","","","","","","",""
"","S2","","html-keyboard-response","73","301905","0.0-1.0-94.0","0","0","88731","","null","","","null","10","","NaN","","","","","","","","","","","","","",""
"","response","","html-keyboard-response","74","302401","0.0-1.0-95.0-0.0","0","0","88731","","493","","","75","10","","","1","10","training","adjacent","BC","2","3","O.jpg","Q.jpg","1","1","1","",""
"","feedback","","html-keyboard-response","75","303403","0.0-1.0-96.0-0.0","0","0","88731","","null","","","null","10","","","","","","","","","","","","","","","",""
"","ITI","","html-keyboard-response","76","304406","0.0-1.0-99.0","0","0","88731","","null","","","null","10","","","","","","","","","","","","","","","NaN",""
"","S1","","html-keyboard-response","77","304664","0.0-1.0-101.0","0","0","88731","","null","","","null","11","","","","","","","","","","","","","","","",""
"","ISI","","html-keyboard-response","78","306666","0.0-1.0-102.0","0","0","88731","","null","","","null","11","NaN","","","","","","","","","","","","","","",""
"","S2","","html-keyboard-response","79","306918","0.0-1.0-103.0","0","0","88731","","null","","","null","11","","NaN","","","","","","","","","","","","","",""
"","response","","html-keyboard-response","80","307841","0.0-1.0-104.0-0.0","0","0","88731","","921","","","68","11","","","1","11","training","adjacent","CB","3","2","Q.jpg","O.jpg","0","0","1","",""
"","feedback","","html-keyboard-response","81","308844","0.0-1.0-105.0-0.0","0","0","88731","","null","","","null","11","","","","","","","","","","","","","","","",""
"","ITI","","html-keyboard-response","82","309847","0.0-1.0-108.0","0","0","88731","","null","","","null","11","","","","","","","","","","","","","","","NaN",""
"","S1","","html-keyboard-response","83","310100","0.0-1.0-110.0","0","0","88731","","null","","","null","12","","","","","","","","","","","","","","","",""
"","ISI","","html-keyboard-response","84","312102","0.0-1.0-111.0","0","0","88731","","null","","","null","12","NaN","","","","","","","","","","","","","","",""
"","S2","","html-keyboard-response","85","312354","0.0-1.0-112.0","0","0","88731","","null","","","null","12","","NaN","","","","","","","","","","","","","",""
"","response","","html-keyboard-response","86","312881","0.0-1.0-113.0-0.0","0","0","88731","","526","","","68","12","","","1","12","training","adjacent","CD","3","4","Q.jpg","N.jpg","0","1","0","",""
"","feedback","","html-keyboard-response","87","313883","0.0-1.0-114.0-0.0","0","0","88731","","null","","","null","12","","","","","","","","","","","","","","","",""
"","time_out","","html-keyboard-response","88","315885","0.0-1.0-116.0-0.0","0","0","88731","","null","","","null","12","","","","","","","","","","","","","","","",""
"","ITI","","html-keyboard-response","89","316887","0.0-1.0-117.0","0","0","88731","","null","","","null","12","","","","","","","","","","","","","","","NaN",""
"","S1","","html-keyboard-response","90","317140","0.0-1.0-119.0","0","0","88731","","null","","","null","13","","","","","","","","","","","","","","","",""
"","ISI","","html-keyboard-response","91","319142","0.0-1.0-120.0","0","0","88731","","null","","","null","13","NaN","","","","","","","","","","","","","","",""
"","S2","","html-keyboard-response","92","319395","0.0-1.0-121.0","0","0","88731","","null","","","null","13","","NaN","","","","","","","","","","","","","",""
"","response","","html-keyboard-response","93","320105","0.0-1.0-122.0-0.0","0","0","88731","","709","","","75","13","","","1","13","training","adjacent","ED","5","4","L.jpg","N.jpg","1","0","0","",""
"","feedback","","html-keyboard-response","94","321108","0.0-1.0-123.0-0.0","0","0","88731","","null","","","null","13","","","","","","","","","","","","","","","",""
"","time_out","","html-keyboard-response","95","323111","0.0-1.0-125.0-0.0","0","0","88731","","null","","","null","13","","","","","","","","","","","","","","","",""
"","ITI","","html-keyboard-response","96","324114","0.0-1.0-126.0","0","0","88731","","null","","","null","13","","","","","","","","","","","","","","","NaN",""
"","S1","","html-keyboard-response","97","324367","0.0-1.0-128.0","0","0","88731","","null","","","null","14","","","","","","","","","","","","","","","",""
"","ISI","","html-keyboard-response","98","326369","0.0-1.0-129.0","0","0","88731","","null","","","null","14","NaN","","","","","","","","","","","","","","",""
"","S2","","html-keyboard-response","99","326621","0.0-1.0-130.0","0","0","88731","","null","","","null","14","","NaN","","","","","","","","","","","","","",""
"","response","","html-keyboard-response","100","326945","0.0-1.0-131.0-0.0","0","0","88731","","322","","","68","14","","","1","14","training","adjacent","ED","5","4","L.jpg","N.jpg","0","0","1","",""
"","feedback","","html-keyboard-response","101","327948","0.0-1.0-132.0-0.0","0","0","88731","","null","","","null","14","","","","","","","","","","","","","","","",""
"","ITI","","html-keyboard-response","102","328949","0.0-1.0-135.0","0","0","88731","","null","","","null","14","","","","","","","","","","","","","","","NaN",""
"","S1","","html-keyboard-response","103","329202","0.0-1.0-137.0","0","0","88731","","null","","","null","15","","","","","","","","","","","","","","","",""
"","ISI","","html-keyboard-response","104","331204","0.0-1.0-138.0","0","0","88731","","null","","","null","15","NaN","","","","","","","","","","","","","","",""
"","S2","","html-keyboard-response","105","331456","0.0-1.0-139.0","0","0","88731","","null","","","null","15","","NaN","","","","","","","","","","","","","",""
"","response","","html-keyboard-response","106","332250","0.0-1.0-140.0-0.0","0","0","88731","","792","","","68","15","","","1","15","training","adjacent","CB","3","2","Q.jpg","O.jpg","0","0","1","",""
"","feedback","","html-keyboard-response","107","333252","0.0-1.0-141.0-0.0","0","0","88731","","null","","","null","15","","","","","","","","","","","","","","","",""
"","ITI","","html-keyboard-response","108","334255","0.0-1.0-144.0","0","0","88731","","null","","","null","15","","","","","","","","","","","","","","","NaN",""
"","S1","","html-keyboard-response","109","334507","0.0-1.0-146.0","0","0","88731","","null","","","null","16","","","","","","","","","","","","","","","",""
"","ISI","","html-keyboard-response","110","336510","0.0-1.0-147.0","0","0","88731","","null","","","null","16","NaN","","","","","","","","","","","","","","",""
"","S2","","html-keyboard-response","111","336762","0.0-1.0-148.0","0","0","88731","","null","","","null","16","","NaN","","","","","","","","","","","","","",""
"","response","","html-keyboard-response","112","337377","0.0-1.0-149.0-0.0","0","0","88731","","614","","","75","16","","","1","16","training","adjacent","FE","6","5","M.jpg","L.jpg","1","0","0","",""
"","feedback","","html-keyboard-response","113","338380","0.0-1.0-150.0-0.0","0","0","88731","","null","","","null","16","","","","","","","","","","","","","","","",""
"","time_out","","html-keyboard-response","114","340383","0.0-1.0-152.0-0.0","0","0","88731","","null","","","null","16","","","","","","","","","","","","","","","",""
"","ITI","","html-keyboard-response","115","341386","0.0-1.0-153.0","0","0","88731","","null","","","null","16","","","","","","","","","","","","","","","NaN",""
"","S1","","html-keyboard-response","116","341649","0.0-1.0-155.0","0","0","88731","","null","","","null","17","","","","","","","","","","","","","","","",""
"","ISI","","html-keyboard-response","117","343652","0.0-1.0-156.0","0","0","88731","","null","","","null","17","NaN","","","","","","","","","","","","","","",""
"","S2","","html-keyboard-response","118","343904","0.0-1.0-157.0","0","0","88731","","null","","","null","17","","NaN","","","","","","","","","","","","","",""
"","response","","html-keyboard-response","119","344538","0.0-1.0-158.0-0.0","0","0","88731","","632","","","68","17","","","1","17","training","adjacent","AB","1","2","R.jpg","O.jpg","0","1","0","",""
"","feedback","","html-keyboard-response","120","345540","0.0-1.0-159.0-0.0","0","0","88731","","null","","","null","17","","","","","","","","","","","","","","","",""
"","time_out","","html-keyboard-response","121","347542","0.0-1.0-161.0-0.0","0","0","88731","","null","","","null","17","","","","","","","","","","","","","","","",""
"","ITI","","html-keyboard-response","122","348544","0.0-1.0-162.0","0","0","88731","","null","","","null","17","","","","","","","","","","","","","","","NaN",""
"","S1","","html-keyboard-response","123","348797","0.0-1.0-164.0","0","0","88731","","null","","","null","18","","","","","","","","","","","","","","","",""
"","ISI","","html-keyboard-response","124","350799","0.0-1.0-165.0","0","0","88731","","null","","","null","18","NaN","","","","","","","","","","","","","","",""
"","S2","","html-keyboard-response","125","351053","0.0-1.0-166.0","0","0","88731","","null","","","null","18","","NaN","","","","","","","","","","","","","",""
"","response","","html-keyboard-response","126","351714","0.0-1.0-167.0-0.0","0","0","88731","","660","","","75","18","","","1","18","training","adjacent","BC","2","3","O.jpg","Q.jpg","1","1","1","",""
"","feedback","","html-keyboard-response","127","352716","0.0-1.0-168.0-0.0","0","0","88731","","null","","","null","18","","","","","","","","","","","","","","","",""
"","ITI","","html-keyboard-response","128","353718","0.0-1.0-171.0","0","0","88731","","null","","","null","18","","","","","","","","","","","","","","","NaN",""
"","S1","","html-keyboard-response","129","353970","0.0-1.0-173.0","0","0","88731","","null","","","null","19","","","","","","","","","","","","","","","",""
"","ISI","","html-keyboard-response","130","355972","0.0-1.0-174.0","0","0","88731","","null","","","null","19","NaN","","","","","","","","","","","","","","",""
"","S2","","html-keyboard-response","131","356226","0.0-1.0-175.0","0","0","88731","","null","","","null","19","","NaN","","","","","","","","","","","","","",""
"","response","","html-keyboard-response","132","356890","0.0-1.0-176.0-0.0","0","0","88731","","663","","","68","19","","","1","19","training","adjacent","GF","7","6","P.jpg","M.jpg","0","0","1","",""
"","feedback","","html-keyboard-response","133","357892","0.0-1.0-177.0-0.0","0","0","88731","","null","","","null","19","","","","","","","","","","","","","","","",""
"","ITI","","html-keyboard-response","134","358894","0.0-1.0-180.0","0","0","88731","","null","","","null","19","","","","","","","","","","","","","","","NaN",""
"","S1","","html-keyboard-response","135","359147","0.0-1.0-182.0","0","0","88731","","null","","","null","20","","","","","","","","","","","","","","","",""
"","ISI","","html-keyboard-response","136","361149","0.0-1.0-183.0","0","0","88731","","null","","","null","20","NaN","","","","","","","","","","","","","","",""
"","S2","","html-keyboard-response","137","361402","0.0-1.0-184.0","0","0","88731","","null","","","null","20","","NaN","","","","","","","","","","","","","",""
"","response","","html-keyboard-response","138","362073","0.0-1.0-185.0-0.0","0","0","88731","","669","","","75","20","","","1","20","training","adjacent","BA","2","1","O.jpg","R.jpg","1","0","0","",""
"","feedback","","html-keyboard-response","139","363075","0.0-1.0-186.0-0.0","0","0","88731","","null","","","null","20","","","","","","","","","","","","","","","",""
"","time_out","","html-keyboard-response","140","365077","0.0-1.0-188.0-0.0","0","0","88731","","null","","","null","20","","","","","","","","","","","","","","","",""
"","ITI","","html-keyboard-response","141","366079","0.0-1.0-189.0","0","0","88731","","null","","","null","20","","","","","","","","","","","","","","","NaN",""
"","S1","","html-keyboard-response","142","366332","0.0-1.0-191.0","0","0","88731","","null","","","null","21","","","","","","","","","","","","","","","",""
"","ISI","","html-keyboard-response","143","368335","0.0-1.0-192.0","0","0","88731","","null","","","null","21","NaN","","","","","","","","","","","","","","",""
"","S2","","html-keyboard-response","144","368587","0.0-1.0-193.0","0","0","88731","","null","","","null","21","","NaN","","","","","","","","","","","","","",""
"","response","","html-keyboard-response","145","369065","0.0-1.0-194.0-0.0","0","0","88731","","476","","","68","21","","","1","21","training","adjacent","FE","6","5","M.jpg","L.jpg","0","0","1","",""
"","feedback","","html-keyboard-response","146","370067","0.0-1.0-195.0-0.0","0","0","88731","","null","","","null","21","","","","","","","","","","","","","","","",""
"","ITI","","html-keyboard-response","147","371070","0.0-1.0-198.0","0","0","88731","","null","","","null","21","","","","","","","","","","","","","","","NaN",""
"","S1","","html-keyboard-response","148","371323","0.0-1.0-200.0","0","0","88731","","null","","","null","22","","","","","","","","","","","","","","","",""
"","ISI","","html-keyboard-response","149","373325","0.0-1.0-201.0","0","0","88731","","null","","","null","22","NaN","","","","","","","","","","","","","","",""
"","S2","","html-keyboard-response","150","373578","0.0-1.0-202.0","0","0","88731","","null","","","null","22","","NaN","","","","","","","","","","","","","",""
"","response","","html-keyboard-response","151","374521","0.0-1.0-203.0-0.0","0","0","88731","","942","","","68","22","","","1","22","training","adjacent","EF","5","6","L.jpg","M.jpg","0","1","0","",""
"","feedback","","html-keyboard-response","152","375523","0.0-1.0-204.0-0.0","0","0","88731","","null","","","null","22","","","","","","","","","","","","","","","",""
"","time_out","","html-keyboard-response","153","377525","0.0-1.0-206.0-0.0","0","0","88731","","null","","","null","22","","","","","","","","","","","","","","","",""
"","ITI","","html-keyboard-response","154","378527","0.0-1.0-207.0","0","0","88731","","null","","","null","22","","","","","","","","","","","","","","","NaN",""
"","S1","","html-keyboard-response","155","378779","0.0-1.0-209.0","0","0","88731","","null","","","null","23","","","","","","","","","","","","","","","",""
"","ISI","","html-keyboard-response","156","380781","0.0-1.0-210.0","0","0","88731","","null","","","null","23","NaN","","","","","","","","","","","","","","",""
"","S2","","html-keyboard-response","157","381033","0.0-1.0-211.0","0","0","88731","","null","","","null","23","","NaN","","","","","","","","","","","","","",""
"","response","","html-keyboard-response","158","381849","0.0-1.0-212.0-0.0","0","0","88731","","815","","","68","23","","","1","23","training","adjacent","DE","4","5","N.jpg","L.jpg","0","1","0","",""
"","feedback","","html-keyboard-response","159","382852","0.0-1.0-213.0-0.0","0","0","88731","","null","","","null","23","","","","","","","","","","","","","","","",""
"","time_out","","html-keyboard-response","160","384854","0.0-1.0-215.0-0.0","0","0","88731","","null","","","null","23","","","","","","","","","","","","","","","",""
"","ITI","","html-keyboard-response","161","385856","0.0-1.0-216.0","0","0","88731","","null","","","null","23","","","","","","","","","","","","","","","NaN",""
"","S1","","html-keyboard-response","162","386119","0.0-1.0-218.0","0","0","88731","","null","","","null","24","","","","","","","","","","","","","","","",""
"","ISI","","html-keyboard-response","163","388121","0.0-1.0-219.0","0","0","88731","","null","","","null","24","NaN","","","","","","","","","","","","","","",""
"","S2","","html-keyboard-response","164","388374","0.0-1.0-220.0","0","0","88731","","null","","","null","24","","NaN","","","","","","","","","","","","","",""
"","response","","html-keyboard-response","165","389137","0.0-1.0-221.0-0.0","0","0","88731","","761","","","75","24","","","1","24","training","adjacent","ED","5","4","L.jpg","N.jpg","1","0","0","",""
"","feedback","","html-keyboard-response","166","390140","0.0-1.0-222.0-0.0","0","0","88731","","null","","","null","24","","","","","","","","","","","","","","","",""
"","time_out","","html-keyboard-response","167","392141","0.0-1.0-224.0-0.0","0","0","88731","","null","","","null","24","","","","","","","","","","","","","","","",""
"","ITI","","html-keyboard-response","168","393144","0.0-1.0-225.0","0","0","88731","","null","","","null","24","","","","","","","","","","","","","","","NaN",""
"","S1","","html-keyboard-response","169","393396","0.0-1.0-227.0","0","0","88731","","null","","","null","25","","","","","","","","","","","","","","","",""
"","ISI","","html-keyboard-response","170","395398","0.0-1.0-228.0","0","0","88731","","null","","","null","25","NaN","","","","","","","","","","","","","","",""
"","S2","","html-keyboard-response","171","395651","0.0-1.0-229.0","0","0","88731","","null","","","null","25","","NaN","","","","","","","","","","","","","",""
"","response","","html-keyboard-response","172","396234","0.0-1.0-230.0-0.0","0","0","88731","","582","","","75","25","","","1","25","training","adjacent","BC","2","3","O.jpg","Q.jpg","1","1","1","",""
"","feedback","","html-keyboard-response","173","397237","0.0-1.0-231.0-0.0","0","0","88731","","null","","","null","25","","","","","","","","","","","","","","","",""
"","ITI","","html-keyboard-response","174","398239","0.0-1.0-234.0","0","0","88731","","null","","","null","25","","","","","","","","","","","","","","","NaN",""
"","S1","","html-keyboard-response","175","398492","0.0-1.0-236.0","0","0","88731","","null","","","null","26","","","","","","","","","","","","","","","",""
"","ISI","","html-keyboard-response","176","400495","0.0-1.0-237.0","0","0","88731","","null","","","null","26","NaN","","","","","","","","","","","","","","",""
"","S2","","html-keyboard-response","177","400747","0.0-1.0-238.0","0","0","88731","","null","","","null","26","","NaN","","","","","","","","","","","","","",""
"","response","","html-keyboard-response","178","401834","0.0-1.0-239.0-0.0","0","0","88731","","1085","","","75","26","","","1","26","training","adjacent","EF","5","6","L.jpg","M.jpg","1","1","1","",""
"","feedback","","html-keyboard-response","179","402837","0.0-1.0-240.0-0.0","0","0","88731","","null","","","null","26","","","","","","","","","","","","","","","",""
"","ITI","","html-keyboard-response","180","403838","0.0-1.0-243.0","0","0","88731","","null","","","null","26","","","","","","","","","","","","","","","NaN",""
"","S1","","html-keyboard-response","181","404091","0.0-1.0-245.0","0","0","88731","","null","","","null","27","","","","","","","","","","","","","","","",""
"","ISI","","html-keyboard-response","182","406093","0.0-1.0-246.0","0","0","88731","","null","","","null","27","NaN","","","","","","","","","","","","","","",""
"","S2","","html-keyboard-response","183","406345","0.0-1.0-247.0","0","0","88731","","null","","","null","27","","NaN","","","","","","","","","","","","","",""
"","response","","html-keyboard-response","184","406930","0.0-1.0-248.0-0.0","0","0","88731","","583","","","75","27","","","1","27","training","adjacent","FG","6","7","M.jpg","P.jpg","1","1","1","",""
"","feedback","","html-keyboard-response","185","407931","0.0-1.0-249.0-0.0","0","0","88731","","null","","","null","27","","","","","","","","","","","","","","","",""
"","ITI","","html-keyboard-response","186","408934","0.0-1.0-252.0","0","0","88731","","null","","","null","27","","","","","","","","","","","","","","","NaN",""
"","S1","","html-keyboard-response","187","409187","0.0-1.0-254.0","0","0","88731","","null","","","null","28","","","","","","","","","","","","","","","",""
"","ISI","","html-keyboard-response","188","411189","0.0-1.0-255.0","0","0","88731","","null","","","null","28","NaN","","","","","","","","","","","","","","",""
"","S2","","html-keyboard-response","189","411442","0.0-1.0-256.0","0","0","88731","","null","","","null","28","","NaN","","","","","","","","","","","","","",""
"","response","","html-keyboard-response","190","411858","0.0-1.0-257.0-0.0","0","0","88731","","415","","","75","28","","","1","28","training","adjacent","FG","6","7","M.jpg","P.jpg","1","1","1","",""
"","feedback","","html-keyboard-response","191","412860","0.0-1.0-258.0-0.0","0","0","88731","","null","","","null","28","","","","","","","","","","","","","","","",""
"","ITI","","html-keyboard-response","192","413861","0.0-1.0-261.0","0","0","88731","","null","","","null","28","","","","","","","","","","","","","","","NaN",""
"","S1","","html-keyboard-response","193","414115","0.0-1.0-263.0","0","0","88731","","null","","","null","29","","","","","","","","","","","","","","","",""
"","ISI","","html-keyboard-response","194","416117","0.0-1.0-264.0","0","0","88731","","null","","","null","29","NaN","","","","","","","","","","","","","","",""
"","S2","","html-keyboard-response","195","416369","0.0-1.0-265.0","0","0","88731","","null","","","null","29","","NaN","","","","","","","","","","","","","",""
"","response","","html-keyboard-response","196","416730","0.0-1.0-266.0-0.0","0","0","88731","","358","","","68","29","","","1","29","training","adjacent","FE","6","5","M.jpg","L.jpg","0","0","1","",""
"","feedback","","html-keyboard-response","197","417732","0.0-1.0-267.0-0.0","0","0","88731","","null","","","null","29","","","","","","","","","","","","","","","",""
"","ITI","","html-keyboard-response","198","418735","0.0-1.0-270.0","0","0","88731","","null","","","null","29","","","","","","","","","","","","","","","NaN",""
"","S1","","html-keyboard-response","199","418988","0.0-1.0-272.0","0","0","88731","","null","","","null","30","","","","","","","","","","","","","","","",""
"","ISI","","html-keyboard-response","200","420990","0.0-1.0-273.0","0","0","88731","","null","","","null","30","NaN","","","","","","","","","","","","","","",""
"","S2","","html-keyboard-response","201","421243","0.0-1.0-274.0","0","0","88731","","null","","","null","30","","NaN","","","","","","","","","","","","","",""
"","response","","html-keyboard-response","202","422226","0.0-1.0-275.0-0.0","0","0","88731","","981","","","68","30","","","1","30","training","adjacent","ED","5","4","L.jpg","N.jpg","0","0","1","",""
"","feedback","","html-keyboard-response","203","423229","0.0-1.0-276.0-0.0","0","0","88731","","null","","","null","30","","","","","","","","","","","","","","","",""
"","ITI","","html-keyboard-response","204","424232","0.0-1.0-279.0","0","0","88731","","null","","","null","30","","","","","","","","","","","","","","","NaN",""
"","S1","","html-keyboard-response","205","424484","0.0-1.0-281.0","0","0","88731","","null","","","null","31","","","","","","","","","","","","","","","",""
"","ISI","","html-keyboard-response","206","426487","0.0-1.0-282.0","0","0","88731","","null","","","null","31","NaN","","","","","","","","","","","","","","",""
"","S2","","html-keyboard-response","207","426740","0.0-1.0-283.0","0","0","88731","","null","","","null","31","","NaN","","","","","","","","","","","","","",""
"","response","","html-keyboard-response","208","427321","0.0-1.0-284.0-0.0","0","0","88731","","580","","","68","31","","","1","31","training","adjacent","DC","4","3","N.jpg","Q.jpg","0","0","1","",""
"","feedback","","html-keyboard-response","209","428324","0.0-1.0-285.0-0.0","0","0","88731","","null","","","null","31","","","","","","","","","","","","","","","",""
"","ITI","","html-keyboard-response","210","429326","0.0-1.0-288.0","0","0","88731","","null","","","null","31","","","","","","","","","","","","","","","NaN",""
"","S1","","html-keyboard-response","211","429579","0.0-1.0-290.0","0","0","88731","","null","","","null","32","","","","","","","","","","","","","","","",""
"","ISI","","html-keyboard-response","212","431581","0.0-1.0-291.0","0","0","88731","","null","","","null","32","NaN","","","","","","","","","","","","","","",""
"","S2","","html-keyboard-response","213","431833","0.0-1.0-292.0","0","0","88731","","null","","","null","32","","NaN","","","","","","","","","","","","","",""
"","response","","html-keyboard-response","214","432657","0.0-1.0-293.0-0.0","0","0","88731","","823","","","68","32","","","1","32","training","adjacent","GF","7","6","P.jpg","M.jpg","0","0","1","",""
"","feedback","","html-keyboard-response","215","433660","0.0-1.0-294.0-0.0","0","0","88731","","null","","","null","32","","","","","","","","","","","","","","","",""
"","ITI","","html-keyboard-response","216","434663","0.0-1.0-297.0","0","0","88731","","null","","","null","32","","","","","","","","","","","","","","","NaN",""
"","S1","","html-keyboard-response","217","434916","0.0-1.0-299.0","0","0","88731","","null","","","null","33","","","","","","","","","","","","","","","",""
"","ISI","","html-keyboard-response","218","436919","0.0-1.0-300.0","0","0","88731","","null","","","null","33","NaN","","","","","","","","","","","","","","",""
"","S2","","html-keyboard-response","219","437172","0.0-1.0-301.0","0","0","88731","","null","","","null","33","","NaN","","","","","","","","","","","","","",""
"","response","","html-keyboard-response","220","437625","0.0-1.0-302.0-0.0","0","0","88731","","452","","","75","33","","","1","33","training","adjacent","AB","1","2","R.jpg","O.jpg","1","1","1","",""
"","feedback","","html-keyboard-response","221","438629","0.0-1.0-303.0-0.0","0","0","88731","","null","","","null","33","","","","","","","","","","","","","","","",""
"","ITI","","html-keyboard-response","222","439631","0.0-1.0-306.0","0","0","88731","","null","","","null","33","","","","","","","","","","","","","","","NaN",""
"","S1","","html-keyboard-response","223","439884","0.0-1.0-308.0","0","0","88731","","null","","","null","34","","","","","","","","","","","","","","","",""
"","ISI","","html-keyboard-response","224","441886","0.0-1.0-309.0","0","0","88731","","null","","","null","34","NaN","","","","","","","","","","","","","","",""
"","S2","","html-keyboard-response","225","442141","0.0-1.0-310.0","0","0","88731","","null","","","null","34","","NaN","","","","","","","","","","","","","",""
"","response","","html-keyboard-response","226","442585","0.0-1.0-311.0-0.0","0","0","88731","","443","","","75","34","","","1","34","training","adjacent","FG","6","7","M.jpg","P.jpg","1","1","1","",""
"","feedback","","html-keyboard-response","227","443588","0.0-1.0-312.0-0.0","0","0","88731","","null","","","null","34","","","","","","","","","","","","","","","",""
"","ITI","","html-keyboard-response","228","444591","0.0-1.0-315.0","0","0","88731","","null","","","null","34","","","","","","","","","","","","","","","NaN",""
"","S1","","html-keyboard-response","229","444843","0.0-1.0-317.0","0","0","88731","","null","","","null","35","","","","","","","","","","","","","","","",""
"","ISI","","html-keyboard-response","230","446845","0.0-1.0-318.0","0","0","88731","","null","","","null","35","NaN","","","","","","","","","","","","","","",""
"","S2","","html-keyboard-response","231","447098","0.0-1.0-319.0","0","0","88731","","null","","","null","35","","NaN","","","","","","","","","","","","","",""
"","response","","html-keyboard-response","232","447418","0.0-1.0-320.0-0.0","0","0","88731","","319","","","68","35","","","1","35","training","adjacent","CB","3","2","Q.jpg","O.jpg","0","0","1","",""
"","feedback","","html-keyboard-response","233","448420","0.0-1.0-321.0-0.0","0","0","88731","","null","","","null","35","","","","","","","","","","","","","","","",""
"","ITI","","html-keyboard-response","234","449422","0.0-1.0-324.0","0","0","88731","","null","","","null","35","","","","","","","","","","","","","","","NaN",""
"","S1","","html-keyboard-response","235","449676","0.0-1.0-326.0","0","0","88731","","null","","","null","36","","","","","","","","","","","","","","","",""
"","ISI","","html-keyboard-response","236","451678","0.0-1.0-327.0","0","0","88731","","null","","","null","36","NaN","","","","","","","","","","","","","","",""
"","S2","","html-keyboard-response","237","451931","0.0-1.0-328.0","0","0","88731","","null","","","null","36","","NaN","","","","","","","","","","","","","",""
"","response","","html-keyboard-response","238","452666","0.0-1.0-329.0-0.0","0","0","88731","","733","","","75","36","","","1","36","training","adjacent","DC","4","3","N.jpg","Q.jpg","1","0","0","",""
"","feedback","","html-keyboard-response","239","453669","0.0-1.0-330.0-0.0","0","0","88731","","null","","","null","36","","","","","","","","","","","","","","","",""
"","time_out","","html-keyboard-response","240","455671","0.0-1.0-332.0-0.0","0","0","88731","","null","","","null","36","","","","","","","","","","","","","","","",""
"","ITI","","html-keyboard-response","241","456674","0.0-1.0-333.0","0","0","88731","","null","","","null","36","","","","","","","","","","","","","","","NaN",""
"","S1","","html-keyboard-response","242","456926","0.0-1.0-335.0","0","0","88731","","null","","","null","37","","","","","","","","","","","","","","","",""
"","ISI","","html-keyboard-response","243","458928","0.0-1.0-336.0","0","0","88731","","null","","","null","37","NaN","","","","","","","","","","","","","","",""
"","S2","","html-keyboard-response","244","459180","0.0-1.0-337.0","0","0","88731","","null","","","null","37","","NaN","","","","","","","","","","","","","",""
"","response","","html-keyboard-response","245","459882","0.0-1.0-338.0-0.0","0","0","88731","","700","","","68","37","","","1","37","training","adjacent","DE","4","5","N.jpg","L.jpg","0","1","0","",""
"","feedback","","html-keyboard-response","246","460885","0.0-1.0-339.0-0.0","0","0","88731","","null","","","null","37","","","","","","","","","","","","","","","",""
"","time_out","","html-keyboard-response","247","462887","0.0-1.0-341.0-0.0","0","0","88731","","null","","","null","37","","","","","","","","","","","","","","","",""
"","ITI","","html-keyboard-response","248","463890","0.0-1.0-342.0","0","0","88731","","null","","","null","37","","","","","","","","","","","","","","","NaN",""
"","S1","","html-keyboard-response","249","464142","0.0-1.0-344.0","0","0","88731","","null","","","null","38","","","","","","","","","","","","","","","",""
"","ISI","","html-keyboard-response","250","466144","0.0-1.0-345.0","0","0","88731","","null","","","null","38","NaN","","","","","","","","","","","","","","",""
"","S2","","html-keyboard-response","251","466397","0.0-1.0-346.0","0","0","88731","","null","","","null","38","","NaN","","","","","","","","","","","","","",""
"","response","","html-keyboard-response","252","467337","0.0-1.0-347.0-0.0","0","0","88731","","939","","","68","38","","","1","38","training","adjacent","CD","3","4","Q.jpg","N.jpg","0","1","0","",""
"","feedback","","html-keyboard-response","253","468340","0.0-1.0-348.0-0.0","0","0","88731","","null","","","null","38","","","","","","","","","","","","","","","",""
"","time_out","","html-keyboard-response","254","470343","0.0-1.0-350.0-0.0","0","0","88731","","null","","","null","38","","","","","","","","","","","","","","","",""
"","ITI","","html-keyboard-response","255","471344","0.0-1.0-351.0","0","0","88731","","null","","","null","38","","","","","","","","","","","","","","","NaN",""
"","S1","","html-keyboard-response","256","471597","0.0-1.0-353.0","0","0","88731","","null","","","null","39","","","","","","","","","","","","","","","",""
"","ISI","","html-keyboard-response","257","473600","0.0-1.0-354.0","0","0","88731","","null","","","null","39","NaN","","","","","","","","","","","","","","",""
"","S2","","html-keyboard-response","258","473852","0.0-1.0-355.0","0","0","88731","","null","","","null","39","","NaN","","","","","","","","","","","","","",""
"","response","","html-keyboard-response","259","474394","0.0-1.0-356.0-0.0","0","0","88731","","541","","","75","39","","","1","39","training","adjacent","CD","3","4","Q.jpg","N.jpg","1","1","1","",""
"","feedback","","html-keyboard-response","260","475396","0.0-1.0-357.0-0.0","0","0","88731","","null","","","null","39","","","","","","","","","","","","","","","",""
"","ITI","","html-keyboard-response","261","476398","0.0-1.0-360.0","0","0","88731","","null","","","null","39","","","","","","","","","","","","","","","NaN",""
"","S1","","html-keyboard-response","262","476651","0.0-1.0-362.0","0","0","88731","","null","","","null","40","","","","","","","","","","","","","","","",""
"","ISI","","html-keyboard-response","263","478653","0.0-1.0-363.0","0","0","88731","","null","","","null","40","NaN","","","","","","","","","","","","","","",""
"","S2","","html-keyboard-response","264","478907","0.0-1.0-364.0","0","0","88731","","null","","","null","40","","NaN","","","","","","","","","","","","","",""
"","response","","html-keyboard-response","265","479346","0.0-1.0-365.0-0.0","0","0","88731","","438","","","68","40","","","1","40","training","adjacent","FE","6","5","M.jpg","L.jpg","0","0","1","",""
"","feedback","","html-keyboard-response","266","480348","0.0-1.0-366.0-0.0","0","0","88731","","null","","","null","40","","","","","","","","","","","","","","","",""
"","ITI","","html-keyboard-response","267","481350","0.0-1.0-369.0","0","0","88731","","null","","","null","40","","","","","","","","","","","","","","","NaN",""
"","S1","","html-keyboard-response","268","481603","0.0-1.0-371.0","0","0","88731","","null","","","null","41","","","","","","","","","","","","","","","",""
"","ISI","","html-keyboard-response","269","483605","0.0-1.0-372.0","0","0","88731","","null","","","null","41","NaN","","","","","","","","","","","","","","",""
"","S2","","html-keyboard-response","270","483858","0.0-1.0-373.0","0","0","88731","","null","","","null","41","","NaN","","","","","","","","","","","","","",""
"","response","","html-keyboard-response","271","484633","0.0-1.0-374.0-0.0","0","0","88731","","774","","","68","41","","","1","41","training","adjacent","DC","4","3","N.jpg","Q.jpg","0","0","1","",""
"","feedback","","html-keyboard-response","272","485636","0.0-1.0-375.0-0.0","0","0","88731","","null","","","null","41","","","","","","","","","","","","","","","",""
"","ITI","","html-keyboard-response","273","486638","0.0-1.0-378.0","0","0","88731","","null","","","null","41","","","","","","","","","","","","","","","NaN",""
"","S1","","html-keyboard-response","274","486890","0.0-1.0-380.0","0","0","88731","","null","","","null","42","","","","","","","","","","","","","","","",""
"","ISI","","html-keyboard-response","275","488893","0.0-1.0-381.0","0","0","88731","","null","","","null","42","NaN","","","","","","","","","","","","","","",""
"","S2","","html-keyboard-response","276","489146","0.0-1.0-382.0","0","0","88731","","null","","","null","42","","NaN","","","","","","","","","","","","","",""
"","response","","html-keyboard-response","277","489682","0.0-1.0-383.0-0.0","0","0","88731","","534","","","68","42","","","1","42","training","adjacent","BA","2","1","O.jpg","R.jpg","0","0","1","",""
"","feedback","","html-keyboard-response","278","490685","0.0-1.0-384.0-0.0","0","0","88731","","null","","","null","42","","","","","","","","","","","","","","","",""
"","ITI","","html-keyboard-response","279","491688","0.0-1.0-387.0","0","0","88731","","null","","","null","42","","","","","","","","","","","","","","","NaN",""
"","S1","","html-keyboard-response","280","491940","0.0-1.0-389.0","0","0","88731","","null","","","null","43","","","","","","","","","","","","","","","",""
"","ISI","","html-keyboard-response","281","493943","0.0-1.0-390.0","0","0","88731","","null","","","null","43","NaN","","","","","","","","","","","","","","",""
"","S2","","html-keyboard-response","282","494196","0.0-1.0-391.0","0","0","88731","","null","","","null","43","","NaN","","","","","","","","","","","","","",""
"","response","","html-keyboard-response","283","494857","0.0-1.0-392.0-0.0","0","0","88731","","660","","","68","43","","","1","43","training","adjacent","EF","5","6","L.jpg","M.jpg","0","1","0","",""
"","feedback","","html-keyboard-response","284","495860","0.0-1.0-393.0-0.0","0","0","88731","","null","","","null","43","","","","","","","","","","","","","","","",""
"","time_out","","html-keyboard-response","285","497862","0.0-1.0-395.0-0.0","0","0","88731","","null","","","null","43","","","","","","","","","","","","","","","",""
"","ITI","","html-keyboard-response","286","498865","0.0-1.0-396.0","0","0","88731","","null","","","null","43","","","","","","","","","","","","","","","NaN",""
"","S1","","html-keyboard-response","287","499118","0.0-1.0-398.0","0","0","88731","","null","","","null","44","","","","","","","","","","","","","","","",""
"","ISI","","html-keyboard-response","288","501120","0.0-1.0-399.0","0","0","88731","","null","","","null","44","NaN","","","","","","","","","","","","","","",""
"","S2","","html-keyboard-response","289","501373","0.0-1.0-400.0","0","0","88731","","null","","","null","44","","NaN","","","","","","","","","","","","","",""
"","response","","html-keyboard-response","290","501978","0.0-1.0-401.0-0.0","0","0","88731","","604","","","68","44","","","1","44","training","adjacent","AB","1","2","R.jpg","O.jpg","0","1","0","",""
"","feedback","","html-keyboard-response","291","502981","0.0-1.0-402.0-0.0","0","0","88731","","null","","","null","44","","","","","","","","","","","","","","","",""
"","time_out","","html-keyboard-response","292","504984","0.0-1.0-404.0-0.0","0","0","88731","","null","","","null","44","","","","","","","","","","","","","","","",""
"","ITI","","html-keyboard-response","293","505985","0.0-1.0-405.0","0","0","88731","","null","","","null","44","","","","","","","","","","","","","","","NaN",""
"","S1","","html-keyboard-response","294","506238","0.0-1.0-407.0","0","0","88731","","null","","","null","45","","","","","","","","","","","","","","","",""
"","ISI","","html-keyboard-response","295","508241","0.0-1.0-408.0","0","0","88731","","null","","","null","45","NaN","","","","","","","","","","","","","","",""
"","S2","","html-keyboard-response","296","508493","0.0-1.0-409.0","0","0","88731","","null","","","null","45","","NaN","","","","","","","","","","","","","",""
"","response","","html-keyboard-response","297","509321","0.0-1.0-410.0-0.0","0","0","88731","","826","","","68","45","","","1","45","training","adjacent","CD","3","4","Q.jpg","N.jpg","0","1","0","",""
"","feedback","","html-keyboard-response","298","510324","0.0-1.0-411.0-0.0","0","0","88731","","null","","","null","45","","","","","","","","","","","","","","","",""
"","time_out","","html-keyboard-response","299","512327","0.0-1.0-413.0-0.0","0","0","88731","","null","","","null","45","","","","","","","","","","","","","","","",""
"","ITI","","html-keyboard-response","300","513329","0.0-1.0-414.0","0","0","88731","","null","","","null","45","","","","","","","","","","","","","","","NaN",""
"","S1","","html-keyboard-response","301","513582","0.0-1.0-416.0","0","0","88731","","null","","","null","46","","","","","","","","","","","","","","","",""
"","ISI","","html-keyboard-response","302","515584","0.0-1.0-417.0","0","0","88731","","null","","","null","46","NaN","","","","","","","","","","","","","","",""
"","S2","","html-keyboard-response","303","515836","0.0-1.0-418.0","0","0","88731","","null","","","null","46","","NaN","","","","","","","","","","","","","",""
"","response","","html-keyboard-response","304","516762","0.0-1.0-419.0-0.0","0","0","88731","","925","","","75","46","","","1","46","training","adjacent","DE","4","5","N.jpg","L.jpg","1","1","1","",""
"","feedback","","html-keyboard-response","305","517765","0.0-1.0-420.0-0.0","0","0","88731","","null","","","null","46","","","","","","","","","","","","","","","",""
"","ITI","","html-keyboard-response","306","518767","0.0-1.0-423.0","0","0","88731","","null","","","null","46","","","","","","","","","","","","","","","NaN",""
"","S1","","html-keyboard-response","307","519019","0.0-1.0-425.0","0","0","88731","","null","","","null","47","","","","","","","","","","","","","","","",""
"","ISI","","html-keyboard-response","308","521022","0.0-1.0-426.0","0","0","88731","","null","","","null","47","NaN","","","","","","","","","","","","","","",""
"","S2","","html-keyboard-response","309","521275","0.0-1.0-427.0","0","0","88731","","null","","","null","47","","NaN","","","","","","","","","","","","","",""
"","response","","html-keyboard-response","310","521601","0.0-1.0-428.0-0.0","0","0","88731","","325","","","68","47","","","1","47","training","adjacent","BA","2","1","O.jpg","R.jpg","0","0","1","",""
"","feedback","","html-keyboard-response","311","522604","0.0-1.0-429.0-0.0","0","0","88731","","null","","","null","47","","","","","","","","","","","","","","","",""
"","ITI","","html-keyboard-response","312","523606","0.0-1.0-432.0","0","0","88731","","null","","","null","47","","","","","","","","","","","","","","","NaN",""
"","block_over","","html-keyboard-response","313","560594","0.0-1.0-433.0-0.0","0","0","88731","","36985","","","32","47","","","","","","","","","","","","","","","",""
"","S1","","html-keyboard-response","314","560846","0.0-1.0-434.0","0","0","88731","","null","","","null","48","","","","","","","","","","","","","","","",""
"","ISI","","html-keyboard-response","315","562849","0.0-1.0-435.0","0","0","88731","","null","","","null","48","NaN","","","","","","","","","","","","","","",""
"","S2","","html-keyboard-response","316","563101","0.0-1.0-436.0","0","0","88731","","null","","","null","48","","NaN","","","","","","","","","","","","","",""
"","response","","html-keyboard-response","317","564082","0.0-1.0-437.0-0.0","0","0","88731","","978","","","68","48","","","2","48","training","adjacent","CD","3","4","Q.jpg","N.jpg","0","1","0","",""
"","feedback","","html-keyboard-response","318","565085","0.0-1.0-438.0-0.0","0","0","88731","","null","","","null","48","","","","","","","","","","","","","","","",""
"","time_out","","html-keyboard-response","319","567088","0.0-1.0-440.0-0.0","0","0","88731","","null","","","null","48","","","","","","","","","","","","","","","",""
"","ITI","","html-keyboard-response","320","568090","0.0-1.0-441.0","0","0","88731","","null","","","null","48","","","","","","","","","","","","","","","NaN",""
"","S1","","html-keyboard-response","321","568343","0.0-1.0-443.0","0","0","88731","","null","","","null","49","","","","","","","","","","","","","","","",""
"","ISI","","html-keyboard-response","322","570345","0.0-1.0-444.0","0","0","88731","","null","","","null","49","NaN","","","","","","","","","","","","","","",""
"","S2","","html-keyboard-response","323","570598","0.0-1.0-445.0","0","0","88731","","null","","","null","49","","NaN","","","","","","","","","","","","","",""
"","response","","html-keyboard-response","324","571434","0.0-1.0-446.0-0.0","0","0","88731","","834","","","68","49","","","2","49","training","adjacent","ED","5","4","L.jpg","N.jpg","0","0","1","",""
"","feedback","","html-keyboard-response","325","572437","0.0-1.0-447.0-0.0","0","0","88731","","null","","","null","49","","","","","","","","","","","","","","","",""
"","ITI","","html-keyboard-response","326","573439","0.0-1.0-450.0","0","0","88731","","null","","","null","49","","","","","","","","","","","","","","","NaN",""
"","S1","","html-keyboard-response","327","573692","0.0-1.0-452.0","0","0","88731","","null","","","null","50","","","","","","","","","","","","","","","",""
"","ISI","","html-keyboard-response","328","575695","0.0-1.0-453.0","0","0","88731","","null","","","null","50","NaN","","","","","","","","","","","","","","",""
"","S2","","html-keyboard-response","329","575948","0.0-1.0-454.0","0","0","88731","","null","","","null","50","","NaN","","","","","","","","","","","","","",""
"","response","","html-keyboard-response","330","576665","0.0-1.0-455.0-0.0","0","0","88731","","715","","","75","50","","","2","50","training","adjacent","AB","1","2","R.jpg","O.jpg","1","1","1","",""
"","feedback","","html-keyboard-response","331","577668","0.0-1.0-456.0-0.0","0","0","88731","","null","","","null","50","","","","","","","","","","","","","","","",""
"","ITI","","html-keyboard-response","332","578670","0.0-1.0-459.0","0","0","88731","","null","","","null","50","","","","","","","","","","","","","","","NaN",""
"","S1","","html-keyboard-response","333","578923","0.0-1.0-461.0","0","0","88731","","null","","","null","51","","","","","","","","","","","","","","","",""
"","ISI","","html-keyboard-response","334","580926","0.0-1.0-462.0","0","0","88731","","null","","","null","51","NaN","","","","","","","","","","","","","","",""
"","S2","","html-keyboard-response","335","581179","0.0-1.0-463.0","0","0","88731","","null","","","null","51","","NaN","","","","","","","","","","","","","",""
"","response","","html-keyboard-response","336","581802","0.0-1.0-464.0-0.0","0","0","88731","","620","","","75","51","","","2","51","training","adjacent","EF","5","6","L.jpg","M.jpg","1","1","1","",""
"","feedback","","html-keyboard-response","337","582804","0.0-1.0-465.0-0.0","0","0","88731","","null","","","null","51","","","","","","","","","","","","","","","",""
"","ITI","","html-keyboard-response","338","583806","0.0-1.0-468.0","0","0","88731","","null","","","null","51","","","","","","","","","","","","","","","NaN",""
"","S1","","html-keyboard-response","339","584059","0.0-1.0-470.0","0","0","88731","","null","","","null","52","","","","","","","","","","","","","","","",""
"","ISI","","html-keyboard-response","340","586061","0.0-1.0-471.0","0","0","88731","","null","","","null","52","NaN","","","","","","","","","","","","","","",""
"","S2","","html-keyboard-response","341","586314","0.0-1.0-472.0","0","0","88731","","null","","","null","52","","NaN","","","","","","","","","","","","","",""
"","response","","html-keyboard-response","342","587153","0.0-1.0-473.0-0.0","0","0","88731","","838","","","75","52","","","2","52","training","adjacent","DE","4","5","N.jpg","L.jpg","1","1","1","",""
"","feedback","","html-keyboard-response","343","588156","0.0-1.0-474.0-0.0","0","0","88731","","null","","","null","52","","","","","","","","","","","","","","","",""
"","ITI","","html-keyboard-response","344","589159","0.0-1.0-477.0","0","0","88731","","null","","","null","52","","","","","","","","","","","","","","","NaN",""
"","S1","","html-keyboard-response","345","589411","0.0-1.0-479.0","0","0","88731","","null","","","null","53","","","","","","","","","","","","","","","",""
"","ISI","","html-keyboard-response","346","591412","0.0-1.0-480.0","0","0","88731","","null","","","null","53","NaN","","","","","","","","","","","","","","",""
"","S2","","html-keyboard-response","347","591666","0.0-1.0-481.0","0","0","88731","","null","","","null","53","","NaN","","","","","","","","","","","","","",""
"","response","","html-keyboard-response","348","592098","0.0-1.0-482.0-0.0","0","0","88731","","430","","","68","53","","","2","53","training","adjacent","FE","6","5","M.jpg","L.jpg","0","0","1","",""
"","feedback","","html-keyboard-response","349","593101","0.0-1.0-483.0-0.0","0","0","88731","","null","","","null","53","","","","","","","","","","","","","","","",""
"","ITI","","html-keyboard-response","350","594103","0.0-1.0-486.0","0","0","88731","","null","","","null","53","","","","","","","","","","","","","","","NaN",""
"","S1","","html-keyboard-response","351","594357","0.0-1.0-488.0","0","0","88731","","null","","","null","54","","","","","","","","","","","","","","","",""
"","ISI","","html-keyboard-response","352","596358","0.0-1.0-489.0","0","0","88731","","null","","","null","54","NaN","","","","","","","","","","","","","","",""
"","S2","","html-keyboard-response","353","596610","0.0-1.0-490.0","0","0","88731","","null","","","null","54","","NaN","","","","","","","","","","","","","",""
"","response","","html-keyboard-response","354","597249","0.0-1.0-491.0-0.0","0","0","88731","","638","","","68","54","","","2","54","training","adjacent","GF","7","6","P.jpg","M.jpg","0","0","1","",""
"","feedback","","html-keyboard-response","355","598251","0.0-1.0-492.0-0.0","0","0","88731","","null","","","null","54","","","","","","","","","","","","","","","",""
"","ITI","","html-keyboard-response","356","599253","0.0-1.0-495.0","0","0","88731","","null","","","null","54","","","","","","","","","","","","","","","NaN",""
"","S1","","html-keyboard-response","357","599506","0.0-1.0-497.0","0","0","88731","","null","","","null","55","","","","","","","","","","","","","","","",""
"","ISI","","html-keyboard-response","358","601508","0.0-1.0-498.0","0","0","88731","","null","","","null","55","NaN","","","","","","","","","","","","","","",""
"","S2","","html-keyboard-response","359","601760","0.0-1.0-499.0","0","0","88731","","null","","","null","55","","NaN","","","","","","","","","","","","","",""
"","response","","html-keyboard-response","360","602449","0.0-1.0-500.0-0.0","0","0","88731","","688","","","75","55","","","2","55","training","adjacent","AB","1","2","R.jpg","O.jpg","1","1","1","",""
"","feedback","","html-keyboard-response","361","603453","0.0-1.0-501.0-0.0","0","0","88731","","null","","","null","55","","","","","","","","","","","","","","","",""
"","ITI","","html-keyboard-response","362","604456","0.0-1.0-504.0","0","0","88731","","null","","","null","55","","","","","","","","","","","","","","","NaN",""
"","S1","","html-keyboard-response","363","604708","0.0-1.0-506.0","0","0","88731","","null","","","null","56","","","","","","","","","","","","","","","",""
"","ISI","","html-keyboard-response","364","606711","0.0-1.0-507.0","0","0","88731","","null","","","null","56","NaN","","","","","","","","","","","","","","",""
"","S2","","html-keyboard-response","365","606964","0.0-1.0-508.0","0","0","88731","","null","","","null","56","","NaN","","","","","","","","","","","","","",""
"","response","","html-keyboard-response","366","607537","0.0-1.0-509.0-0.0","0","0","88731","","572","","","68","56","","","2","56","training","adjacent","FE","6","5","M.jpg","L.jpg","0","0","1","",""
"","feedback","","html-keyboard-response","367","608540","0.0-1.0-510.0-0.0","0","0","88731","","null","","","null","56","","","","","","","","","","","","","","","",""
"","ITI","","html-keyboard-response","368","609543","0.0-1.0-513.0","0","0","88731","","null","","","null","56","","","","","","","","","","","","","","","NaN",""
"","S1","","html-keyboard-response","369","609808","0.0-1.0-515.0","0","0","88731","","null","","","null","57","","","","","","","","","","","","","","","",""
"","ISI","","html-keyboard-response","370","611811","0.0-1.0-516.0","0","0","88731","","null","","","null","57","NaN","","","","","","","","","","","","","","",""
"","S2","","html-keyboard-response","371","612064","0.0-1.0-517.0","0","0","88731","","null","","","null","57","","NaN","","","","","","","","","","","","","",""
"","response","","html-keyboard-response","372","612714","0.0-1.0-518.0-0.0","0","0","88731","","649","","","75","57","","","2","57","training","adjacent","EF","5","6","L.jpg","M.jpg","1","1","1","",""
"","feedback","","html-keyboard-response","373","613716","0.0-1.0-519.0-0.0","0","0","88731","","null","","","null","57","","","","","","","","","","","","","","","",""
"","ITI","","html-keyboard-response","374","614719","0.0-1.0-522.0","0","0","88731","","null","","","null","57","","","","","","","","","","","","","","","NaN",""
"","S1","","html-keyboard-response","375","614972","0.0-1.0-524.0","0","0","88731","","null","","","null","58","","","","","","","","","","","","","","","",""
"","ISI","","html-keyboard-response","376","616974","0.0-1.0-525.0","0","0","88731","","null","","","null","58","NaN","","","","","","","","","","","","","","",""
"","S2","","html-keyboard-response","377","617227","0.0-1.0-526.0","0","0","88731","","null","","","null","58","","NaN","","","","","","","","","","","","","",""
"","response","","html-keyboard-response","378","617681","0.0-1.0-527.0-0.0","0","0","88731","","453","","","68","58","","","2","58","training","adjacent","DC","4","3","N.jpg","Q.jpg","0","0","1","",""
"","feedback","","html-keyboard-response","379","618684","0.0-1.0-528.0-0.0","0","0","88731","","null","","","null","58","","","","","","","","","","","","","","","",""
"","ITI","","html-keyboard-response","380","619686","0.0-1.0-531.0","0","0","88731","","null","","","null","58","","","","","","","","","","","","","","","NaN",""
"","S1","","html-keyboard-response","381","619949","0.0-1.0-533.0","0","0","88731","","null","","","null","59","","","","","","","","","","","","","","","",""
"","ISI","","html-keyboard-response","382","621951","0.0-1.0-534.0","0","0","88731","","null","","","null","59","NaN","","","","","","","","","","","","","","",""
"","S2","","html-keyboard-response","383","622204","0.0-1.0-535.0","0","0","88731","","null","","","null","59","","NaN","","","","","","","","","","","","","",""
"","response","","html-keyboard-response","384","622729","0.0-1.0-536.0-0.0","0","0","88731","","523","","","68","59","","","2","59","training","adjacent","ED","5","4","L.jpg","N.jpg","0","0","1","",""
"","feedback","","html-keyboard-response","385","623732","0.0-1.0-537.0-0.0","0","0","88731","","null","","","null","59","","","","","","","","","","","","","","","",""
"","ITI","","html-keyboard-response","386","624735","0.0-1.0-540.0","0","0","88731","","null","","","null","59","","","","","","","","","","","","","","","NaN",""
"","S1","","html-keyboard-response","387","624993","0.0-1.0-542.0","0","0","88731","","null","","","null","60","","","","","","","","","","","","","","","",""
"","ISI","","html-keyboard-response","388","626996","0.0-1.0-543.0","0","0","88731","","null","","","null","60","NaN","","","","","","","","","","","","","","",""
"","S2","","html-keyboard-response","389","627248","0.0-1.0-544.0","0","0","88731","","null","","","null","60","","NaN","","","","","","","","","","","","","",""
"","response","","html-keyboard-response","390","627658","0.0-1.0-545.0-0.0","0","0","88731","","408","","","75","60","","","2","60","training","adjacent","BC","2","3","O.jpg","Q.jpg","1","1","1","",""
"","feedback","","html-keyboard-response","391","628660","0.0-1.0-546.0-0.0","0","0","88731","","null","","","null","60","","","","","","","","","","","","","","","",""
"","ITI","","html-keyboard-response","392","629662","0.0-1.0-549.0","0","0","88731","","null","","","null","60","","","","","","","","","","","","","","","NaN",""
"","S1","","html-keyboard-response","393","629915","0.0-1.0-551.0","0","0","88731","","null","","","null","61","","","","","","","","","","","","","","","",""
"","ISI","","html-keyboard-response","394","631918","0.0-1.0-552.0","0","0","88731","","null","","","null","61","NaN","","","","","","","","","","","","","","",""
"","S2","","html-keyboard-response","395","632170","0.0-1.0-553.0","0","0","88731","","null","","","null","61","","NaN","","","","","","","","","","","","","",""
"","response","","html-keyboard-response","396","632762","0.0-1.0-554.0-0.0","0","0","88731","","590","","","75","61","","","2","61","training","adjacent","EF","5","6","L.jpg","M.jpg","1","1","1","",""
"","feedback","","html-keyboard-response","397","633766","0.0-1.0-555.0-0.0","0","0","88731","","null","","","null","61","","","","","","","","","","","","","","","",""
"","ITI","","html-keyboard-response","398","634768","0.0-1.0-558.0","0","0","88731","","null","","","null","61","","","","","","","","","","","","","","","NaN",""
"","S1","","html-keyboard-response","399","635020","0.0-1.0-560.0","0","0","88731","","null","","","null","62","","","","","","","","","","","","","","","",""
"","ISI","","html-keyboard-response","400","637023","0.0-1.0-561.0","0","0","88731","","null","","","null","62","NaN","","","","","","","","","","","","","","",""
"","S2","","html-keyboard-response","401","637276","0.0-1.0-562.0","0","0","88731","","null","","","null","62","","NaN","","","","","","","","","","","","","",""
"","response","","html-keyboard-response","402","637642","0.0-1.0-563.0-0.0","0","0","88731","","364","","","68","62","","","2","62","training","adjacent","CB","3","2","Q.jpg","O.jpg","0","0","1","",""
"","feedback","","html-keyboard-response","403","638644","0.0-1.0-564.0-0.0","0","0","88731","","null","","","null","62","","","","","","","","","","","","","","","",""
"","ITI","","html-keyboard-response","404","639647","0.0-1.0-567.0","0","0","88731","","null","","","null","62","","","","","","","","","","","","","","","NaN",""
"","S1","","html-keyboard-response","405","639900","0.0-1.0-569.0","0","0","88731","","null","","","null","63","","","","","","","","","","","","","","","",""
"","ISI","","html-keyboard-response","406","641902","0.0-1.0-570.0","0","0","88731","","null","","","null","63","NaN","","","","","","","","","","","","","","",""
"","S2","","html-keyboard-response","407","642154","0.0-1.0-571.0","0","0","88731","","null","","","null","63","","NaN","","","","","","","","","","","","","",""
"","response","","html-keyboard-response","408","642794","0.0-1.0-572.0-0.0","0","0","88731","","638","","","75","63","","","2","63","training","adjacent","BC","2","3","O.jpg","Q.jpg","1","1","1","",""
"","feedback","","html-keyboard-response","409","643796","0.0-1.0-573.0-0.0","0","0","88731","","null","","","null","63","","","","","","","","","","","","","","","",""
"","ITI","","html-keyboard-response","410","644798","0.0-1.0-576.0","0","0","88731","","null","","","null","63","","","","","","","","","","","","","","","NaN",""
"","S1","","html-keyboard-response","411","645050","0.0-1.0-578.0","0","0","88731","","null","","","null","64","","","","","","","","","","","","","","","",""
"","ISI","","html-keyboard-response","412","647052","0.0-1.0-579.0","0","0","88731","","null","","","null","64","NaN","","","","","","","","","","","","","","",""
"","S2","","html-keyboard-response","413","647304","0.0-1.0-580.0","0","0","88731","","null","","","null","64","","NaN","","","","","","","","","","","","","",""
"","response","","html-keyboard-response","414","647778","0.0-1.0-581.0-0.0","0","0","88731","","472","","","75","64","","","2","64","training","adjacent","FG","6","7","M.jpg","P.jpg","1","1","1","",""
"","feedback","","html-keyboard-response","415","648781","0.0-1.0-582.0-0.0","0","0","88731","","null","","","null","64","","","","","","","","","","","","","","","",""
"","ITI","","html-keyboard-response","416","649783","0.0-1.0-585.0","0","0","88731","","null","","","null","64","","","","","","","","","","","","","","","NaN",""
"","S1","","html-keyboard-response","417","650035","0.0-1.0-587.0","0","0","88731","","null","","","null","65","","","","","","","","","","","","","","","",""
"","ISI","","html-keyboard-response","418","652038","0.0-1.0-588.0","0","0","88731","","null","","","null","65","NaN","","","","","","","","","","","","","","",""
"","S2","","html-keyboard-response","419","652290","0.0-1.0-589.0","0","0","88731","","null","","","null","65","","NaN","","","","","","","","","","","","","",""
"","response","","html-keyboard-response","420","652657","0.0-1.0-590.0-0.0","0","0","88731","","365","","","68","65","","","2","65","training","adjacent","CD","3","4","Q.jpg","N.jpg","0","1","0","",""
"","feedback","","html-keyboard-response","421","653660","0.0-1.0-591.0-0.0","0","0","88731","","null","","","null","65","","","","","","","","","","","","","","","",""
"","time_out","","html-keyboard-response","422","655662","0.0-1.0-593.0-0.0","0","0","88731","","null","","","null","65","","","","","","","","","","","","","","","",""
"","ITI","","html-keyboard-response","423","656665","0.0-1.0-594.0","0","0","88731","","null","","","null","65","","","","","","","","","","","","","","","NaN",""
"","S1","","html-keyboard-response","424","656918","0.0-1.0-596.0","0","0","88731","","null","","","null","66","","","","","","","","","","","","","","","",""
"","ISI","","html-keyboard-response","425","658921","0.0-1.0-597.0","0","0","88731","","null","","","null","66","NaN","","","","","","","","","","","","","","",""
"","S2","","html-keyboard-response","426","659173","0.0-1.0-598.0","0","0","88731","","null","","","null","66","","NaN","","","","","","","","","","","","","",""
"","response","","html-keyboard-response","427","659802","0.0-1.0-599.0-0.0","0","0","88731","","627","","","75","66","","","2","66","training","adjacent","DE","4","5","N.jpg","L.jpg","1","1","1","",""
"","feedback","","html-keyboard-response","428","660805","0.0-1.0-600.0-0.0","0","0","88731","","null","","","null","66","","","","","","","","","","","","","","","",""
"","ITI","","html-keyboard-response","429","661808","0.0-1.0-603.0","0","0","88731","","null","","","null","66","","","","","","","","","","","","","","","NaN",""
"","S1","","html-keyboard-response","430","662061","0.0-1.0-605.0","0","0","88731","","null","","","null","67","","","","","","","","","","","","","","","",""
"","ISI","","html-keyboard-response","431","664064","0.0-1.0-606.0","0","0","88731","","null","","","null","67","NaN","","","","","","","","","","","","","","",""
"","S2","","html-keyboard-response","432","664316","0.0-1.0-607.0","0","0","88731","","null","","","null","67","","NaN","","","","","","","","","","","","","",""
"","response","","html-keyboard-response","433","665010","0.0-1.0-608.0-0.0","0","0","88731","","692","","","68","67","","","2","67","training","adjacent","DC","4","3","N.jpg","Q.jpg","0","0","1","",""
"","feedback","","html-keyboard-response","434","666012","0.0-1.0-609.0-0.0","0","0","88731","","null","","","null","67","","","","","","","","","","","","","","","",""
"","ITI","","html-keyboard-response","435","667015","0.0-1.0-612.0","0","0","88731","","null","","","null","67","","","","","","","","","","","","","","","NaN",""
"","S1","","html-keyboard-response","436","667267","0.0-1.0-614.0","0","0","88731","","null","","","null","68","","","","","","","","","","","","","","","",""
"","ISI","","html-keyboard-response","437","669269","0.0-1.0-615.0","0","0","88731","","null","","","null","68","NaN","","","","","","","","","","","","","","",""
"","S2","","html-keyboard-response","438","669522","0.0-1.0-616.0","0","0","88731","","null","","","null","68","","NaN","","","","","","","","","","","","","",""
"","response","","html-keyboard-response","439","669874","0.0-1.0-617.0-0.0","0","0","88731","","350","","","68","68","","","2","68","training","adjacent","BA","2","1","O.jpg","R.jpg","0","0","1","",""
"","feedback","","html-keyboard-response","440","670877","0.0-1.0-618.0-0.0","0","0","88731","","null","","","null","68","","","","","","","","","","","","","","","",""
"","ITI","","html-keyboard-response","441","671878","0.0-1.0-621.0","0","0","88731","","null","","","null","68","","","","","","","","","","","","","","","NaN",""
"","S1","","html-keyboard-response","442","672130","0.0-1.0-623.0","0","0","88731","","null","","","null","69","","","","","","","","","","","","","","","",""
"","ISI","","html-keyboard-response","443","674133","0.0-1.0-624.0","0","0","88731","","null","","","null","69","NaN","","","","","","","","","","","","","","",""
"","S2","","html-keyboard-response","444","674386","0.0-1.0-625.0","0","0","88731","","null","","","null","69","","NaN","","","","","","","","","","","","","",""
"","response","","html-keyboard-response","445","674761","0.0-1.0-626.0-0.0","0","0","88731","","374","","","75","69","","","2","69","training","adjacent","FG","6","7","M.jpg","P.jpg","1","1","1","",""
"","feedback","","html-keyboard-response","446","675763","0.0-1.0-627.0-0.0","0","0","88731","","null","","","null","69","","","","","","","","","","","","","","","",""
"","ITI","","html-keyboard-response","447","676767","0.0-1.0-630.0","0","0","88731","","null","","","null","69","","","","","","","","","","","","","","","NaN",""
"","S1","","html-keyboard-response","448","677020","0.0-1.0-632.0","0","0","88731","","null","","","null","70","","","","","","","","","","","","","","","",""
"","ISI","","html-keyboard-response","449","679022","0.0-1.0-633.0","0","0","88731","","null","","","null","70","NaN","","","","","","","","","","","","","","",""
"","S2","","html-keyboard-response","450","679274","0.0-1.0-634.0","0","0","88731","","null","","","null","70","","NaN","","","","","","","","","","","","","",""
"","response","","html-keyboard-response","451","680146","0.0-1.0-635.0-0.0","0","0","88731","","870","","","68","70","","","2","70","training","adjacent","CB","3","2","Q.jpg","O.jpg","0","0","1","",""
"","feedback","","html-keyboard-response","452","681157","0.0-1.0-636.0-0.0","0","0","88731","","null","","","null","70","","","","","","","","","","","","","","","",""
"","ITI","","html-keyboard-response","453","682160","0.0-1.0-639.0","0","0","88731","","null","","","null","70","","","","","","","","","","","","","","","NaN",""
"","S1","","html-keyboard-response","454","682412","0.0-1.0-641.0","0","0","88731","","null","","","null","71","","","","","","","","","","","","","","","",""
"","ISI","","html-keyboard-response","455","684414","0.0-1.0-642.0","0","0","88731","","null","","","null","71","NaN","","","","","","","","","","","","","","",""
"","S2","","html-keyboard-response","456","684667","0.0-1.0-643.0","0","0","88731","","null","","","null","71","","NaN","","","","","","","","","","","","","",""
"","response","","html-keyboard-response","457","685210","0.0-1.0-644.0-0.0","0","0","88731","","542","","","75","71","","","2","71","training","adjacent","AB","1","2","R.jpg","O.jpg","1","1","1","",""
"","feedback","","html-keyboard-response","458","686212","0.0-1.0-645.0-0.0","0","0","88731","","null","","","null","71","","","","","","","","","","","","","","","",""
"","ITI","","html-keyboard-response","459","687214","0.0-1.0-648.0","0","0","88731","","null","","","null","71","","","","","","","","","","","","","","","NaN",""
"","S1","","html-keyboard-response","460","687466","0.0-1.0-650.0","0","0","88731","","null","","","null","72","","","","","","","","","","","","","","","",""
"","ISI","","html-keyboard-response","461","689468","0.0-1.0-651.0","0","0","88731","","null","","","null","72","NaN","","","","","","","","","","","","","","",""
"","S2","","html-keyboard-response","462","689721","0.0-1.0-652.0","0","0","88731","","null","","","null","72","","NaN","","","","","","","","","","","","","",""
"","response","","html-keyboard-response","463","690337","0.0-1.0-653.0-0.0","0","0","88731","","614","","","75","72","","","2","72","training","adjacent","DE","4","5","N.jpg","L.jpg","1","1","1","",""
"","feedback","","html-keyboard-response","464","691340","0.0-1.0-654.0-0.0","0","0","88731","","null","","","null","72","","","","","","","","","","","","","","","",""
"","ITI","","html-keyboard-response","465","692342","0.0-1.0-657.0","0","0","88731","","null","","","null","72","","","","","","","","","","","","","","","NaN",""
"","S1","","html-keyboard-response","466","692594","0.0-1.0-659.0","0","0","88731","","null","","","null","73","","","","","","","","","","","","","","","",""
"","ISI","","html-keyboard-response","467","694596","0.0-1.0-660.0","0","0","88731","","null","","","null","73","NaN","","","","","","","","","","","","","","",""
"","S2","","html-keyboard-response","468","694848","0.0-1.0-661.0","0","0","88731","","null","","","null","73","","NaN","","","","","","","","","","","","","",""
"","response","","html-keyboard-response","469","695362","0.0-1.0-662.0-0.0","0","0","88731","","512","","","75","73","","","2","73","training","adjacent","AB","1","2","R.jpg","O.jpg","1","1","1","",""
"","feedback","","html-keyboard-response","470","696365","0.0-1.0-663.0-0.0","0","0","88731","","null","","","null","73","","","","","","","","","","","","","","","",""
"","ITI","","html-keyboard-response","471","697367","0.0-1.0-666.0","0","0","88731","","null","","","null","73","","","","","","","","","","","","","","","NaN",""
"","S1","","html-keyboard-response","472","697619","0.0-1.0-668.0","0","0","88731","","null","","","null","74","","","","","","","","","","","","","","","",""
"","ISI","","html-keyboard-response","473","699621","0.0-1.0-669.0","0","0","88731","","null","","","null","74","NaN","","","","","","","","","","","","","","",""
"","S2","","html-keyboard-response","474","699873","0.0-1.0-670.0","0","0","88731","","null","","","null","74","","NaN","","","","","","","","","","","","","",""
"","response","","html-keyboard-response","475","700410","0.0-1.0-671.0-0.0","0","0","88731","","535","","","68","74","","","2","74","training","adjacent","BA","2","1","O.jpg","R.jpg","0","0","1","",""
"","feedback","","html-keyboard-response","476","701412","0.0-1.0-672.0-0.0","0","0","88731","","null","","","null","74","","","","","","","","","","","","","","","",""
"","ITI","","html-keyboard-response","477","702415","0.0-1.0-675.0","0","0","88731","","null","","","null","74","","","","","","","","","","","","","","","NaN",""
"","S1","","html-keyboard-response","478","702667","0.0-1.0-677.0","0","0","88731","","null","","","null","75","","","","","","","","","","","","","","","",""
"","ISI","","html-keyboard-response","479","704669","0.0-1.0-678.0","0","0","88731","","null","","","null","75","NaN","","","","","","","","","","","","","","",""
"","S2","","html-keyboard-response","480","704922","0.0-1.0-679.0","0","0","88731","","null","","","null","75","","NaN","","","","","","","","","","","","","",""
"","response","","html-keyboard-response","481","705490","0.0-1.0-680.0-0.0","0","0","88731","","566","","","68","75","","","2","75","training","adjacent","ED","5","4","L.jpg","N.jpg","0","0","1","",""
"","feedback","","html-keyboard-response","482","706492","0.0-1.0-681.0-0.0","0","0","88731","","null","","","null","75","","","","","","","","","","","","","","","",""
"","ITI","","html-keyboard-response","483","707494","0.0-1.0-684.0","0","0","88731","","null","","","null","75","","","","","","","","","","","","","","","NaN",""
"","S1","","html-keyboard-response","484","707747","0.0-1.0-686.0","0","0","88731","","null","","","null","76","","","","","","","","","","","","","","","",""
"","ISI","","html-keyboard-response","485","709749","0.0-1.0-687.0","0","0","88731","","null","","","null","76","NaN","","","","","","","","","","","","","","",""
"","S2","","html-keyboard-response","486","710002","0.0-1.0-688.0","0","0","88731","","null","","","null","76","","NaN","","","","","","","","","","","","","",""
"","response","","html-keyboard-response","487","710577","0.0-1.0-689.0-0.0","0","0","88731","","573","","","75","76","","","2","76","training","adjacent","EF","5","6","L.jpg","M.jpg","1","1","1","",""
"","feedback","","html-keyboard-response","488","711580","0.0-1.0-690.0-0.0","0","0","88731","","null","","","null","76","","","","","","","","","","","","","","","",""
"","ITI","","html-keyboard-response","489","712583","0.0-1.0-693.0","0","0","88731","","null","","","null","76","","","","","","","","","","","","","","","NaN",""
"","S1","","html-keyboard-response","490","712836","0.0-1.0-695.0","0","0","88731","","null","","","null","77","","","","","","","","","","","","","","","",""
"","ISI","","html-keyboard-response","491","714838","0.0-1.0-696.0","0","0","88731","","null","","","null","77","NaN","","","","","","","","","","","","","","",""
"","S2","","html-keyboard-response","492","715091","0.0-1.0-697.0","0","0","88731","","null","","","null","77","","NaN","","","","","","","","","","","","","",""
"","response","","html-keyboard-response","493","715745","0.0-1.0-698.0-0.0","0","0","88731","","653","","","75","77","","","2","77","training","adjacent","BC","2","3","O.jpg","Q.jpg","1","1","1","",""
"","feedback","","html-keyboard-response","494","716749","0.0-1.0-699.0-0.0","0","0","88731","","null","","","null","77","","","","","","","","","","","","","","","",""
"","ITI","","html-keyboard-response","495","717752","0.0-1.0-702.0","0","0","88731","","null","","","null","77","","","","","","","","","","","","","","","NaN",""
"","S1","","html-keyboard-response","496","718003","0.0-1.0-704.0","0","0","88731","","null","","","null","78","","","","","","","","","","","","","","","",""
"","ISI","","html-keyboard-response","497","720005","0.0-1.0-705.0","0","0","88731","","null","","","null","78","NaN","","","","","","","","","","","","","","",""
"","S2","","html-keyboard-response","498","720257","0.0-1.0-706.0","0","0","88731","","null","","","null","78","","NaN","","","","","","","","","","","","","",""
"","response","","html-keyboard-response","499","720866","0.0-1.0-707.0-0.0","0","0","88731","","608","","","68","78","","","2","78","training","adjacent","ED","5","4","L.jpg","N.jpg","0","0","1","",""
"","feedback","","html-keyboard-response","500","721868","0.0-1.0-708.0-0.0","0","0","88731","","null","","","null","78","","","","","","","","","","","","","","","",""
"","ITI","","html-keyboard-response","501","722871","0.0-1.0-711.0","0","0","88731","","null","","","null","78","","","","","","","","","","","","","","","NaN",""
"","S1","","html-keyboard-response","502","723123","0.0-1.0-713.0","0","0","88731","","null","","","null","79","","","","","","","","","","","","","","","",""
"","ISI","","html-keyboard-response","503","725126","0.0-1.0-714.0","0","0","88731","","null","","","null","79","NaN","","","","","","","","","","","","","","",""
"","S2","","html-keyboard-response","504","725379","0.0-1.0-715.0","0","0","88731","","null","","","null","79","","NaN","","","","","","","","","","","","","",""
"","response","","html-keyboard-response","505","726434","0.0-1.0-716.0-0.0","0","0","88731","","1053","","","68","79","","","2","79","training","adjacent","CD","3","4","Q.jpg","N.jpg","0","1","0","",""
"","feedback","","html-keyboard-response","506","727437","0.0-1.0-717.0-0.0","0","0","88731","","null","","","null","79","","","","","","","","","","","","","","","",""
"","time_out","","html-keyboard-response","507","729439","0.0-1.0-719.0-0.0","0","0","88731","","null","","","null","79","","","","","","","","","","","","","","","",""
"","ITI","","html-keyboard-response","508","730441","0.0-1.0-720.0","0","0","88731","","null","","","null","79","","","","","","","","","","","","","","","NaN",""
"","S1","","html-keyboard-response","509","730693","0.0-1.0-722.0","0","0","88731","","null","","","null","80","","","","","","","","","","","","","","","",""
"","ISI","","html-keyboard-response","510","732696","0.0-1.0-723.0","0","0","88731","","null","","","null","80","NaN","","","","","","","","","","","","","","",""
"","S2","","html-keyboard-response","511","732948","0.0-1.0-724.0","0","0","88731","","null","","","null","80","","NaN","","","","","","","","","","","","","",""
"","response","","html-keyboard-response","512","733586","0.0-1.0-725.0-0.0","0","0","88731","","636","","","68","80","","","2","80","training","adjacent","CB","3","2","Q.jpg","O.jpg","0","0","1","",""
"","feedback","","html-keyboard-response","513","734588","0.0-1.0-726.0-0.0","0","0","88731","","null","","","null","80","","","","","","","","","","","","","","","",""
"","ITI","","html-keyboard-response","514","735591","0.0-1.0-729.0","0","0","88731","","null","","","null","80","","","","","","","","","","","","","","","NaN",""
"","S1","","html-keyboard-response","515","735843","0.0-1.0-731.0","0","0","88731","","null","","","null","81","","","","","","","","","","","","","","","",""
"","ISI","","html-keyboard-response","516","737845","0.0-1.0-732.0","0","0","88731","","null","","","null","81","NaN","","","","","","","","","","","","","","",""
"","S2","","html-keyboard-response","517","738098","0.0-1.0-733.0","0","0","88731","","null","","","null","81","","NaN","","","","","","","","","","","","","",""
"","response","","html-keyboard-response","518","738498","0.0-1.0-734.0-0.0","0","0","88731","","399","","","75","81","","","2","81","training","adjacent","FG","6","7","M.jpg","P.jpg","1","1","1","",""
"","feedback","","html-keyboard-response","519","739500","0.0-1.0-735.0-0.0","0","0","88731","","null","","","null","81","","","","","","","","","","","","","","","",""
"","ITI","","html-keyboard-response","520","740503","0.0-1.0-738.0","0","0","88731","","null","","","null","81","","","","","","","","","","","","","","","NaN",""
"","S1","","html-keyboard-response","521","740755","0.0-1.0-740.0","0","0","88731","","null","","","null","82","","","","","","","","","","","","","","","",""
"","ISI","","html-keyboard-response","522","742767","0.0-1.0-741.0","0","0","88731","","null","","","null","82","NaN","","","","","","","","","","","","","","",""
"","S2","","html-keyboard-response","523","743019","0.0-1.0-742.0","0","0","88731","","null","","","null","82","","NaN","","","","","","","","","","","","","",""
"","response","","html-keyboard-response","524","743258","0.0-1.0-743.0-0.0","0","0","88731","","237","","","68","82","","","2","82","training","adjacent","BA","2","1","O.jpg","R.jpg","0","0","1","",""
"","feedback","","html-keyboard-response","525","744261","0.0-1.0-744.0-0.0","0","0","88731","","null","","","null","82","","","","","","","","","","","","","","","",""
"","ITI","","html-keyboard-response","526","745263","0.0-1.0-747.0","0","0","88731","","null","","","null","82","","","","","","","","","","","","","","","NaN",""
"","S1","","html-keyboard-response","527","745516","0.0-1.0-749.0","0","0","88731","","null","","","null","83","","","","","","","","","","","","","","","",""
"","ISI","","html-keyboard-response","528","747518","0.0-1.0-750.0","0","0","88731","","null","","","null","83","NaN","","","","","","","","","","","","","","",""
"","S2","","html-keyboard-response","529","747770","0.0-1.0-751.0","0","0","88731","","null","","","null","83","","NaN","","","","","","","","","","","","","",""
"","response","","html-keyboard-response","530","748234","0.0-1.0-752.0-0.0","0","0","88731","","462","","","68","83","","","2","83","training","adjacent","GF","7","6","P.jpg","M.jpg","0","0","1","",""
"","feedback","","html-keyboard-response","531","749236","0.0-1.0-753.0-0.0","0","0","88731","","null","","","null","83","","","","","","","","","","","","","","","",""
"","ITI","","html-keyboard-response","532","750238","0.0-1.0-756.0","0","0","88731","","null","","","null","83","","","","","","","","","","","","","","","NaN",""
"","S1","","html-keyboard-response","533","750491","0.0-1.0-758.0","0","0","88731","","null","","","null","84","","","","","","","","","","","","","","","",""
"","ISI","","html-keyboard-response","534","752494","0.0-1.0-759.0","0","0","88731","","null","","","null","84","NaN","","","","","","","","","","","","","","",""
"","S2","","html-keyboard-response","535","752747","0.0-1.0-760.0","0","0","88731","","null","","","null","84","","NaN","","","","","","","","","","","","","",""
"","response","","html-keyboard-response","536","752978","0.0-1.0-761.0-0.0","0","0","88731","","230","","","68","84","","","2","84","training","adjacent","FE","6","5","M.jpg","L.jpg","0","0","1","",""
"","feedback","","html-keyboard-response","537","753980","0.0-1.0-762.0-0.0","0","0","88731","","null","","","null","84","","","","","","","","","","","","","","","",""
"","ITI","","html-keyboard-response","538","754982","0.0-1.0-765.0","0","0","88731","","null","","","null","84","","","","","","","","","","","","","","","NaN",""
"","S1","","html-keyboard-response","539","755235","0.0-1.0-767.0","0","0","88731","","null","","","null","85","","","","","","","","","","","","","","","",""
"","ISI","","html-keyboard-response","540","757237","0.0-1.0-768.0","0","0","88731","","null","","","null","85","NaN","","","","","","","","","","","","","","",""
"","S2","","html-keyboard-response","541","757490","0.0-1.0-769.0","0","0","88731","","null","","","null","85","","NaN","","","","","","","","","","","","","",""
"","response","","html-keyboard-response","542","757698","0.0-1.0-770.0-0.0","0","0","88731","","207","","","68","85","","","2","85","training","adjacent","BA","2","1","O.jpg","R.jpg","0","0","1","",""
"","feedback","","html-keyboard-response","543","758701","0.0-1.0-771.0-0.0","0","0","88731","","null","","","null","85","","","","","","","","","","","","","","","",""
"","ITI","","html-keyboard-response","544","759703","0.0-1.0-774.0","0","0","88731","","null","","","null","85","","","","","","","","","","","","","","","NaN",""
"","S1","","html-keyboard-response","545","759955","0.0-1.0-776.0","0","0","88731","","null","","","null","86","","","","","","","","","","","","","","","",""
"","ISI","","html-keyboard-response","546","761957","0.0-1.0-777.0","0","0","88731","","null","","","null","86","NaN","","","","","","","","","","","","","","",""
"","S2","","html-keyboard-response","547","762211","0.0-1.0-778.0","0","0","88731","","null","","","null","86","","NaN","","","","","","","","","","","","","",""
"","response","","html-keyboard-response","548","762658","0.0-1.0-779.0-0.0","0","0","88731","","446","","","75","86","","","2","86","training","adjacent","BC","2","3","O.jpg","Q.jpg","1","1","1","",""
"","feedback","","html-keyboard-response","549","763660","0.0-1.0-780.0-0.0","0","0","88731","","null","","","null","86","","","","","","","","","","","","","","","",""
"","ITI","","html-keyboard-response","550","764663","0.0-1.0-783.0","0","0","88731","","null","","","null","86","","","","","","","","","","","","","","","NaN",""
"","S1","","html-keyboard-response","551","764915","0.0-1.0-785.0","0","0","88731","","null","","","null","87","","","","","","","","","","","","","","","",""
"","ISI","","html-keyboard-response","552","766918","0.0-1.0-786.0","0","0","88731","","null","","","null","87","NaN","","","","","","","","","","","","","","",""
"","S2","","html-keyboard-response","553","767170","0.0-1.0-787.0","0","0","88731","","null","","","null","87","","NaN","","","","","","","","","","","","","",""
"","response","","html-keyboard-response","554","767698","0.0-1.0-788.0-0.0","0","0","88731","","526","","","75","87","","","2","87","training","adjacent","CD","3","4","Q.jpg","N.jpg","1","1","1","",""
"","feedback","","html-keyboard-response","555","768701","0.0-1.0-789.0-0.0","0","0","88731","","null","","","null","87","","","","","","","","","","","","","","","",""
"","ITI","","html-keyboard-response","556","769703","0.0-1.0-792.0","0","0","88731","","null","","","null","87","","","","","","","","","","","","","","","NaN",""
"","S1","","html-keyboard-response","557","769955","0.0-1.0-794.0","0","0","88731","","null","","","null","88","","","","","","","","","","","","","","","",""
"","ISI","","html-keyboard-response","558","771957","0.0-1.0-795.0","0","0","88731","","null","","","null","88","NaN","","","","","","","","","","","","","","",""
"","S2","","html-keyboard-response","559","772209","0.0-1.0-796.0","0","0","88731","","null","","","null","88","","NaN","","","","","","","","","","","","","",""
"","response","","html-keyboard-response","560","772618","0.0-1.0-797.0-0.0","0","0","88731","","407","","","75","88","","","2","88","training","adjacent","FE","6","5","M.jpg","L.jpg","1","0","0","",""
"","feedback","","html-keyboard-response","561","773620","0.0-1.0-798.0-0.0","0","0","88731","","null","","","null","88","","","","","","","","","","","","","","","",""
"","time_out","","html-keyboard-response","562","775623","0.0-1.0-800.0-0.0","0","0","88731","","null","","","null","88","","","","","","","","","","","","","","","",""
"","ITI","","html-keyboard-response","563","776625","0.0-1.0-801.0","0","0","88731","","null","","","null","88","","","","","","","","","","","","","","","NaN",""
"","S1","","html-keyboard-response","564","776878","0.0-1.0-803.0","0","0","88731","","null","","","null","89","","","","","","","","","","","","","","","",""
"","ISI","","html-keyboard-response","565","778880","0.0-1.0-804.0","0","0","88731","","null","","","null","89","NaN","","","","","","","","","","","","","","",""
"","S2","","html-keyboard-response","566","779132","0.0-1.0-805.0","0","0","88731","","null","","","null","89","","NaN","","","","","","","","","","","","","",""
"","response","","html-keyboard-response","567","779962","0.0-1.0-806.0-0.0","0","0","88731","","828","","","68","89","","","2","89","training","adjacent","DC","4","3","N.jpg","Q.jpg","0","0","1","",""
"","feedback","","html-keyboard-response","568","780965","0.0-1.0-807.0-0.0","0","0","88731","","null","","","null","89","","","","","","","","","","","","","","","",""
"","ITI","","html-keyboard-response","569","781967","0.0-1.0-810.0","0","0","88731","","null","","","null","89","","","","","","","","","","","","","","","NaN",""
"","S1","","html-keyboard-response","570","782219","0.0-1.0-812.0","0","0","88731","","null","","","null","90","","","","","","","","","","","","","","","",""
"","ISI","","html-keyboard-response","571","784221","0.0-1.0-813.0","0","0","88731","","null","","","null","90","NaN","","","","","","","","","","","","","","",""
"","S2","","html-keyboard-response","572","784474","0.0-1.0-814.0","0","0","88731","","null","","","null","90","","NaN","","","","","","","","","","","","","",""
"","response","","html-keyboard-response","573","785066","0.0-1.0-815.0-0.0","0","0","88731","","590","","","68","90","","","2","90","training","adjacent","GF","7","6","P.jpg","M.jpg","0","0","1","",""
"","feedback","","html-keyboard-response","574","786068","0.0-1.0-816.0-0.0","0","0","88731","","null","","","null","90","","","","","","","","","","","","","","","",""
"","ITI","","html-keyboard-response","575","787070","0.0-1.0-819.0","0","0","88731","","null","","","null","90","","","","","","","","","","","","","","","NaN",""
"","S1","","html-keyboard-response","576","787323","0.0-1.0-821.0","0","0","88731","","null","","","null","91","","","","","","","","","","","","","","","",""
"","ISI","","html-keyboard-response","577","789325","0.0-1.0-822.0","0","0","88731","","null","","","null","91","NaN","","","","","","","","","","","","","","",""
"","S2","","html-keyboard-response","578","789578","0.0-1.0-823.0","0","0","88731","","null","","","null","91","","NaN","","","","","","","","","","","","","",""
"","response","","html-keyboard-response","579","789921","0.0-1.0-824.0-0.0","0","0","88731","","341","","","68","91","","","2","91","training","adjacent","DC","4","3","N.jpg","Q.jpg","0","0","1","",""
"","feedback","","html-keyboard-response","580","790923","0.0-1.0-825.0-0.0","0","0","88731","","null","","","null","91","","","","","","","","","","","","","","","",""
