"success","ttype","start_time","trial_type","trial_index","time_elapsed","internal_node_id","warning","missed_checkup","PID","view_history","rt","responses","repeat_instructions","key_press","index","keypress_isi","keypress_S2","block","trial_num","phase","group_type","pair_type","S1_stim","S2_stim","S1_img","S2_img","S1_chosen","S1_higher","accuracy","keypress_iti","total_bonus_tally"
"true","full_screen","d04142023hr1438","fullscreen","0","34799","0.0-0.0","0","0","38992","","","","","","","","","","","","","","","","","","","","","",""
"","instructions","","instructions","1","96069","0.0-1.0-0.0-0.0","0","0","38992","[{""page_index"":0,""viewing_time"":6860},{""page_index"":1,""viewing_time"":25882},{""page_index"":2,""viewing_time"":9460},{""page_index"":1,""viewing_time"":9909},{""page_index"":2,""viewing_time"":6747},{""page_index"":3,""viewing_time"":2410}]","61269","","","","","","","","","","","","","","","","","","","",""
"","comprehension_check","","survey-multi-choice","2","117059","0.0-1.0-0.0-1.0","0","0","38992","","20988","{""Q0"":""True"",""Q1"":""D"",""Q2"":""Only when the screen 'MAKE A CHOICE' is shown"",""Q3"":""Green mark"",""Q4"":""either D or K""}","1","","","","","","","","","","","","","","","","","",""
"","missed_instruction_checkup","","html-keyboard-response","3","120474","0.0-1.0-0.0-2.0-0.0","0","1","38992","","3413","","","32","","","","","","","","","","","","","","","","",""
"","instructions","","instructions","4","138156","0.0-1.0-0.1-0.1","0","0","38992","[{""page_index"":0,""viewing_time"":2522},{""page_index"":1,""viewing_time"":8521},{""page_index"":2,""viewing_time"":855},{""page_index"":3,""viewing_time"":1664},{""page_index"":2,""viewing_time"":3440},{""page_index"":3,""viewing_time"":678}]","17680","","","","","","","","","","","","","","","","","","","",""
"","comprehension_check","","survey-multi-choice","5","155922","0.0-1.0-0.1-1.1","0","0","38992","","17763","{""Q0"":""True"",""Q1"":""D"",""Q2"":""Once the second image appears and while the screen 'MAKE A CHOICE' is shown"",""Q3"":""Green mark"",""Q4"":""either D or K""}","0","","","","","","","","","","","","","","","","","",""
"","start_exp","","html-keyboard-response","6","158038","0.0-1.0-1.0","0","0","38992","","2114","","","32","","","","","","","","","","","","","","","","",""
"","S1","","html-keyboard-response","7","158291","0.0-1.0-2.0","0","0","38992","","null","","","null","0","","","","","","","","","","","","","","","",""
"","ISI","","html-keyboard-response","8","159293","0.0-1.0-3.0","0","0","38992","","null","","","null","0","NaN","","","","","","","","","","","","","","",""
"","S2","","html-keyboard-response","9","159545","0.0-1.0-4.0","0","0","38992","","null","","","null","0","","NaN","","","","","","","","","","","","","",""
"","response","","html-keyboard-response","10","160109","0.0-1.0-5.0-0.0","0","0","38992","","563","","","68","0","","","1","0","training","adjacent","BC","2","3","P.jpg","Q.jpg","1","1","1","",""
"","feedback","","html-keyboard-response","11","161112","0.0-1.0-6.0-0.0","0","0","38992","","null","","","null","0","","","","","","","","","","","","","","","",""
"","ITI","","html-keyboard-response","12","162114","0.0-1.0-9.0","0","0","38992","","null","","","null","0","","","","","","","","","","","","","","","NaN",""
"","S1","","html-keyboard-response","13","162366","0.0-1.0-11.0","0","0","38992","","null","","","null","1","","","","","","","","","","","","","","","",""
"","ISI","","html-keyboard-response","14","163368","0.0-1.0-12.0","0","0","38992","","null","","","null","1","NaN","","","","","","","","","","","","","","",""
"","S2","","html-keyboard-response","15","163620","0.0-1.0-13.0","0","0","38992","","null","","","null","1","","NaN","","","","","","","","","","","","","",""
"","response","","html-keyboard-response","16","163980","0.0-1.0-14.0-0.0","0","0","38992","","360","","","75","1","","","1","1","training","adjacent","AB","1","2","O.jpg","P.jpg","0","1","0","",""
"","feedback","","html-keyboard-response","17","164983","0.0-1.0-15.0-0.0","0","0","38992","","null","","","null","1","","","","","","","","","","","","","","","",""
"","time_out","","html-keyboard-response","18","166984","0.0-1.0-17.0-0.0","0","0","38992","","null","","","null","1","","","","","","","","","","","","","","","",""
"","ITI","","html-keyboard-response","19","167986","0.0-1.0-18.0","0","0","38992","","null","","","null","1","","","","","","","","","","","","","","","NaN",""
"","S1","","html-keyboard-response","20","168238","0.0-1.0-20.0","0","0","38992","","null","","","null","2","","","","","","","","","","","","","","","",""
"","ISI","","html-keyboard-response","21","169241","0.0-1.0-21.0","0","0","38992","","null","","","null","2","NaN","","","","","","","","","","","","","","",""
"","S2","","html-keyboard-response","22","169493","0.0-1.0-22.0","0","0","38992","","null","","","null","2","","NaN","","","","","","","","","","","","","",""
"","response","","html-keyboard-response","23","170106","0.0-1.0-23.0-0.0","0","0","38992","","612","","","75","2","","","1","2","training","adjacent","DC","4","3","L.jpg","Q.jpg","0","0","1","",""
"","feedback","","html-keyboard-response","24","171108","0.0-1.0-24.0-0.0","0","0","38992","","null","","","null","2","","","","","","","","","","","","","","","",""
"","ITI","","html-keyboard-response","25","172110","0.0-1.0-27.0","0","0","38992","","null","","","null","2","","","","","","","","","","","","","","","NaN",""
"","S1","","html-keyboard-response","26","172362","0.0-1.0-29.0","0","0","38992","","null","","","null","3","","","","","","","","","","","","","","","",""
"","ISI","","html-keyboard-response","27","173364","0.0-1.0-30.0","0","0","38992","","null","","","null","3","NaN","","","","","","","","","","","","","","",""
"","S2","","html-keyboard-response","28","173615","0.0-1.0-31.0","0","0","38992","","null","","","null","3","","NaN","","","","","","","","","","","","","",""
"","response","","html-keyboard-response","29","174180","0.0-1.0-32.0-0.0","0","0","38992","","563","","","68","3","","","1","3","training","adjacent","BA","2","1","P.jpg","O.jpg","1","0","0","",""
"","feedback","","html-keyboard-response","30","175181","0.0-1.0-33.0-0.0","0","0","38992","","null","","","null","3","","","","","","","","","","","","","","","",""
"","time_out","","html-keyboard-response","31","177184","0.0-1.0-35.0-0.0","0","0","38992","","null","","","null","3","","","","","","","","","","","","","","","",""
"","ITI","","html-keyboard-response","32","178185","0.0-1.0-36.0","0","0","38992","","null","","","null","3","","","","","","","","","","","","","","","NaN",""
"","S1","","html-keyboard-response","33","178438","0.0-1.0-38.0","0","0","38992","","null","","","null","4","","","","","","","","","","","","","","","",""
"","ISI","","html-keyboard-response","34","179440","0.0-1.0-39.0","0","0","38992","","null","","","null","4","NaN","","","","","","","","","","","","","","",""
"","S2","","html-keyboard-response","35","179692","0.0-1.0-40.0","0","0","38992","","null","","","null","4","","NaN","","","","","","","","","","","","","",""
"","response","","html-keyboard-response","36","180152","0.0-1.0-41.0-0.0","0","0","38992","","459","","","75","4","","","1","4","training","adjacent","BA","2","1","P.jpg","O.jpg","0","0","1","",""
"","feedback","","html-keyboard-response","37","181154","0.0-1.0-42.0-0.0","0","0","38992","","null","","","null","4","","","","","","","","","","","","","","","",""
"","ITI","","html-keyboard-response","38","182156","0.0-1.0-45.0","0","0","38992","","null","","","null","4","","","","","","","","","","","","","","","NaN",""
"","S1","","html-keyboard-response","39","182408","0.0-1.0-47.0","0","0","38992","","null","","","null","5","","","","","","","","","","","","","","","",""
"","ISI","","html-keyboard-response","40","183410","0.0-1.0-48.0","0","0","38992","","null","","","null","5","NaN","","","","","","","","","","","","","","",""
"","S2","","html-keyboard-response","41","183662","0.0-1.0-49.0","0","0","38992","","null","","","null","5","","NaN","","","","","","","","","","","","","",""
"","response","","html-keyboard-response","42","184179","0.0-1.0-50.0-0.0","0","0","38992","","516","","","75","5","","","1","5","training","adjacent","ED","5","4","M.jpg","L.jpg","0","0","1","",""
"","feedback","","html-keyboard-response","43","185181","0.0-1.0-51.0-0.0","0","0","38992","","null","","","null","5","","","","","","","","","","","","","","","",""
"","ITI","","html-keyboard-response","44","186183","0.0-1.0-54.0","0","0","38992","","null","","","null","5","","","","","","","","","","","","","","","NaN",""
"","S1","","html-keyboard-response","45","186436","0.0-1.0-56.0","0","0","38992","","null","","","null","6","","","","","","","","","","","","","","","",""
"","ISI","","html-keyboard-response","46","187438","0.0-1.0-57.0","0","0","38992","","null","","","null","6","NaN","","","","","","","","","","","","","","",""
"","S2","","html-keyboard-response","47","187689","0.0-1.0-58.0","0","0","38992","","null","","","null","6","","NaN","","","","","","","","","","","","","",""
"","response","","html-keyboard-response","48","188122","0.0-1.0-59.0-0.0","0","0","38992","","431","","","68","6","","","1","6","training","adjacent","CB","3","2","Q.jpg","P.jpg","1","0","0","",""
"","feedback","","html-keyboard-response","49","189124","0.0-1.0-60.0-0.0","0","0","38992","","null","","","null","6","","","","","","","","","","","","","","","",""
"","time_out","","html-keyboard-response","50","191125","0.0-1.0-62.0-0.0","0","0","38992","","null","","","null","6","","","","","","","","","","","","","","","",""
"","ITI","","html-keyboard-response","51","192129","0.0-1.0-63.0","0","0","38992","","null","","","null","6","","","","","","","","","","","","","","","NaN",""
"","S1","","html-keyboard-response","52","192380","0.0-1.0-65.0","0","0","38992","","null","","","null","7","","","","","","","","","","","","","","","",""
"","ISI","","html-keyboard-response","53","193382","0.0-1.0-66.0","0","0","38992","","null","","","null","7","NaN","","","","","","","","","","","","","","",""
"","S2","","html-keyboard-response","54","193634","0.0-1.0-67.0","0","0","38992","","null","","","null","7","","NaN","","","","","","","","","","","","","",""
"","response","","html-keyboard-response","55","194050","0.0-1.0-68.0-0.0","0","0","38992","","415","","","68","7","","","1","7","training","adjacent","EF","5","6","M.jpg","N.jpg","1","1","1","",""
"","feedback","","html-keyboard-response","56","195052","0.0-1.0-69.0-0.0","0","0","38992","","null","","","null","7","","","","","","","","","","","","","","","",""
"","ITI","","html-keyboard-response","57","196054","0.0-1.0-72.0","0","0","38992","","null","","","null","7","","","","","","","","","","","","","","","NaN",""
"","S1","","html-keyboard-response","58","196305","0.0-1.0-74.0","0","0","38992","","null","","","null","8","","","","","","","","","","","","","","","",""
"","ISI","","html-keyboard-response","59","197308","0.0-1.0-75.0","0","0","38992","","null","","","null","8","NaN","","","","","","","","","","","","","","",""
"","S2","","html-keyboard-response","60","197560","0.0-1.0-76.0","0","0","38992","","null","","","null","8","","NaN","","","","","","","","","","","","","",""
"","response","","html-keyboard-response","61","197917","0.0-1.0-77.0-0.0","0","0","38992","","356","","","75","8","","","1","8","training","adjacent","BC","2","3","P.jpg","Q.jpg","0","1","0","",""
"","feedback","","html-keyboard-response","62","198920","0.0-1.0-78.0-0.0","0","0","38992","","null","","","null","8","","","","","","","","","","","","","","","",""
"","time_out","","html-keyboard-response","63","200922","0.0-1.0-80.0-0.0","0","0","38992","","null","","","null","8","","","","","","","","","","","","","","","",""
"","ITI","","html-keyboard-response","64","201924","0.0-1.0-81.0","0","0","38992","","null","","","null","8","","","","","","","","","","","","","","","NaN",""
"","S1","","html-keyboard-response","65","202176","0.0-1.0-83.0","0","0","38992","","null","","","null","9","","","","","","","","","","","","","","","",""
"","ISI","","html-keyboard-response","66","203178","0.0-1.0-84.0","0","0","38992","","null","","","null","9","NaN","","","","","","","","","","","","","","",""
"","S2","","html-keyboard-response","67","203430","0.0-1.0-85.0","0","0","38992","","null","","","null","9","","NaN","","","","","","","","","","","","","",""
"","response","","html-keyboard-response","68","203888","0.0-1.0-86.0-0.0","0","0","38992","","457","","","75","9","","","1","9","training","adjacent","CD","3","4","Q.jpg","L.jpg","0","1","0","",""
"","feedback","","html-keyboard-response","69","204890","0.0-1.0-87.0-0.0","0","0","38992","","null","","","null","9","","","","","","","","","","","","","","","",""
"","time_out","","html-keyboard-response","70","206892","0.0-1.0-89.0-0.0","0","0","38992","","null","","","null","9","","","","","","","","","","","","","","","",""
"","ITI","","html-keyboard-response","71","207895","0.0-1.0-90.0","0","0","38992","","null","","","null","9","","","","","","","","","","","","","","","NaN",""
"","S1","","html-keyboard-response","72","208147","0.0-1.0-92.0","0","0","38992","","null","","","null","10","","","","","","","","","","","","","","","",""
"","ISI","","html-keyboard-response","73","209148","0.0-1.0-93.0","0","0","38992","","null","","","null","10","NaN","","","","","","","","","","","","","","",""
"","S2","","html-keyboard-response","74","209400","0.0-1.0-94.0","0","0","38992","","null","","","null","10","","NaN","","","","","","","","","","","","","",""
"","response","","html-keyboard-response","75","209918","0.0-1.0-95.0-0.0","0","0","38992","","517","","","68","10","","","1","10","training","adjacent","EF","5","6","M.jpg","N.jpg","1","1","1","",""
"","feedback","","html-keyboard-response","76","210920","0.0-1.0-96.0-0.0","0","0","38992","","null","","","null","10","","","","","","","","","","","","","","","",""
"","ITI","","html-keyboard-response","77","211922","0.0-1.0-99.0","0","0","38992","","null","","","null","10","","","","","","","","","","","","","","","NaN",""
"","S1","","html-keyboard-response","78","212174","0.0-1.0-101.0","0","0","38992","","null","","","null","11","","","","","","","","","","","","","","","",""
"","ISI","","html-keyboard-response","79","213177","0.0-1.0-102.0","0","0","38992","","null","","","null","11","NaN","","","","","","","","","","","","","","",""
"","S2","","html-keyboard-response","80","213429","0.0-1.0-103.0","0","0","38992","","null","","","null","11","","NaN","","","","","","","","","","","","","",""
"","response","","html-keyboard-response","81","214061","0.0-1.0-104.0-0.0","0","0","38992","","630","","","75","11","","","1","11","training","adjacent","CD","3","4","Q.jpg","L.jpg","0","1","0","",""
"","feedback","","html-keyboard-response","82","215063","0.0-1.0-105.0-0.0","0","0","38992","","null","","","null","11","","","","","","","","","","","","","","","",""
"","time_out","","html-keyboard-response","83","217064","0.0-1.0-107.0-0.0","0","0","38992","","null","","","null","11","","","","","","","","","","","","","","","",""
"","ITI","","html-keyboard-response","84","218065","0.0-1.0-108.0","0","0","38992","","null","","","null","11","","","","","","","","","","","","","","","NaN",""
"","S1","","html-keyboard-response","85","218318","0.0-1.0-110.0","0","0","38992","","null","","","null","12","","","","","","","","","","","","","","","",""
"","ISI","","html-keyboard-response","86","219320","0.0-1.0-111.0","0","0","38992","","null","","","null","12","NaN","","","","","","","","","","","","","","",""
"","S2","","html-keyboard-response","87","219572","0.0-1.0-112.0","0","0","38992","","null","","","null","12","","NaN","","","","","","","","","","","","","",""
"","response","","html-keyboard-response","88","219917","0.0-1.0-113.0-0.0","0","0","38992","","344","","","75","12","","","1","12","training","adjacent","FE","6","5","N.jpg","M.jpg","0","0","1","",""
"","feedback","","html-keyboard-response","89","220919","0.0-1.0-114.0-0.0","0","0","38992","","null","","","null","12","","","","","","","","","","","","","","","",""
"","ITI","","html-keyboard-response","90","221922","0.0-1.0-117.0","0","0","38992","","null","","","null","12","","","","","","","","","","","","","","","NaN",""
"","S1","","html-keyboard-response","91","222174","0.0-1.0-119.0","0","0","38992","","null","","","null","13","","","","","","","","","","","","","","","",""
"","ISI","","html-keyboard-response","92","223176","0.0-1.0-120.0","0","0","38992","","null","","","null","13","NaN","","","","","","","","","","","","","","",""
"","S2","","html-keyboard-response","93","223428","0.0-1.0-121.0","0","0","38992","","null","","","null","13","","NaN","","","","","","","","","","","","","",""
"","response","","html-keyboard-response","94","223804","0.0-1.0-122.0-0.0","0","0","38992","","375","","","68","13","","","1","13","training","adjacent","FE","6","5","N.jpg","M.jpg","1","0","0","",""
"","feedback","","html-keyboard-response","95","224806","0.0-1.0-123.0-0.0","0","0","38992","","null","","","null","13","","","","","","","","","","","","","","","",""
"","time_out","","html-keyboard-response","96","226808","0.0-1.0-125.0-0.0","0","0","38992","","null","","","null","13","","","","","","","","","","","","","","","",""
"","ITI","","html-keyboard-response","97","227810","0.0-1.0-126.0","0","0","38992","","null","","","null","13","","","","","","","","","","","","","","","NaN",""
"","S1","","html-keyboard-response","98","228062","0.0-1.0-128.0","0","0","38992","","null","","","null","14","","","","","","","","","","","","","","","",""
"","ISI","","html-keyboard-response","99","229065","0.0-1.0-129.0","0","0","38992","","null","","","null","14","NaN","","","","","","","","","","","","","","",""
"","S2","","html-keyboard-response","100","229317","0.0-1.0-130.0","0","0","38992","","null","","","null","14","","NaN","","","","","","","","","","","","","",""
"","response","","html-keyboard-response","101","229718","0.0-1.0-131.0-0.0","0","0","38992","","401","","","75","14","","","1","14","training","adjacent","GF","7","6","R.jpg","N.jpg","0","0","1","",""
"","feedback","","html-keyboard-response","102","230720","0.0-1.0-132.0-0.0","0","0","38992","","null","","","null","14","","","","","","","","","","","","","","","",""
"","ITI","","html-keyboard-response","103","231722","0.0-1.0-135.0","0","0","38992","","null","","","null","14","","","","","","","","","","","","","","","NaN",""
"","S1","","html-keyboard-response","104","231975","0.0-1.0-137.0","0","0","38992","","null","","","null","15","","","","","","","","","","","","","","","",""
"","ISI","","html-keyboard-response","105","232977","0.0-1.0-138.0","0","0","38992","","null","","","null","15","NaN","","","","","","","","","","","","","","",""
"","S2","","html-keyboard-response","106","233229","0.0-1.0-139.0","0","0","38992","","null","","","null","15","","NaN","","","","","","","","","","","","","",""
"","response","","html-keyboard-response","107","233703","0.0-1.0-140.0-0.0","0","0","38992","","472","","","68","15","","","1","15","training","adjacent","FG","6","7","N.jpg","R.jpg","1","1","1","",""
"","feedback","","html-keyboard-response","108","234704","0.0-1.0-141.0-0.0","0","0","38992","","null","","","null","15","","","","","","","","","","","","","","","",""
"","ITI","","html-keyboard-response","109","235706","0.0-1.0-144.0","0","0","38992","","null","","","null","15","","","","","","","","","","","","","","","NaN",""
"","S1","","html-keyboard-response","110","235958","0.0-1.0-146.0","0","0","38992","","null","","","null","16","","","","","","","","","","","","","","","",""
"","ISI","","html-keyboard-response","111","236960","0.0-1.0-147.0","0","0","38992","","null","","","null","16","NaN","","","","","","","","","","","","","","",""
"","S2","","html-keyboard-response","112","237212","0.0-1.0-148.0","0","0","38992","","null","","","null","16","","NaN","","","","","","","","","","","","","",""
"","response","","html-keyboard-response","113","237734","0.0-1.0-149.0-0.0","0","0","38992","","520","","","68","16","","","1","16","training","adjacent","DE","4","5","L.jpg","M.jpg","1","1","1","",""
"","feedback","","html-keyboard-response","114","238735","0.0-1.0-150.0-0.0","0","0","38992","","null","","","null","16","","","","","","","","","","","","","","","",""
"","ITI","","html-keyboard-response","115","239738","0.0-1.0-153.0","0","0","38992","","null","","","null","16","","","","","","","","","","","","","","","NaN",""
"","S1","","html-keyboard-response","116","239990","0.0-1.0-155.0","0","0","38992","","null","","","null","17","","","","","","","","","","","","","","","",""
"","ISI","","html-keyboard-response","117","240992","0.0-1.0-156.0","0","0","38992","","null","","","null","17","NaN","","","","","","","","","","","","","","",""
"","S2","","html-keyboard-response","118","241244","0.0-1.0-157.0","0","0","38992","","null","","","null","17","","NaN","","","","","","","","","","","","","",""
"","response","","html-keyboard-response","119","241646","0.0-1.0-158.0-0.0","0","0","38992","","401","","","75","17","","","1","17","training","adjacent","BA","2","1","P.jpg","O.jpg","0","0","1","",""
"","feedback","","html-keyboard-response","120","242648","0.0-1.0-159.0-0.0","0","0","38992","","null","","","null","17","","","","","","","","","","","","","","","",""
"","ITI","","html-keyboard-response","121","243650","0.0-1.0-162.0","0","0","38992","","null","","","null","17","","","","","","","","","","","","","","","NaN",""
"","S1","","html-keyboard-response","122","243902","0.0-1.0-164.0","0","0","38992","","null","","","null","18","","","","","","","","","","","","","","","",""
"","ISI","","html-keyboard-response","123","244904","0.0-1.0-165.0","0","0","38992","","null","","","null","18","NaN","","","","","","","","","","","","","","",""
"","S2","","html-keyboard-response","124","245156","0.0-1.0-166.0","0","0","38992","","null","","","null","18","","NaN","","","","","","","","","","","","","",""
"","response","","html-keyboard-response","125","245604","0.0-1.0-167.0-0.0","0","0","38992","","448","","","68","18","","","1","18","training","adjacent","DC","4","3","L.jpg","Q.jpg","1","0","0","",""
"","feedback","","html-keyboard-response","126","246607","0.0-1.0-168.0-0.0","0","0","38992","","null","","","null","18","","","","","","","","","","","","","","","",""
"","time_out","","html-keyboard-response","127","248608","0.0-1.0-170.0-0.0","0","0","38992","","null","","","null","18","","","","","","","","","","","","","","","",""
"","ITI","","html-keyboard-response","128","249609","0.0-1.0-171.0","0","0","38992","","null","","","null","18","","","","","","","","","","","","","","","NaN",""
"","S1","","html-keyboard-response","129","249861","0.0-1.0-173.0","0","0","38992","","null","","","null","19","","","","","","","","","","","","","","","",""
"","ISI","","html-keyboard-response","130","250863","0.0-1.0-174.0","0","0","38992","","null","","","null","19","NaN","","","","","","","","","","","","","","",""
"","S2","","html-keyboard-response","131","251116","0.0-1.0-175.0","0","0","38992","","null","","","null","19","","NaN","","","","","","","","","","","","","",""
"","response","","html-keyboard-response","132","251475","0.0-1.0-176.0-0.0","0","0","38992","","358","","","75","19","","","1","19","training","adjacent","DE","4","5","L.jpg","M.jpg","0","1","0","",""
"","feedback","","html-keyboard-response","133","252477","0.0-1.0-177.0-0.0","0","0","38992","","null","","","null","19","","","","","","","","","","","","","","","",""
"","time_out","","html-keyboard-response","134","254479","0.0-1.0-179.0-0.0","0","0","38992","","null","","","null","19","","","","","","","","","","","","","","","",""
"","ITI","","html-keyboard-response","135","255481","0.0-1.0-180.0","0","0","38992","","null","","","null","19","","","","","","","","","","","","","","","NaN",""
"","S1","","html-keyboard-response","136","255732","0.0-1.0-182.0","0","0","38992","","null","","","null","20","","","","","","","","","","","","","","","",""
"","ISI","","html-keyboard-response","137","256734","0.0-1.0-183.0","0","0","38992","","null","","","null","20","NaN","","","","","","","","","","","","","","",""
"","S2","","html-keyboard-response","138","256986","0.0-1.0-184.0","0","0","38992","","null","","","null","20","","NaN","","","","","","","","","","","","","",""
"","response","","html-keyboard-response","139","257217","0.0-1.0-185.0-0.0","0","0","38992","","229","","","75","20","","","1","20","training","adjacent","GF","7","6","R.jpg","N.jpg","0","0","1","",""
"","feedback","","html-keyboard-response","140","258219","0.0-1.0-186.0-0.0","0","0","38992","","null","","","null","20","","","","","","","","","","","","","","","",""
"","ITI","","html-keyboard-response","141","259221","0.0-1.0-189.0","0","0","38992","","null","","","null","20","","","","","","","","","","","","","","","NaN",""
"","S1","","html-keyboard-response","142","259472","0.0-1.0-191.0","0","0","38992","","null","","","null","21","","","","","","","","","","","","","","","",""
"","ISI","","html-keyboard-response","143","260473","0.0-1.0-192.0","0","0","38992","","null","","","null","21","NaN","","","","","","","","","","","","","","",""
"","S2","","html-keyboard-response","144","260725","0.0-1.0-193.0","0","0","38992","","null","","","null","21","","NaN","","","","","","","","","","","","","",""
"","response","","html-keyboard-response","145","261072","0.0-1.0-194.0-0.0","0","0","38992","","346","","","68","21","","","1","21","training","adjacent","FE","6","5","N.jpg","M.jpg","1","0","0","",""
"","feedback","","html-keyboard-response","146","262074","0.0-1.0-195.0-0.0","0","0","38992","","null","","","null","21","","","","","","","","","","","","","","","",""
"","time_out","","html-keyboard-response","147","264077","0.0-1.0-197.0-0.0","0","0","38992","","null","","","null","21","","","","","","","","","","","","","","","",""
"","ITI","","html-keyboard-response","148","265078","0.0-1.0-198.0","0","0","38992","","null","","","null","21","","","","","","","","","","","","","","","NaN",""
"","S1","","html-keyboard-response","149","265331","0.0-1.0-200.0","0","0","38992","","null","","","null","22","","","","","","","","","","","","","","","",""
"","ISI","","html-keyboard-response","150","266332","0.0-1.0-201.0","0","0","38992","","null","","","null","22","NaN","","","","","","","","","","","","","","",""
"","S2","","html-keyboard-response","151","266584","0.0-1.0-202.0","0","0","38992","","null","","","null","22","","NaN","","","","","","","","","","","","","",""
"","response","","html-keyboard-response","152","266929","0.0-1.0-203.0-0.0","0","0","38992","","343","","","68","22","","","1","22","training","adjacent","FG","6","7","N.jpg","R.jpg","1","1","1","",""
"","feedback","","html-keyboard-response","153","267932","0.0-1.0-204.0-0.0","0","0","38992","","null","","","null","22","","","","","","","","","","","","","","","",""
"","ITI","","html-keyboard-response","154","268934","0.0-1.0-207.0","0","0","38992","","null","","","null","22","","","","","","","","","","","","","","","NaN",""
"","S1","","html-keyboard-response","155","269186","0.0-1.0-209.0","0","0","38992","","null","","","null","23","","","","","","","","","","","","","","","",""
"","ISI","","html-keyboard-response","156","270187","0.0-1.0-210.0","0","0","38992","","null","","","null","23","NaN","","","","","","","","","","","","","","",""
"","S2","","html-keyboard-response","157","270439","0.0-1.0-211.0","0","0","38992","","null","","","null","23","","NaN","","","","","","","","","","","","","",""
"","response","","html-keyboard-response","158","270843","0.0-1.0-212.0-0.0","0","0","38992","","402","","","68","23","","","1","23","training","adjacent","DC","4","3","L.jpg","Q.jpg","1","0","0","",""
"","feedback","","html-keyboard-response","159","271845","0.0-1.0-213.0-0.0","0","0","38992","","null","","","null","23","","","","","","","","","","","","","","","",""
"","time_out","","html-keyboard-response","160","273848","0.0-1.0-215.0-0.0","0","0","38992","","null","","","null","23","","","","","","","","","","","","","","","",""
"","ITI","","html-keyboard-response","161","274850","0.0-1.0-216.0","0","0","38992","","null","","","null","23","","","","","","","","","","","","","","","NaN",""
"","S1","","html-keyboard-response","162","275103","0.0-1.0-218.0","0","0","38992","","null","","","null","24","","","","","","","","","","","","","","","",""
"","ISI","","html-keyboard-response","163","276104","0.0-1.0-219.0","0","0","38992","","null","","","null","24","NaN","","","","","","","","","","","","","","",""
"","S2","","html-keyboard-response","164","276357","0.0-1.0-220.0","0","0","38992","","null","","","null","24","","NaN","","","","","","","","","","","","","",""
"","response","","html-keyboard-response","165","276540","0.0-1.0-221.0-0.0","0","0","38992","","182","","","68","24","","","1","24","training","adjacent","CB","3","2","Q.jpg","P.jpg","1","0","0","",""
"","feedback","","html-keyboard-response","166","277543","0.0-1.0-222.0-0.0","0","0","38992","","null","","","null","24","","","","","","","","","","","","","","","",""
"","time_out","","html-keyboard-response","167","279544","0.0-1.0-224.0-0.0","0","0","38992","","null","","","null","24","","","","","","","","","","","","","","","",""
"","ITI","","html-keyboard-response","168","280545","0.0-1.0-225.0","0","0","38992","","null","","","null","24","","","","","","","","","","","","","","","NaN",""
"","S1","","html-keyboard-response","169","280798","0.0-1.0-227.0","0","0","38992","","null","","","null","25","","","","","","","","","","","","","","","",""
"","ISI","","html-keyboard-response","170","281800","0.0-1.0-228.0","0","0","38992","","null","","","null","25","NaN","","","","","","","","","","","","","","",""
"","S2","","html-keyboard-response","171","282051","0.0-1.0-229.0","0","0","38992","","null","","","null","25","","NaN","","","","","","","","","","","","","",""
"","response","","html-keyboard-response","172","282426","0.0-1.0-230.0-0.0","0","0","38992","","373","","","75","25","","","1","25","training","adjacent","BC","2","3","P.jpg","Q.jpg","0","1","0","",""
"","feedback","","html-keyboard-response","173","283429","0.0-1.0-231.0-0.0","0","0","38992","","null","","","null","25","","","","","","","","","","","","","","","",""
"","time_out","","html-keyboard-response","174","285431","0.0-1.0-233.0-0.0","0","0","38992","","null","","","null","25","","","","","","","","","","","","","","","",""
"","ITI","","html-keyboard-response","175","286433","0.0-1.0-234.0","0","0","38992","","null","","","null","25","","","","","","","","","","","","","","","NaN",""
"","S1","","html-keyboard-response","176","286685","0.0-1.0-236.0","0","0","38992","","null","","","null","26","","","","","","","","","","","","","","","",""
"","ISI","","html-keyboard-response","177","287686","0.0-1.0-237.0","0","0","38992","","null","","","null","26","NaN","","","","","","","","","","","","","","",""
"","S2","","html-keyboard-response","178","287939","0.0-1.0-238.0","0","0","38992","","null","","","null","26","","NaN","","","","","","","","","","","","","",""
"","response","","html-keyboard-response","179","288295","0.0-1.0-239.0-0.0","0","0","38992","","355","","","68","26","","","1","26","training","adjacent","FG","6","7","N.jpg","R.jpg","1","1","1","",""
"","feedback","","html-keyboard-response","180","289297","0.0-1.0-240.0-0.0","0","0","38992","","null","","","null","26","","","","","","","","","","","","","","","",""
"","ITI","","html-keyboard-response","181","290299","0.0-1.0-243.0","0","0","38992","","null","","","null","26","","","","","","","","","","","","","","","NaN",""
"","S1","","html-keyboard-response","182","290551","0.0-1.0-245.0","0","0","38992","","null","","","null","27","","","","","","","","","","","","","","","",""
"","ISI","","html-keyboard-response","183","291552","0.0-1.0-246.0","0","0","38992","","null","","","null","27","NaN","","","","","","","","","","","","","","",""
"","S2","","html-keyboard-response","184","291804","0.0-1.0-247.0","0","0","38992","","null","","","null","27","","NaN","","","","","","","","","","","","","",""
"","response","","html-keyboard-response","185","292261","0.0-1.0-248.0-0.0","0","0","38992","","457","","","75","27","","","1","27","training","adjacent","ED","5","4","M.jpg","L.jpg","0","0","1","",""
"","feedback","","html-keyboard-response","186","293264","0.0-1.0-249.0-0.0","0","0","38992","","null","","","null","27","","","","","","","","","","","","","","","",""
"","ITI","","html-keyboard-response","187","294266","0.0-1.0-252.0","0","0","38992","","null","","","null","27","","","","","","","","","","","","","","","NaN",""
"","S1","","html-keyboard-response","188","294518","0.0-1.0-254.0","0","0","38992","","null","","","null","28","","","","","","","","","","","","","","","",""
"","ISI","","html-keyboard-response","189","295521","0.0-1.0-255.0","0","0","38992","","null","","","null","28","NaN","","","","","","","","","","","","","","",""
"","S2","","html-keyboard-response","190","295772","0.0-1.0-256.0","0","0","38992","","null","","","null","28","","NaN","","","","","","","","","","","","","",""
"","response","","html-keyboard-response","191","296177","0.0-1.0-257.0-0.0","0","0","38992","","403","","","68","28","","","1","28","training","adjacent","AB","1","2","O.jpg","P.jpg","1","1","1","",""
"","feedback","","html-keyboard-response","192","297180","0.0-1.0-258.0-0.0","0","0","38992","","null","","","null","28","","","","","","","","","","","","","","","",""
"","ITI","","html-keyboard-response","193","298182","0.0-1.0-261.0","0","0","38992","","null","","","null","28","","","","","","","","","","","","","","","NaN",""
"","S1","","html-keyboard-response","194","298433","0.0-1.0-263.0","0","0","38992","","null","","","null","29","","","","","","","","","","","","","","","",""
"","ISI","","html-keyboard-response","195","299435","0.0-1.0-264.0","0","0","38992","","null","","","null","29","NaN","","","","","","","","","","","","","","",""
"","S2","","html-keyboard-response","196","299687","0.0-1.0-265.0","0","0","38992","","null","","","null","29","","NaN","","","","","","","","","","","","","",""
"","response","","html-keyboard-response","197","300000","0.0-1.0-266.0-0.0","0","0","38992","","312","","","68","29","","","1","29","training","adjacent","CB","3","2","Q.jpg","P.jpg","1","0","0","",""
"","feedback","","html-keyboard-response","198","301003","0.0-1.0-267.0-0.0","0","0","38992","","null","","","null","29","","","","","","","","","","","","","","","",""
"","time_out","","html-keyboard-response","199","303004","0.0-1.0-269.0-0.0","0","0","38992","","null","","","null","29","","","","","","","","","","","","","","","",""
"","ITI","","html-keyboard-response","200","304006","0.0-1.0-270.0","0","0","38992","","null","","","null","29","","","","","","","","","","","","","","","NaN",""
"","S1","","html-keyboard-response","201","304258","0.0-1.0-272.0","0","0","38992","","null","","","null","30","","","","","","","","","","","","","","","",""
"","ISI","","html-keyboard-response","202","305259","0.0-1.0-273.0","0","0","38992","","null","","","null","30","NaN","","","","","","","","","","","","","","",""
"","S2","","html-keyboard-response","203","305512","0.0-1.0-274.0","0","0","38992","","null","","","null","30","","NaN","","","","","","","","","","","","","",""
"","response","","html-keyboard-response","204","305899","0.0-1.0-275.0-0.0","0","0","38992","","386","","","75","30","","","1","30","training","adjacent","BA","2","1","P.jpg","O.jpg","0","0","1","",""
"","feedback","","html-keyboard-response","205","306901","0.0-1.0-276.0-0.0","0","0","38992","","null","","","null","30","","","","","","","","","","","","","","","",""
"","ITI","","html-keyboard-response","206","307903","0.0-1.0-279.0","0","0","38992","","null","","","null","30","","","","","","","","","","","","","","","NaN",""
"","S1","","html-keyboard-response","207","308154","0.0-1.0-281.0","0","0","38992","","null","","","null","31","","","","","","","","","","","","","","","",""
"","ISI","","html-keyboard-response","208","309156","0.0-1.0-282.0","0","0","38992","","null","","","null","31","NaN","","","","","","","","","","","","","","",""
"","S2","","html-keyboard-response","209","309408","0.0-1.0-283.0","0","0","38992","","null","","","null","31","","NaN","","","","","","","","","","","","","",""
"","response","","html-keyboard-response","210","309784","0.0-1.0-284.0-0.0","0","0","38992","","375","","","75","31","","","1","31","training","adjacent","DC","4","3","L.jpg","Q.jpg","0","0","1","",""
"","feedback","","html-keyboard-response","211","310785","0.0-1.0-285.0-0.0","0","0","38992","","null","","","null","31","","","","","","","","","","","","","","","",""
"","ITI","","html-keyboard-response","212","311787","0.0-1.0-288.0","0","0","38992","","null","","","null","31","","","","","","","","","","","","","","","NaN",""
"","S1","","html-keyboard-response","213","312040","0.0-1.0-290.0","0","0","38992","","null","","","null","32","","","","","","","","","","","","","","","",""
"","ISI","","html-keyboard-response","214","313042","0.0-1.0-291.0","0","0","38992","","null","","","null","32","NaN","","","","","","","","","","","","","","",""
"","S2","","html-keyboard-response","215","313294","0.0-1.0-292.0","0","0","38992","","null","","","null","32","","NaN","","","","","","","","","","","","","",""
"","response","","html-keyboard-response","216","313741","0.0-1.0-293.0-0.0","0","0","38992","","445","","","68","32","","","1","32","training","adjacent","ED","5","4","M.jpg","L.jpg","1","0","0","",""
"","feedback","","html-keyboard-response","217","314742","0.0-1.0-294.0-0.0","0","0","38992","","null","","","null","32","","","","","","","","","","","","","","","",""
"","time_out","","html-keyboard-response","218","316745","0.0-1.0-296.0-0.0","0","0","38992","","null","","","null","32","","","","","","","","","","","","","","","",""
"","ITI","","html-keyboard-response","219","317746","0.0-1.0-297.0","0","0","38992","","null","","","null","32","","","","","","","","","","","","","","","NaN",""
"","S1","","html-keyboard-response","220","317998","0.0-1.0-299.0","0","0","38992","","null","","","null","33","","","","","","","","","","","","","","","",""
"","ISI","","html-keyboard-response","221","319001","0.0-1.0-300.0","0","0","38992","","null","","","null","33","NaN","","","","","","","","","","","","","","",""
"","S2","","html-keyboard-response","222","319252","0.0-1.0-301.0","0","0","38992","","null","","","null","33","","NaN","","","","","","","","","","","","","",""
"","response","","html-keyboard-response","223","319650","0.0-1.0-302.0-0.0","0","0","38992","","396","","","68","33","","","1","33","training","adjacent","AB","1","2","O.jpg","P.jpg","1","1","1","",""
"","feedback","","html-keyboard-response","224","320652","0.0-1.0-303.0-0.0","0","0","38992","","null","","","null","33","","","","","","","","","","","","","","","",""
"","ITI","","html-keyboard-response","225","321654","0.0-1.0-306.0","0","0","38992","","null","","","null","33","","","","","","","","","","","","","","","NaN",""
"","S1","","html-keyboard-response","226","321906","0.0-1.0-308.0","0","0","38992","","null","","","null","34","","","","","","","","","","","","","","","",""
"","ISI","","html-keyboard-response","227","322908","0.0-1.0-309.0","0","0","38992","","null","","","null","34","NaN","","","","","","","","","","","","","","",""
"","S2","","html-keyboard-response","228","323161","0.0-1.0-310.0","0","0","38992","","null","","","null","34","","NaN","","","","","","","","","","","","","",""
"","response","","html-keyboard-response","229","323392","0.0-1.0-311.0-0.0","0","0","38992","","230","","","75","34","","","1","34","training","adjacent","GF","7","6","R.jpg","N.jpg","0","0","1","",""
"","feedback","","html-keyboard-response","230","324393","0.0-1.0-312.0-0.0","0","0","38992","","null","","","null","34","","","","","","","","","","","","","","","",""
"","ITI","","html-keyboard-response","231","325394","0.0-1.0-315.0","0","0","38992","","null","","","null","34","","","","","","","","","","","","","","","NaN",""
"","S1","","html-keyboard-response","232","325647","0.0-1.0-317.0","0","0","38992","","null","","","null","35","","","","","","","","","","","","","","","",""
"","ISI","","html-keyboard-response","233","326650","0.0-1.0-318.0","0","0","38992","","null","","","null","35","NaN","","","","","","","","","","","","","","",""
"","S2","","html-keyboard-response","234","326902","0.0-1.0-319.0","0","0","38992","","null","","","null","35","","NaN","","","","","","","","","","","","","",""
"","response","","html-keyboard-response","235","327378","0.0-1.0-320.0-0.0","0","0","38992","","475","","","68","35","","","1","35","training","adjacent","DE","4","5","L.jpg","M.jpg","1","1","1","",""
"","feedback","","html-keyboard-response","236","328380","0.0-1.0-321.0-0.0","0","0","38992","","null","","","null","35","","","","","","","","","","","","","","","",""
"","ITI","","html-keyboard-response","237","329382","0.0-1.0-324.0","0","0","38992","","null","","","null","35","","","","","","","","","","","","","","","NaN",""
"","S1","","html-keyboard-response","238","329634","0.0-1.0-326.0","0","0","38992","","null","","","null","36","","","","","","","","","","","","","","","",""
"","ISI","","html-keyboard-response","239","330637","0.0-1.0-327.0","0","0","38992","","null","","","null","36","NaN","","","","","","","","","","","","","","",""
"","S2","","html-keyboard-response","240","330890","0.0-1.0-328.0","0","0","38992","","null","","","null","36","","NaN","","","","","","","","","","","","","",""
"","response","","html-keyboard-response","241","331273","0.0-1.0-329.0-0.0","0","0","38992","","383","","","75","36","","","1","36","training","adjacent","CD","3","4","Q.jpg","L.jpg","0","1","0","",""
"","feedback","","html-keyboard-response","242","332276","0.0-1.0-330.0-0.0","0","0","38992","","null","","","null","36","","","","","","","","","","","","","","","",""
"","time_out","","html-keyboard-response","243","334279","0.0-1.0-332.0-0.0","0","0","38992","","null","","","null","36","","","","","","","","","","","","","","","",""
"","ITI","","html-keyboard-response","244","335280","0.0-1.0-333.0","0","0","38992","","null","","","null","36","","","","","","","","","","","","","","","NaN",""
"","S1","","html-keyboard-response","245","335532","0.0-1.0-335.0","0","0","38992","","null","","","null","37","","","","","","","","","","","","","","","",""
"","ISI","","html-keyboard-response","246","336533","0.0-1.0-336.0","0","0","38992","","null","","","null","37","NaN","","","","","","","","","","","","","","",""
"","S2","","html-keyboard-response","247","336785","0.0-1.0-337.0","0","0","38992","","null","","","null","37","","NaN","","","","","","","","","","","","","",""
"","response","","html-keyboard-response","248","337088","0.0-1.0-338.0-0.0","0","0","38992","","302","","","75","37","","","1","37","training","adjacent","BC","2","3","P.jpg","Q.jpg","0","1","0","",""
"","feedback","","html-keyboard-response","249","338090","0.0-1.0-339.0-0.0","0","0","38992","","null","","","null","37","","","","","","","","","","","","","","","",""
"","time_out","","html-keyboard-response","250","340092","0.0-1.0-341.0-0.0","0","0","38992","","null","","","null","37","","","","","","","","","","","","","","","",""
"","ITI","","html-keyboard-response","251","341094","0.0-1.0-342.0","0","0","38992","","null","","","null","37","","","","","","","","","","","","","","","NaN",""
"","S1","","html-keyboard-response","252","341345","0.0-1.0-344.0","0","0","38992","","null","","","null","38","","","","","","","","","","","","","","","",""
"","ISI","","html-keyboard-response","253","342348","0.0-1.0-345.0","0","0","38992","","null","","","null","38","NaN","","","","","","","","","","","","","","",""
"","S2","","html-keyboard-response","254","342600","0.0-1.0-346.0","0","0","38992","","null","","","null","38","","NaN","","","","","","","","","","","","","",""
"","response","","html-keyboard-response","255","343030","0.0-1.0-347.0-0.0","0","0","38992","","430","","","68","38","","","1","38","training","adjacent","CB","3","2","Q.jpg","P.jpg","1","0","0","",""
"","feedback","","html-keyboard-response","256","344032","0.0-1.0-348.0-0.0","0","0","38992","","null","","","null","38","","","","","","","","","","","","","","","",""
"","time_out","","html-keyboard-response","257","346033","0.0-1.0-350.0-0.0","0","0","38992","","null","","","null","38","","","","","","","","","","","","","","","",""
"","ITI","","html-keyboard-response","258","347035","0.0-1.0-351.0","0","0","38992","","null","","","null","38","","","","","","","","","","","","","","","NaN",""
"","S1","","html-keyboard-response","259","347287","0.0-1.0-353.0","0","0","38992","","null","","","null","39","","","","","","","","","","","","","","","",""
"","ISI","","html-keyboard-response","260","348289","0.0-1.0-354.0","0","0","38992","","null","","","null","39","NaN","","","","","","","","","","","","","","",""
"","S2","","html-keyboard-response","261","348541","0.0-1.0-355.0","0","0","38992","","null","","","null","39","","NaN","","","","","","","","","","","","","",""
"","response","","html-keyboard-response","262","348885","0.0-1.0-356.0-0.0","0","0","38992","","344","","","75","39","","","1","39","training","adjacent","EF","5","6","M.jpg","N.jpg","0","1","0","",""
"","feedback","","html-keyboard-response","263","349888","0.0-1.0-357.0-0.0","0","0","38992","","null","","","null","39","","","","","","","","","","","","","","","",""
"","time_out","","html-keyboard-response","264","351890","0.0-1.0-359.0-0.0","0","0","38992","","null","","","null","39","","","","","","","","","","","","","","","",""
"","ITI","","html-keyboard-response","265","352892","0.0-1.0-360.0","0","0","38992","","null","","","null","39","","","","","","","","","","","","","","","NaN",""
"","S1","","html-keyboard-response","266","353143","0.0-1.0-362.0","0","0","38992","","null","","","null","40","","","","","","","","","","","","","","","",""
"","ISI","","html-keyboard-response","267","354145","0.0-1.0-363.0","0","0","38992","","null","","","null","40","NaN","","","","","","","","","","","","","","",""
"","S2","","html-keyboard-response","268","354396","0.0-1.0-364.0","0","0","38992","","null","","","null","40","","NaN","","","","","","","","","","","","","",""
"","response","","html-keyboard-response","269","354755","0.0-1.0-365.0-0.0","0","0","38992","","358","","","68","40","","","1","40","training","adjacent","EF","5","6","M.jpg","N.jpg","1","1","1","",""
"","feedback","","html-keyboard-response","270","355757","0.0-1.0-366.0-0.0","0","0","38992","","null","","","null","40","","","","","","","","","","","","","","","",""
"","ITI","","html-keyboard-response","271","356759","0.0-1.0-369.0","0","0","38992","","null","","","null","40","","","","","","","","","","","","","","","NaN",""
"","S1","","html-keyboard-response","272","357011","0.0-1.0-371.0","0","0","38992","","null","","","null","41","","","","","","","","","","","","","","","",""
"","ISI","","html-keyboard-response","273","358012","0.0-1.0-372.0","0","0","38992","","null","","","null","41","NaN","","","","","","","","","","","","","","",""
"","S2","","html-keyboard-response","274","358264","0.0-1.0-373.0","0","0","38992","","null","","","null","41","","NaN","","","","","","","","","","","","","",""
"","response","","html-keyboard-response","275","358439","0.0-1.0-374.0-0.0","0","0","38992","","174","","","75","41","","","1","41","training","adjacent","GF","7","6","R.jpg","N.jpg","0","0","1","",""
"","feedback","","html-keyboard-response","276","359440","0.0-1.0-375.0-0.0","0","0","38992","","null","","","null","41","","","","","","","","","","","","","","","",""
"","ITI","","html-keyboard-response","277","360441","0.0-1.0-378.0","0","0","38992","","null","","","null","41","","","","","","","","","","","","","","","NaN",""
"","S1","","html-keyboard-response","278","360693","0.0-1.0-380.0","0","0","38992","","null","","","null","42","","","","","","","","","","","","","","","",""
"","ISI","","html-keyboard-response","279","361696","0.0-1.0-381.0","0","0","38992","","null","","","null","42","NaN","","","","","","","","","","","","","","",""
"","S2","","html-keyboard-response","280","361948","0.0-1.0-382.0","0","0","38992","","null","","","null","42","","NaN","","","","","","","","","","","","","",""
"","response","","html-keyboard-response","281","362335","0.0-1.0-383.0-0.0","0","0","38992","","386","","","75","42","","","1","42","training","adjacent","FE","6","5","N.jpg","M.jpg","0","0","1","",""
"","feedback","","html-keyboard-response","282","363338","0.0-1.0-384.0-0.0","0","0","38992","","null","","","null","42","","","","","","","","","","","","","","","",""
"","ITI","","html-keyboard-response","283","364340","0.0-1.0-387.0","0","0","38992","","null","","","null","42","","","","","","","","","","","","","","","NaN",""
"","S1","","html-keyboard-response","284","364592","0.0-1.0-389.0","0","0","38992","","null","","","null","43","","","","","","","","","","","","","","","",""
"","ISI","","html-keyboard-response","285","365594","0.0-1.0-390.0","0","0","38992","","null","","","null","43","NaN","","","","","","","","","","","","","","",""
"","S2","","html-keyboard-response","286","365848","0.0-1.0-391.0","0","0","38992","","null","","","null","43","","NaN","","","","","","","","","","","","","",""
"","response","","html-keyboard-response","287","366337","0.0-1.0-392.0-0.0","0","0","38992","","488","","","68","43","","","1","43","training","adjacent","DE","4","5","L.jpg","M.jpg","1","1","1","",""
"","feedback","","html-keyboard-response","288","367340","0.0-1.0-393.0-0.0","0","0","38992","","null","","","null","43","","","","","","","","","","","","","","","",""
"","ITI","","html-keyboard-response","289","368342","0.0-1.0-396.0","0","0","38992","","null","","","null","43","","","","","","","","","","","","","","","NaN",""
"","S1","","html-keyboard-response","290","368595","0.0-1.0-398.0","0","0","38992","","null","","","null","44","","","","","","","","","","","","","","","",""
"","ISI","","html-keyboard-response","291","369596","0.0-1.0-399.0","0","0","38992","","null","","","null","44","NaN","","","","","","","","","","","","","","",""
"","S2","","html-keyboard-response","292","369848","0.0-1.0-400.0","0","0","38992","","null","","","null","44","","NaN","","","","","","","","","","","","","",""
"","response","","html-keyboard-response","293","370079","0.0-1.0-401.0-0.0","0","0","38992","","229","","","68","44","","","1","44","training","adjacent","ED","5","4","M.jpg","L.jpg","1","0","0","",""
"","feedback","","html-keyboard-response","294","371082","0.0-1.0-402.0-0.0","0","0","38992","","null","","","null","44","","","","","","","","","","","","","","","",""
"","time_out","","html-keyboard-response","295","373084","0.0-1.0-404.0-0.0","0","0","38992","","null","","","null","44","","","","","","","","","","","","","","","",""
"","ITI","","html-keyboard-response","296","374086","0.0-1.0-405.0","0","0","38992","","null","","","null","44","","","","","","","","","","","","","","","NaN",""
"","S1","","html-keyboard-response","297","374339","0.0-1.0-407.0","0","0","38992","","null","","","null","45","","","","","","","","","","","","","","","",""
"","ISI","","html-keyboard-response","298","375341","0.0-1.0-408.0","0","0","38992","","null","","","null","45","NaN","","","","","","","","","","","","","","",""
"","S2","","html-keyboard-response","299","375592","0.0-1.0-409.0","0","0","38992","","null","","","null","45","","NaN","","","","","","","","","","","","","",""
"","response","","html-keyboard-response","300","375920","0.0-1.0-410.0-0.0","0","0","38992","","327","","","68","45","","","1","45","training","adjacent","CD","3","4","Q.jpg","L.jpg","1","1","1","",""
"","feedback","","html-keyboard-response","301","376922","0.0-1.0-411.0-0.0","0","0","38992","","null","","","null","45","","","","","","","","","","","","","","","",""
"","ITI","","html-keyboard-response","302","377923","0.0-1.0-414.0","0","0","38992","","null","","","null","45","","","","","","","","","","","","","","","NaN",""
"","S1","","html-keyboard-response","303","378175","0.0-1.0-416.0","0","0","38992","","null","","","null","46","","","","","","","","","","","","","","","",""
"","ISI","","html-keyboard-response","304","379178","0.0-1.0-417.0","0","0","38992","","null","","","null","46","NaN","","","","","","","","","","","","","","",""
"","S2","","html-keyboard-response","305","379430","0.0-1.0-418.0","0","0","38992","","null","","","null","46","","NaN","","","","","","","","","","","","","",""
"","response","","html-keyboard-response","306","379976","0.0-1.0-419.0-0.0","0","0","38992","","544","","","68","46","","","1","46","training","adjacent","FG","6","7","N.jpg","R.jpg","1","1","1","",""
"","feedback","","html-keyboard-response","307","380979","0.0-1.0-420.0-0.0","0","0","38992","","null","","","null","46","","","","","","","","","","","","","","","",""
"","ITI","","html-keyboard-response","308","381981","0.0-1.0-423.0","0","0","38992","","null","","","null","46","","","","","","","","","","","","","","","NaN",""
"","S1","","html-keyboard-response","309","382232","0.0-1.0-425.0","0","0","38992","","null","","","null","47","","","","","","","","","","","","","","","",""
"","ISI","","html-keyboard-response","310","383235","0.0-1.0-426.0","0","0","38992","","null","","","null","47","NaN","","","","","","","","","","","","","","",""
"","S2","","html-keyboard-response","311","383488","0.0-1.0-427.0","0","0","38992","","null","","","null","47","","NaN","","","","","","","","","","","","","",""
"","response","","html-keyboard-response","312","384032","0.0-1.0-428.0-0.0","0","0","38992","","543","","","75","47","","","1","47","training","adjacent","AB","1","2","O.jpg","P.jpg","0","1","0","",""
"","feedback","","html-keyboard-response","313","385034","0.0-1.0-429.0-0.0","0","0","38992","","null","","","null","47","","","","","","","","","","","","","","","",""
"","time_out","","html-keyboard-response","314","387036","0.0-1.0-431.0-0.0","0","0","38992","","null","","","null","47","","","","","","","","","","","","","","","",""
"","ITI","","html-keyboard-response","315","388039","0.0-1.0-432.0","0","0","38992","","null","","","null","47","","","","","","","","","","","","","","","NaN",""
"","block_over","","html-keyboard-response","316","394148","0.0-1.0-433.0-0.0","0","0","38992","","6109","","","32","47","","","","","","","","","","","","","","","",""
"","S1","","html-keyboard-response","317","394401","0.0-1.0-434.0","0","0","38992","","null","","","null","48","","","","","","","","","","","","","","","",""
"","ISI","","html-keyboard-response","318","395402","0.0-1.0-435.0","0","0","38992","","null","","","null","48","NaN","","","","","","","","","","","","","","",""
"","S2","","html-keyboard-response","319","395654","0.0-1.0-436.0","0","0","38992","","null","","","null","48","","NaN","","","","","","","","","","","","","",""
"","response","","html-keyboard-response","320","395987","0.0-1.0-437.0-0.0","0","0","38992","","332","","","75","48","","","2","48","training","adjacent","GF","7","6","R.jpg","N.jpg","0","0","1","",""
"","feedback","","html-keyboard-response","321","396990","0.0-1.0-438.0-0.0","0","0","38992","","null","","","null","48","","","","","","","","","","","","","","","",""
"","ITI","","html-keyboard-response","322","397992","0.0-1.0-441.0","0","0","38992","","null","","","null","48","","","","","","","","","","","","","","","NaN",""
"","S1","","html-keyboard-response","323","398243","0.0-1.0-443.0","0","0","38992","","null","","","null","49","","","","","","","","","","","","","","","",""
"","ISI","","html-keyboard-response","324","399244","0.0-1.0-444.0","0","0","38992","","null","","","null","49","NaN","","","","","","","","","","","","","","",""
"","S2","","html-keyboard-response","325","399496","0.0-1.0-445.0","0","0","38992","","null","","","null","49","","NaN","","","","","","","","","","","","","",""
"","response","","html-keyboard-response","326","400131","0.0-1.0-446.0-0.0","0","0","38992","","635","","","68","49","","","2","49","training","adjacent","DE","4","5","L.jpg","M.jpg","1","1","1","",""
"","feedback","","html-keyboard-response","327","401133","0.0-1.0-447.0-0.0","0","0","38992","","null","","","null","49","","","","","","","","","","","","","","","",""
"","ITI","","html-keyboard-response","328","402134","0.0-1.0-450.0","0","0","38992","","null","","","null","49","","","","","","","","","","","","","","","NaN",""
"","S1","","html-keyboard-response","329","402387","0.0-1.0-452.0","0","0","38992","","null","","","null","50","","","","","","","","","","","","","","","",""
"","ISI","","html-keyboard-response","330","403390","0.0-1.0-453.0","0","0","38992","","null","","","null","50","NaN","","","","","","","","","","","","","","",""
"","S2","","html-keyboard-response","331","403642","0.0-1.0-454.0","0","0","38992","","null","","","null","50","","NaN","","","","","","","","","","","","","",""
"","response","","html-keyboard-response","332","404263","0.0-1.0-455.0-0.0","0","0","38992","","620","","","75","50","","","2","50","training","adjacent","CB","3","2","Q.jpg","P.jpg","0","0","1","",""
"","feedback","","html-keyboard-response","333","405265","0.0-1.0-456.0-0.0","0","0","38992","","null","","","null","50","","","","","","","","","","","","","","","",""
"","ITI","","html-keyboard-response","334","406266","0.0-1.0-459.0","0","0","38992","","null","","","null","50","","","","","","","","","","","","","","","NaN",""
"","S1","","html-keyboard-response","335","406518","0.0-1.0-461.0","0","0","38992","","null","","","null","51","","","","","","","","","","","","","","","",""
"","ISI","","html-keyboard-response","336","407521","0.0-1.0-462.0","0","0","38992","","null","","","null","51","NaN","","","","","","","","","","","","","","",""
"","S2","","html-keyboard-response","337","407773","0.0-1.0-463.0","0","0","38992","","null","","","null","51","","NaN","","","","","","","","","","","","","",""
"","response","","html-keyboard-response","338","408119","0.0-1.0-464.0-0.0","0","0","38992","","345","","","68","51","","","2","51","training","adjacent","FG","6","7","N.jpg","R.jpg","1","1","1","",""
"","feedback","","html-keyboard-response","339","409122","0.0-1.0-465.0-0.0","0","0","38992","","null","","","null","51","","","","","","","","","","","","","","","",""
"","ITI","","html-keyboard-response","340","410124","0.0-1.0-468.0","0","0","38992","","null","","","null","51","","","","","","","","","","","","","","","NaN",""
"","S1","","html-keyboard-response","341","410376","0.0-1.0-470.0","0","0","38992","","null","","","null","52","","","","","","","","","","","","","","","",""
"","ISI","","html-keyboard-response","342","411377","0.0-1.0-471.0","0","0","38992","","null","","","null","52","NaN","","","","","","","","","","","","","","",""
"","S2","","html-keyboard-response","343","411630","0.0-1.0-472.0","0","0","38992","","null","","","null","52","","NaN","","","","","","","","","","","","","",""
"","response","","html-keyboard-response","344","412015","0.0-1.0-473.0-0.0","0","0","38992","","384","","","75","52","","","2","52","training","adjacent","BC","2","3","P.jpg","Q.jpg","0","1","0","",""
"","feedback","","html-keyboard-response","345","413016","0.0-1.0-474.0-0.0","0","0","38992","","null","","","null","52","","","","","","","","","","","","","","","",""
"","time_out","","html-keyboard-response","346","415018","0.0-1.0-476.0-0.0","0","0","38992","","null","","","null","52","","","","","","","","","","","","","","","",""
"","ITI","","html-keyboard-response","347","416020","0.0-1.0-477.0","0","0","38992","","null","","","null","52","","","","","","","","","","","","","","","NaN",""
"","S1","","html-keyboard-response","348","416273","0.0-1.0-479.0","0","0","38992","","null","","","null","53","","","","","","","","","","","","","","","",""
"","ISI","","html-keyboard-response","349","417274","0.0-1.0-480.0","0","0","38992","","null","","","null","53","NaN","","","","","","","","","","","","","","",""
"","S2","","html-keyboard-response","350","417526","0.0-1.0-481.0","0","0","38992","","null","","","null","53","","NaN","","","","","","","","","","","","","",""
"","response","","html-keyboard-response","351","417972","0.0-1.0-482.0-0.0","0","0","38992","","445","","","68","53","","","2","53","training","adjacent","CD","3","4","Q.jpg","L.jpg","1","1","1","",""
"","feedback","","html-keyboard-response","352","418973","0.0-1.0-483.0-0.0","0","0","38992","","null","","","null","53","","","","","","","","","","","","","","","",""
"","ITI","","html-keyboard-response","353","419975","0.0-1.0-486.0","0","0","38992","","null","","","null","53","","","","","","","","","","","","","","","NaN",""
"","S1","","html-keyboard-response","354","420227","0.0-1.0-488.0","0","0","38992","","null","","","null","54","","","","","","","","","","","","","","","",""
"","ISI","","html-keyboard-response","355","421229","0.0-1.0-489.0","0","0","38992","","null","","","null","54","NaN","","","","","","","","","","","","","","",""
"","S2","","html-keyboard-response","356","421482","0.0-1.0-490.0","0","0","38992","","null","","","null","54","","NaN","","","","","","","","","","","","","",""
"","response","","html-keyboard-response","357","421697","0.0-1.0-491.0-0.0","0","0","38992","","215","","","75","54","","","2","54","training","adjacent","EF","5","6","M.jpg","N.jpg","0","1","0","",""
"","feedback","","html-keyboard-response","358","422699","0.0-1.0-492.0-0.0","0","0","38992","","null","","","null","54","","","","","","","","","","","","","","","",""
"","time_out","","html-keyboard-response","359","424701","0.0-1.0-494.0-0.0","0","0","38992","","null","","","null","54","","","","","","","","","","","","","","","",""
"","ITI","","html-keyboard-response","360","425702","0.0-1.0-495.0","0","0","38992","","null","","","null","54","","","","","","","","","","","","","","","NaN",""
"","S1","","html-keyboard-response","361","425954","0.0-1.0-497.0","0","0","38992","","null","","","null","55","","","","","","","","","","","","","","","",""
"","ISI","","html-keyboard-response","362","426955","0.0-1.0-498.0","0","0","38992","","null","","","null","55","NaN","","","","","","","","","","","","","","",""
"","S2","","html-keyboard-response","363","427207","0.0-1.0-499.0","0","0","38992","","null","","","null","55","","NaN","","","","","","","","","","","","","",""
"","response","","html-keyboard-response","364","427684","0.0-1.0-500.0-0.0","0","0","38992","","476","","","75","55","","","2","55","training","adjacent","DC","4","3","L.jpg","Q.jpg","0","0","1","",""
"","feedback","","html-keyboard-response","365","428686","0.0-1.0-501.0-0.0","0","0","38992","","null","","","null","55","","","","","","","","","","","","","","","",""
"","ITI","","html-keyboard-response","366","429688","0.0-1.0-504.0","0","0","38992","","null","","","null","55","","","","","","","","","","","","","","","NaN",""
"","S1","","html-keyboard-response","367","429940","0.0-1.0-506.0","0","0","38992","","null","","","null","56","","","","","","","","","","","","","","","",""
"","ISI","","html-keyboard-response","368","430942","0.0-1.0-507.0","0","0","38992","","null","","","null","56","NaN","","","","","","","","","","","","","","",""
"","S2","","html-keyboard-response","369","431193","0.0-1.0-508.0","0","0","38992","","null","","","null","56","","NaN","","","","","","","","","","","","","",""
"","response","","html-keyboard-response","370","431654","0.0-1.0-509.0-0.0","0","0","38992","","459","","","75","56","","","2","56","training","adjacent","AB","1","2","O.jpg","P.jpg","0","1","0","",""
"","feedback","","html-keyboard-response","371","432656","0.0-1.0-510.0-0.0","0","0","38992","","null","","","null","56","","","","","","","","","","","","","","","",""
"","time_out","","html-keyboard-response","372","434659","0.0-1.0-512.0-0.0","0","0","38992","","null","","","null","56","","","","","","","","","","","","","","","",""
"","ITI","","html-keyboard-response","373","435662","0.0-1.0-513.0","0","0","38992","","null","","","null","56","","","","","","","","","","","","","","","NaN",""
"","S1","","html-keyboard-response","374","435914","0.0-1.0-515.0","0","0","38992","","null","","","null","57","","","","","","","","","","","","","","","",""
"","ISI","","html-keyboard-response","375","436915","0.0-1.0-516.0","0","0","38992","","null","","","null","57","NaN","","","","","","","","","","","","","","",""
"","S2","","html-keyboard-response","376","437168","0.0-1.0-517.0","0","0","38992","","null","","","null","57","","NaN","","","","","","","","","","","","","",""
"","response","","html-keyboard-response","377","437654","0.0-1.0-518.0-0.0","0","0","38992","","486","","","68","57","","","2","57","training","adjacent","AB","1","2","O.jpg","P.jpg","1","1","1","",""
"","feedback","","html-keyboard-response","378","438657","0.0-1.0-519.0-0.0","0","0","38992","","null","","","null","57","","","","","","","","","","","","","","","",""
"","ITI","","html-keyboard-response","379","439659","0.0-1.0-522.0","0","0","38992","","null","","","null","57","","","","","","","","","","","","","","","NaN",""
"","S1","","html-keyboard-response","380","439912","0.0-1.0-524.0","0","0","38992","","null","","","null","58","","","","","","","","","","","","","","","",""
"","ISI","","html-keyboard-response","381","440913","0.0-1.0-525.0","0","0","38992","","null","","","null","58","NaN","","","","","","","","","","","","","","",""
"","S2","","html-keyboard-response","382","441165","0.0-1.0-526.0","0","0","38992","","null","","","null","58","","NaN","","","","","","","","","","","","","",""
"","response","","html-keyboard-response","383","441652","0.0-1.0-527.0-0.0","0","0","38992","","486","","","75","58","","","2","58","training","adjacent","DC","4","3","L.jpg","Q.jpg","0","0","1","",""
"","feedback","","html-keyboard-response","384","442653","0.0-1.0-528.0-0.0","0","0","38992","","null","","","null","58","","","","","","","","","","","","","","","",""
"","ITI","","html-keyboard-response","385","443656","0.0-1.0-531.0","0","0","38992","","null","","","null","58","","","","","","","","","","","","","","","NaN",""
"","S1","","html-keyboard-response","386","443908","0.0-1.0-533.0","0","0","38992","","null","","","null","59","","","","","","","","","","","","","","","",""
"","ISI","","html-keyboard-response","387","444910","0.0-1.0-534.0","0","0","38992","","null","","","null","59","NaN","","","","","","","","","","","","","","",""
"","S2","","html-keyboard-response","388","445162","0.0-1.0-535.0","0","0","38992","","null","","","null","59","","NaN","","","","","","","","","","","","","",""
"","response","","html-keyboard-response","389","445480","0.0-1.0-536.0-0.0","0","0","38992","","317","","","75","59","","","2","59","training","adjacent","GF","7","6","R.jpg","N.jpg","0","0","1","",""
"","feedback","","html-keyboard-response","390","446482","0.0-1.0-537.0-0.0","0","0","38992","","null","","","null","59","","","","","","","","","","","","","","","",""
"","ITI","","html-keyboard-response","391","447483","0.0-1.0-540.0","0","0","38992","","null","","","null","59","","","","","","","","","","","","","","","NaN",""
"","S1","","html-keyboard-response","392","447735","0.0-1.0-542.0","0","0","38992","","null","","","null","60","","","","","","","","","","","","","","","",""
"","ISI","","html-keyboard-response","393","448736","0.0-1.0-543.0","0","0","38992","","null","","","null","60","NaN","","","","","","","","","","","","","","",""
"","S2","","html-keyboard-response","394","448989","0.0-1.0-544.0","0","0","38992","","null","","","null","60","","NaN","","","","","","","","","","","","","",""
"","response","","html-keyboard-response","395","449480","0.0-1.0-545.0-0.0","0","0","38992","","490","","","68","60","","","2","60","training","adjacent","FG","6","7","N.jpg","R.jpg","1","1","1","",""
"","feedback","","html-keyboard-response","396","450482","0.0-1.0-546.0-0.0","0","0","38992","","null","","","null","60","","","","","","","","","","","","","","","",""
"","ITI","","html-keyboard-response","397","451484","0.0-1.0-549.0","0","0","38992","","null","","","null","60","","","","","","","","","","","","","","","NaN",""
"","S1","","html-keyboard-response","398","451737","0.0-1.0-551.0","0","0","38992","","null","","","null","61","","","","","","","","","","","","","","","",""
"","ISI","","html-keyboard-response","399","452739","0.0-1.0-552.0","0","0","38992","","null","","","null","61","NaN","","","","","","","","","","","","","","",""
"","S2","","html-keyboard-response","400","452992","0.0-1.0-553.0","0","0","38992","","null","","","null","61","","NaN","","","","","","","","","","","","","",""
"","response","","html-keyboard-response","401","453461","0.0-1.0-554.0-0.0","0","0","38992","","469","","","68","61","","","2","61","training","adjacent","ED","5","4","M.jpg","L.jpg","1","0","0","",""
"","feedback","","html-keyboard-response","402","454463","0.0-1.0-555.0-0.0","0","0","38992","","null","","","null","61","","","","","","","","","","","","","","","",""
"","time_out","","html-keyboard-response","403","456465","0.0-1.0-557.0-0.0","0","0","38992","","null","","","null","61","","","","","","","","","","","","","","","",""
"","ITI","","html-keyboard-response","404","457467","0.0-1.0-558.0","0","0","38992","","null","","","null","61","","","","","","","","","","","","","","","NaN",""
"","S1","","html-keyboard-response","405","457718","0.0-1.0-560.0","0","0","38992","","null","","","null","62","","","","","","","","","","","","","","","",""
"","ISI","","html-keyboard-response","406","458720","0.0-1.0-561.0","0","0","38992","","null","","","null","62","NaN","","","","","","","","","","","","","","",""
"","S2","","html-keyboard-response","407","458972","0.0-1.0-562.0","0","0","38992","","null","","","null","62","","NaN","","","","","","","","","","","","","",""
"","response","","html-keyboard-response","408","459358","0.0-1.0-563.0-0.0","0","0","38992","","385","","","68","62","","","2","62","training","adjacent","FE","6","5","N.jpg","M.jpg","1","0","0","",""
"","feedback","","html-keyboard-response","409","460360","0.0-1.0-564.0-0.0","0","0","38992","","null","","","null","62","","","","","","","","","","","","","","","",""
"","time_out","","html-keyboard-response","410","462361","0.0-1.0-566.0-0.0","0","0","38992","","null","","","null","62","","","","","","","","","","","","","","","",""
"","ITI","","html-keyboard-response","411","463362","0.0-1.0-567.0","0","0","38992","","null","","","null","62","","","","","","","","","","","","","","","NaN",""
"","S1","","html-keyboard-response","412","463614","0.0-1.0-569.0","0","0","38992","","null","","","null","63","","","","","","","","","","","","","","","",""
"","ISI","","html-keyboard-response","413","464616","0.0-1.0-570.0","0","0","38992","","null","","","null","63","NaN","","","","","","","","","","","","","","",""
"","S2","","html-keyboard-response","414","464869","0.0-1.0-571.0","0","0","38992","","null","","","null","63","","NaN","","","","","","","","","","","","","",""
"","response","","html-keyboard-response","415","465229","0.0-1.0-572.0-0.0","0","0","38992","","359","","","75","63","","","2","63","training","adjacent","DC","4","3","L.jpg","Q.jpg","0","0","1","",""
"","feedback","","html-keyboard-response","416","466232","0.0-1.0-573.0-0.0","0","0","38992","","null","","","null","63","","","","","","","","","","","","","","","",""
"","ITI","","html-keyboard-response","417","467233","0.0-1.0-576.0","0","0","38992","","null","","","null","63","","","","","","","","","","","","","","","NaN",""
"","S1","","html-keyboard-response","418","467486","0.0-1.0-578.0","0","0","38992","","null","","","null","64","","","","","","","","","","","","","","","",""
"","ISI","","html-keyboard-response","419","468489","0.0-1.0-579.0","0","0","38992","","null","","","null","64","NaN","","","","","","","","","","","","","","",""
"","S2","","html-keyboard-response","420","468741","0.0-1.0-580.0","0","0","38992","","null","","","null","64","","NaN","","","","","","","","","","","","","",""
"","response","","html-keyboard-response","421","469226","0.0-1.0-581.0-0.0","0","0","38992","","484","","","75","64","","","2","64","training","adjacent","DE","4","5","L.jpg","M.jpg","0","1","0","",""
"","feedback","","html-keyboard-response","422","470228","0.0-1.0-582.0-0.0","0","0","38992","","null","","","null","64","","","","","","","","","","","","","","","",""
"","time_out","","html-keyboard-response","423","472231","0.0-1.0-584.0-0.0","0","0","38992","","null","","","null","64","","","","","","","","","","","","","","","",""
"","ITI","","html-keyboard-response","424","473232","0.0-1.0-585.0","0","0","38992","","null","","","null","64","","","","","","","","","","","","","","","NaN",""
"","S1","","html-keyboard-response","425","473483","0.0-1.0-587.0","0","0","38992","","null","","","null","65","","","","","","","","","","","","","","","",""
"","ISI","","html-keyboard-response","426","474484","0.0-1.0-588.0","0","0","38992","","null","","","null","65","NaN","","","","","","","","","","","","","","",""
"","S2","","html-keyboard-response","427","474736","0.0-1.0-589.0","0","0","38992","","null","","","null","65","","NaN","","","","","","","","","","","","","",""
"","response","","html-keyboard-response","428","475125","0.0-1.0-590.0-0.0","0","0","38992","","388","","","75","65","","","2","65","training","adjacent","GF","7","6","R.jpg","N.jpg","0","0","1","",""
"","feedback","","html-keyboard-response","429","476127","0.0-1.0-591.0-0.0","0","0","38992","","null","","","null","65","","","","","","","","","","","","","","","",""
"","ITI","","html-keyboard-response","430","477129","0.0-1.0-594.0","0","0","38992","","null","","","null","65","","","","","","","","","","","","","","","NaN",""
"","S1","","html-keyboard-response","431","477382","0.0-1.0-596.0","0","0","38992","","null","","","null","66","","","","","","","","","","","","","","","",""
"","ISI","","html-keyboard-response","432","478383","0.0-1.0-597.0","0","0","38992","","null","","","null","66","NaN","","","","","","","","","","","","","","",""
"","S2","","html-keyboard-response","433","478635","0.0-1.0-598.0","0","0","38992","","null","","","null","66","","NaN","","","","","","","","","","","","","",""
"","response","","html-keyboard-response","434","479283","0.0-1.0-599.0-0.0","0","0","38992","","648","","","68","66","","","2","66","training","adjacent","CD","3","4","Q.jpg","L.jpg","1","1","1","",""
"","feedback","","html-keyboard-response","435","480286","0.0-1.0-600.0-0.0","0","0","38992","","null","","","null","66","","","","","","","","","","","","","","","",""
"","ITI","","html-keyboard-response","436","481288","0.0-1.0-603.0","0","0","38992","","null","","","null","66","","","","","","","","","","","","","","","NaN",""
"","S1","","html-keyboard-response","437","481541","0.0-1.0-605.0","0","0","38992","","null","","","null","67","","","","","","","","","","","","","","","",""
"","ISI","","html-keyboard-response","438","482542","0.0-1.0-606.0","0","0","38992","","null","","","null","67","NaN","","","","","","","","","","","","","","",""
"","S2","","html-keyboard-response","439","482793","0.0-1.0-607.0","0","0","38992","","null","","","null","67","","NaN","","","","","","","","","","","","","",""
"","response","","html-keyboard-response","440","483426","0.0-1.0-608.0-0.0","0","0","38992","","632","","","75","67","","","2","67","training","adjacent","AB","1","2","O.jpg","P.jpg","0","1","0","",""
"","feedback","","html-keyboard-response","441","484429","0.0-1.0-609.0-0.0","0","0","38992","","null","","","null","67","","","","","","","","","","","","","","","",""
"","time_out","","html-keyboard-response","442","486432","0.0-1.0-611.0-0.0","0","0","38992","","null","","","null","67","","","","","","","","","","","","","","","",""
"","ITI","","html-keyboard-response","443","487433","0.0-1.0-612.0","0","0","38992","","null","","","null","67","","","","","","","","","","","","","","","NaN",""
"","S1","","html-keyboard-response","444","487684","0.0-1.0-614.0","0","0","38992","","null","","","null","68","","","","","","","","","","","","","","","",""
"","ISI","","html-keyboard-response","445","488685","0.0-1.0-615.0","0","0","38992","","null","","","null","68","NaN","","","","","","","","","","","","","","",""
"","S2","","html-keyboard-response","446","488938","0.0-1.0-616.0","0","0","38992","","null","","","null","68","","NaN","","","","","","","","","","","","","",""
"","response","","html-keyboard-response","447","489340","0.0-1.0-617.0-0.0","0","0","38992","","401","","","75","68","","","2","68","training","adjacent","FE","6","5","N.jpg","M.jpg","0","0","1","",""
"","feedback","","html-keyboard-response","448","490341","0.0-1.0-618.0-0.0","0","0","38992","","null","","","null","68","","","","","","","","","","","","","","","",""
"","ITI","","html-keyboard-response","449","491344","0.0-1.0-621.0","0","0","38992","","null","","","null","68","","","","","","","","","","","","","","","NaN",""
"","S1","","html-keyboard-response","450","491595","0.0-1.0-623.0","0","0","38992","","null","","","null","69","","","","","","","","","","","","","","","",""
"","ISI","","html-keyboard-response","451","492597","0.0-1.0-624.0","0","0","38992","","null","","","null","69","NaN","","","","","","","","","","","","","","",""
"","S2","","html-keyboard-response","452","492850","0.0-1.0-625.0","0","0","38992","","null","","","null","69","","NaN","","","","","","","","","","","","","",""
"","response","","html-keyboard-response","453","493554","0.0-1.0-626.0-0.0","0","0","38992","","703","","","68","69","","","2","69","training","adjacent","AB","1","2","O.jpg","P.jpg","1","1","1","",""
"","feedback","","html-keyboard-response","454","494556","0.0-1.0-627.0-0.0","0","0","38992","","null","","","null","69","","","","","","","","","","","","","","","",""
"","ITI","","html-keyboard-response","455","495558","0.0-1.0-630.0","0","0","38992","","null","","","null","69","","","","","","","","","","","","","","","NaN",""
"","S1","","html-keyboard-response","456","495811","0.0-1.0-632.0","0","0","38992","","null","","","null","70","","","","","","","","","","","","","","","",""
"","ISI","","html-keyboard-response","457","496812","0.0-1.0-633.0","0","0","38992","","null","","","null","70","NaN","","","","","","","","","","","","","","",""
"","S2","","html-keyboard-response","458","497064","0.0-1.0-634.0","0","0","38992","","null","","","null","70","","NaN","","","","","","","","","","","","","",""
"","response","","html-keyboard-response","459","497568","0.0-1.0-635.0-0.0","0","0","38992","","503","","","68","70","","","2","70","training","adjacent","CB","3","2","Q.jpg","P.jpg","1","0","0","",""
"","feedback","","html-keyboard-response","460","498571","0.0-1.0-636.0-0.0","0","0","38992","","null","","","null","70","","","","","","","","","","","","","","","",""
"","time_out","","html-keyboard-response","461","500573","0.0-1.0-638.0-0.0","0","0","38992","","null","","","null","70","","","","","","","","","","","","","","","",""
"","ITI","","html-keyboard-response","462","501574","0.0-1.0-639.0","0","0","38992","","null","","","null","70","","","","","","","","","","","","","","","NaN",""
"","S1","","html-keyboard-response","463","501825","0.0-1.0-641.0","0","0","38992","","null","","","null","71","","","","","","","","","","","","","","","",""
"","ISI","","html-keyboard-response","464","502828","0.0-1.0-642.0","0","0","38992","","null","","","null","71","NaN","","","","","","","","","","","","","","",""
"","S2","","html-keyboard-response","465","503080","0.0-1.0-643.0","0","0","38992","","null","","","null","71","","NaN","","","","","","","","","","","","","",""
"","response","","html-keyboard-response","466","503410","0.0-1.0-644.0-0.0","0","0","38992","","328","","","75","71","","","2","71","training","adjacent","BC","2","3","P.jpg","Q.jpg","0","1","0","",""
"","feedback","","html-keyboard-response","467","504412","0.0-1.0-645.0-0.0","0","0","38992","","null","","","null","71","","","","","","","","","","","","","","","",""
"","time_out","","html-keyboard-response","468","506413","0.0-1.0-647.0-0.0","0","0","38992","","null","","","null","71","","","","","","","","","","","","","","","",""
"","ITI","","html-keyboard-response","469","507415","0.0-1.0-648.0","0","0","38992","","null","","","null","71","","","","","","","","","","","","","","","NaN",""
"","S1","","html-keyboard-response","470","507667","0.0-1.0-650.0","0","0","38992","","null","","","null","72","","","","","","","","","","","","","","","",""
"","ISI","","html-keyboard-response","471","508670","0.0-1.0-651.0","0","0","38992","","null","","","null","72","NaN","","","","","","","","","","","","","","",""
"","S2","","html-keyboard-response","472","508922","0.0-1.0-652.0","0","0","38992","","null","","","null","72","","NaN","","","","","","","","","","","","","",""
"","response","","html-keyboard-response","473","509522","0.0-1.0-653.0-0.0","0","0","38992","","599","","","75","72","","","2","72","training","adjacent","FE","6","5","N.jpg","M.jpg","0","0","1","",""
"","feedback","","html-keyboard-response","474","510524","0.0-1.0-654.0-0.0","0","0","38992","","null","","","null","72","","","","","","","","","","","","","","","",""
"","ITI","","html-keyboard-response","475","511526","0.0-1.0-657.0","0","0","38992","","null","","","null","72","","","","","","","","","","","","","","","NaN",""
"","S1","","html-keyboard-response","476","511779","0.0-1.0-659.0","0","0","38992","","null","","","null","73","","","","","","","","","","","","","","","",""
"","ISI","","html-keyboard-response","477","512781","0.0-1.0-660.0","0","0","38992","","null","","","null","73","NaN","","","","","","","","","","","","","","",""
"","S2","","html-keyboard-response","478","513033","0.0-1.0-661.0","0","0","38992","","null","","","null","73","","NaN","","","","","","","","","","","","","",""
"","response","","html-keyboard-response","479","513463","0.0-1.0-662.0-0.0","0","0","38992","","430","","","68","73","","","2","73","training","adjacent","CB","3","2","Q.jpg","P.jpg","1","0","0","",""
"","feedback","","html-keyboard-response","480","514465","0.0-1.0-663.0-0.0","0","0","38992","","null","","","null","73","","","","","","","","","","","","","","","",""
"","time_out","","html-keyboard-response","481","516467","0.0-1.0-665.0-0.0","0","0","38992","","null","","","null","73","","","","","","","","","","","","","","","",""
"","ITI","","html-keyboard-response","482","517470","0.0-1.0-666.0","0","0","38992","","null","","","null","73","","","","","","","","","","","","","","","NaN",""
"","S1","","html-keyboard-response","483","517722","0.0-1.0-668.0","0","0","38992","","null","","","null","74","","","","","","","","","","","","","","","",""
"","ISI","","html-keyboard-response","484","518724","0.0-1.0-669.0","0","0","38992","","null","","","null","74","NaN","","","","","","","","","","","","","","",""
"","S2","","html-keyboard-response","485","518976","0.0-1.0-670.0","0","0","38992","","null","","","null","74","","NaN","","","","","","","","","","","","","",""
"","response","","html-keyboard-response","486","519391","0.0-1.0-671.0-0.0","0","0","38992","","413","","","68","74","","","2","74","training","adjacent","ED","5","4","M.jpg","L.jpg","1","0","0","",""
"","feedback","","html-keyboard-response","487","520393","0.0-1.0-672.0-0.0","0","0","38992","","null","","","null","74","","","","","","","","","","","","","","","",""
"","time_out","","html-keyboard-response","488","522395","0.0-1.0-674.0-0.0","0","0","38992","","null","","","null","74","","","","","","","","","","","","","","","",""
"","ITI","","html-keyboard-response","489","523397","0.0-1.0-675.0","0","0","38992","","null","","","null","74","","","","","","","","","","","","","","","NaN",""
"","S1","","html-keyboard-response","490","523649","0.0-1.0-677.0","0","0","38992","","null","","","null","75","","","","","","","","","","","","","","","",""
"","ISI","","html-keyboard-response","491","524651","0.0-1.0-678.0","0","0","38992","","null","","","null","75","NaN","","","","","","","","","","","","","","",""
"","S2","","html-keyboard-response","492","524904","0.0-1.0-679.0","0","0","38992","","null","","","null","75","","NaN","","","","","","","","","","","","","",""
"","response","","html-keyboard-response","493","525317","0.0-1.0-680.0-0.0","0","0","38992","","412","","","68","75","","","2","75","training","adjacent","CD","3","4","Q.jpg","L.jpg","1","1","1","",""
"","feedback","","html-keyboard-response","494","526323","0.0-1.0-681.0-0.0","0","0","38992","","null","","","null","75","","","","","","","","","","","","","","","",""
"","ITI","","html-keyboard-response","495","527324","0.0-1.0-684.0","0","0","38992","","null","","","null","75","","","","","","","","","","","","","","","NaN",""
"","S1","","html-keyboard-response","496","527576","0.0-1.0-686.0","0","0","38992","","null","","","null","76","","","","","","","","","","","","","","","",""
"","ISI","","html-keyboard-response","497","528578","0.0-1.0-687.0","0","0","38992","","null","","","null","76","NaN","","","","","","","","","","","","","","",""
"","S2","","html-keyboard-response","498","528831","0.0-1.0-688.0","0","0","38992","","null","","","null","76","","NaN","","","","","","","","","","","","","",""
"","response","","html-keyboard-response","499","529603","0.0-1.0-689.0-0.0","0","0","38992","","771","","","75","76","","","2","76","training","adjacent","FG","6","7","N.jpg","R.jpg","0","1","0","",""
"","feedback","","html-keyboard-response","500","530605","0.0-1.0-690.0-0.0","0","0","38992","","null","","","null","76","","","","","","","","","","","","","","","",""
"","time_out","","html-keyboard-response","501","532607","0.0-1.0-692.0-0.0","0","0","38992","","null","","","null","76","","","","","","","","","","","","","","","",""
"","ITI","","html-keyboard-response","502","533610","0.0-1.0-693.0","0","0","38992","","null","","","null","76","","","","","","","","","","","","","","","NaN",""
"","S1","","html-keyboard-response","503","533862","0.0-1.0-695.0","0","0","38992","","null","","","null","77","","","","","","","","","","","","","","","",""
"","ISI","","html-keyboard-response","504","534863","0.0-1.0-696.0","0","0","38992","","null","","","null","77","NaN","","","","","","","","","","","","","","",""
"","S2","","html-keyboard-response","505","535115","0.0-1.0-697.0","0","0","38992","","null","","","null","77","","NaN","","","","","","","","","","","","","",""
"","response","","html-keyboard-response","506","535719","0.0-1.0-698.0-0.0","0","0","38992","","603","","","75","77","","","2","77","training","adjacent","ED","5","4","M.jpg","L.jpg","0","0","1","",""
"","feedback","","html-keyboard-response","507","536722","0.0-1.0-699.0-0.0","0","0","38992","","null","","","null","77","","","","","","","","","","","","","","","",""
"","ITI","","html-keyboard-response","508","537723","0.0-1.0-702.0","0","0","38992","","null","","","null","77","","","","","","","","","","","","","","","NaN",""
"","S1","","html-keyboard-response","509","537976","0.0-1.0-704.0","0","0","38992","","null","","","null","78","","","","","","","","","","","","","","","",""
"","ISI","","html-keyboard-response","510","538978","0.0-1.0-705.0","0","0","38992","","null","","","null","78","NaN","","","","","","","","","","","","","","",""
"","S2","","html-keyboard-response","511","539232","0.0-1.0-706.0","0","0","38992","","null","","","null","78","","NaN","","","","","","","","","","","","","",""
"","response","","html-keyboard-response","512","539760","0.0-1.0-707.0-0.0","0","0","38992","","527","","","75","78","","","2","78","training","adjacent","BC","2","3","P.jpg","Q.jpg","0","1","0","",""
"","feedback","","html-keyboard-response","513","540762","0.0-1.0-708.0-0.0","0","0","38992","","null","","","null","78","","","","","","","","","","","","","","","",""
"","time_out","","html-keyboard-response","514","542763","0.0-1.0-710.0-0.0","0","0","38992","","null","","","null","78","","","","","","","","","","","","","","","",""
"","ITI","","html-keyboard-response","515","543765","0.0-1.0-711.0","0","0","38992","","null","","","null","78","","","","","","","","","","","","","","","NaN",""
"","S1","","html-keyboard-response","516","544017","0.0-1.0-713.0","0","0","38992","","null","","","null","79","","","","","","","","","","","","","","","",""
"","ISI","","html-keyboard-response","517","545020","0.0-1.0-714.0","0","0","38992","","null","","","null","79","NaN","","","","","","","","","","","","","","",""
"","S2","","html-keyboard-response","518","545273","0.0-1.0-715.0","0","0","38992","","null","","","null","79","","NaN","","","","","","","","","","","","","",""
"","response","","html-keyboard-response","519","545673","0.0-1.0-716.0-0.0","0","0","38992","","399","","","68","79","","","2","79","training","adjacent","BA","2","1","P.jpg","O.jpg","1","0","0","",""
"","feedback","","html-keyboard-response","520","546674","0.0-1.0-717.0-0.0","0","0","38992","","null","","","null","79","","","","","","","","","","","","","","","",""
"","time_out","","html-keyboard-response","521","548676","0.0-1.0-719.0-0.0","0","0","38992","","null","","","null","79","","","","","","","","","","","","","","","",""
"","ITI","","html-keyboard-response","522","549679","0.0-1.0-720.0","0","0","38992","","null","","","null","79","","","","","","","","","","","","","","","NaN",""
"","S1","","html-keyboard-response","523","549932","0.0-1.0-722.0","0","0","38992","","null","","","null","80","","","","","","","","","","","","","","","",""
"","ISI","","html-keyboard-response","524","550933","0.0-1.0-723.0","0","0","38992","","null","","","null","80","NaN","","","","","","","","","","","","","","",""
"","S2","","html-keyboard-response","525","551184","0.0-1.0-724.0","0","0","38992","","null","","","null","80","","NaN","","","","","","","","","","","","","",""
"","response","","html-keyboard-response","526","551588","0.0-1.0-725.0-0.0","0","0","38992","","403","","","75","80","","","2","80","training","adjacent","BA","2","1","P.jpg","O.jpg","0","0","1","",""
"","feedback","","html-keyboard-response","527","552591","0.0-1.0-726.0-0.0","0","0","38992","","null","","","null","80","","","","","","","","","","","","","","","",""
"","ITI","","html-keyboard-response","528","553593","0.0-1.0-729.0","0","0","38992","","null","","","null","80","","","","","","","","","","","","","","","NaN",""
"","S1","","html-keyboard-response","529","553845","0.0-1.0-731.0","0","0","38992","","null","","","null","81","","","","","","","","","","","","","","","",""
"","ISI","","html-keyboard-response","530","554847","0.0-1.0-732.0","0","0","38992","","null","","","null","81","NaN","","","","","","","","","","","","","","",""
"","S2","","html-keyboard-response","531","555099","0.0-1.0-733.0","0","0","38992","","null","","","null","81","","NaN","","","","","","","","","","","","","",""
"","response","","html-keyboard-response","532","555644","0.0-1.0-734.0-0.0","0","0","38992","","543","","","75","81","","","2","81","training","adjacent","FE","6","5","N.jpg","M.jpg","0","0","1","",""
"","feedback","","html-keyboard-response","533","556645","0.0-1.0-735.0-0.0","0","0","38992","","null","","","null","81","","","","","","","","","","","","","","","",""
"","ITI","","html-keyboard-response","534","557647","0.0-1.0-738.0","0","0","38992","","null","","","null","81","","","","","","","","","","","","","","","NaN",""
"","S1","","html-keyboard-response","535","557899","0.0-1.0-740.0","0","0","38992","","null","","","null","82","","","","","","","","","","","","","","","",""
"","ISI","","html-keyboard-response","536","558902","0.0-1.0-741.0","0","0","38992","","null","","","null","82","NaN","","","","","","","","","","","","","","",""
"","S2","","html-keyboard-response","537","559155","0.0-1.0-742.0","0","0","38992","","null","","","null","82","","NaN","","","","","","","","","","","","","",""
"","response","","html-keyboard-response","538","559560","0.0-1.0-743.0-0.0","0","0","38992","","404","","","75","82","","","2","82","training","adjacent","DC","4","3","L.jpg","Q.jpg","0","0","1","",""
"","feedback","","html-keyboard-response","539","560562","0.0-1.0-744.0-0.0","0","0","38992","","null","","","null","82","","","","","","","","","","","","","","","",""
"","ITI","","html-keyboard-response","540","561564","0.0-1.0-747.0","0","0","38992","","null","","","null","82","","","","","","","","","","","","","","","NaN",""
"","S1","","html-keyboard-response","541","561815","0.0-1.0-749.0","0","0","38992","","null","","","null","83","","","","","","","","","","","","","","","",""
"","ISI","","html-keyboard-response","542","562818","0.0-1.0-750.0","0","0","38992","","null","","","null","83","NaN","","","","","","","","","","","","","","",""
"","S2","","html-keyboard-response","543","563070","0.0-1.0-751.0","0","0","38992","","null","","","null","83","","NaN","","","","","","","","","","","","","",""
"","response","","html-keyboard-response","544","563417","0.0-1.0-752.0-0.0","0","0","38992","","345","","","75","83","","","2","83","training","adjacent","CB","3","2","Q.jpg","P.jpg","0","0","1","",""
"","feedback","","html-keyboard-response","545","564420","0.0-1.0-753.0-0.0","0","0","38992","","null","","","null","83","","","","","","","","","","","","","","","",""
"","ITI","","html-keyboard-response","546","565422","0.0-1.0-756.0","0","0","38992","","null","","","null","83","","","","","","","","","","","","","","","NaN",""
"","S1","","html-keyboard-response","547","565674","0.0-1.0-758.0","0","0","38992","","null","","","null","84","","","","","","","","","","","","","","","",""
"","ISI","","html-keyboard-response","548","566676","0.0-1.0-759.0","0","0","38992","","null","","","null","84","NaN","","","","","","","","","","","","","","",""
"","S2","","html-keyboard-response","549","566930","0.0-1.0-760.0","0","0","38992","","null","","","null","84","","NaN","","","","","","","","","","","","","",""
"","response","","html-keyboard-response","550","567472","0.0-1.0-761.0-0.0","0","0","38992","","541","","","75","84","","","2","84","training","adjacent","EF","5","6","M.jpg","N.jpg","0","1","0","",""
"","feedback","","html-keyboard-response","551","568474","0.0-1.0-762.0-0.0","0","0","38992","","null","","","null","84","","","","","","","","","","","","","","","",""
"","time_out","","html-keyboard-response","552","570476","0.0-1.0-764.0-0.0","0","0","38992","","null","","","null","84","","","","","","","","","","","","","","","",""
"","ITI","","html-keyboard-response","553","571478","0.0-1.0-765.0","0","0","38992","","null","","","null","84","","","","","","","","","","","","","","","NaN",""
"","S1","","html-keyboard-response","554","571731","0.0-1.0-767.0","0","0","38992","","null","","","null","85","","","","","","","","","","","","","","","",""
"","ISI","","html-keyboard-response","555","572733","0.0-1.0-768.0","0","0","38992","","null","","","null","85","NaN","","","","","","","","","","","","","","",""
"","S2","","html-keyboard-response","556","572985","0.0-1.0-769.0","0","0","38992","","null","","","null","85","","NaN","","","","","","","","","","","","","",""
"","response","","html-keyboard-response","557","573342","0.0-1.0-770.0-0.0","0","0","38992","","356","","","75","85","","","2","85","training","adjacent","EF","5","6","M.jpg","N.jpg","0","1","0","",""
"","feedback","","html-keyboard-response","558","574344","0.0-1.0-771.0-0.0","0","0","38992","","null","","","null","85","","","","","","","","","","","","","","","",""
"","time_out","","html-keyboard-response","559","576346","0.0-1.0-773.0-0.0","0","0","38992","","null","","","null","85","","","","","","","","","","","","","","","",""
"","ITI","","html-keyboard-response","560","577347","0.0-1.0-774.0","0","0","38992","","null","","","null","85","","","","","","","","","","","","","","","NaN",""
"","S1","","html-keyboard-response","561","577600","0.0-1.0-776.0","0","0","38992","","null","","","null","86","","","","","","","","","","","","","","","",""
"","ISI","","html-keyboard-response","562","578602","0.0-1.0-777.0","0","0","38992","","null","","","null","86","NaN","","","","","","","","","","","","","","",""
"","S2","","html-keyboard-response","563","578854","0.0-1.0-778.0","0","0","38992","","null","","","null","86","","NaN","","","","","","","","","","","","","",""
"","response","","html-keyboard-response","564","579371","0.0-1.0-779.0-0.0","0","0","38992","","516","","","75","86","","","2","86","training","adjacent","DE","4","5","L.jpg","M.jpg","0","1","0","",""
"","feedback","","html-keyboard-response","565","580373","0.0-1.0-780.0-0.0","0","0","38992","","null","","","null","86","","","","","","","","","","","","","","","",""
"","time_out","","html-keyboard-response","566","582374","0.0-1.0-782.0-0.0","0","0","38992","","null","","","null","86","","","","","","","","","","","","","","","",""
"","ITI","","html-keyboard-response","567","583375","0.0-1.0-783.0","0","0","38992","","null","","","null","86","","","","","","","","","","","","","","","NaN",""
"","S1","","html-keyboard-response","568","583628","0.0-1.0-785.0","0","0","38992","","null","","","null","87","","","","","","","","","","","","","","","",""
"","ISI","","html-keyboard-response","569","584630","0.0-1.0-786.0","0","0","38992","","null","","","null","87","NaN","","","","","","","","","","","","","","",""
"","S2","","html-keyboard-response","570","584882","0.0-1.0-787.0","0","0","38992","","null","","","null","87","","NaN","","","","","","","","","","","","","",""
"","response","","html-keyboard-response","571","585126","0.0-1.0-788.0-0.0","0","0","38992","","242","","","68","87","","","2","87","training","adjacent","GF","7","6","R.jpg","N.jpg","1","0","0","",""
"","feedback","","html-keyboard-response","572","586128","0.0-1.0-789.0-0.0","0","0","38992","","null","","","null","87","","","","","","","","","","","","","","","",""
"","time_out","","html-keyboard-response","573","588130","0.0-1.0-791.0-0.0","0","0","38992","","null","","","null","87","","","","","","","","","","","","","","","",""
"","ITI","","html-keyboard-response","574","589133","0.0-1.0-792.0","0","0","38992","","null","","","null","87","","","","","","","","","","","","","","","NaN",""
"","S1","","html-keyboard-response","575","589384","0.0-1.0-794.0","0","0","38992","","null","","","null","88","","","","","","","","","","","","","","","",""
"","ISI","","html-keyboard-response","576","590386","0.0-1.0-795.0","0","0","38992","","null","","","null","88","NaN","","","","","","","","","","","","","","",""
"","S2","","html-keyboard-response","577","590639","0.0-1.0-796.0","0","0","38992","","null","","","null","88","","NaN","","","","","","","","","","","","","",""
"","response","","html-keyboard-response","578","591253","0.0-1.0-797.0-0.0","0","0","38992","","613","","","75","88","","","2","88","training","adjacent","BA","2","1","P.jpg","O.jpg","0","0","1","",""
"","feedback","","html-keyboard-response","579","592254","0.0-1.0-798.0-0.0","0","0","38992","","null","","","null","88","","","","","","","","","","","","","","","",""
