"success","ttype","start_time","trial_type","trial_index","time_elapsed","internal_node_id","warning","missed_checkup","PID","view_history","rt","responses","repeat_instructions","key_press","index","keypress_isi","keypress_S2","block","trial_num","phase","group_type","pair_type","S1_stim","S2_stim","S1_img","S2_img","S1_chosen","S1_higher","accuracy","keypress_iti","total_bonus_tally"
"true","full_screen","d03072023hr1831","fullscreen","0","25668","0.0-0.0","0","0","90378","","","","","","","","","","","","","","","","","","","","","",""
"","instructions","","instructions","1","134046","0.0-1.0-0.0-0.0","0","0","90378","[{""page_index"":0,""viewing_time"":8531},{""page_index"":1,""viewing_time"":39231},{""page_index"":2,""viewing_time"":57092},{""page_index"":3,""viewing_time"":3523}]","108377","","","","","","","","","","","","","","","","","","","",""
"","comprehension_check","","survey-multi-choice","2","170028","0.0-1.0-0.0-1.0","0","0","90378","","35979","{""Q0"":""True"",""Q1"":""D"",""Q2"":""Once the second image appears and while the screen 'MAKE A CHOICE' is shown"",""Q3"":""Green mark"",""Q4"":""either D or K""}","0","","","","","","","","","","","","","","","","","",""
"","start_exp","","html-keyboard-response","3","174680","0.0-1.0-1.0","0","0","90378","","4650","","","32","","","","","","","","","","","","","","","","",""
"","S1","","html-keyboard-response","4","174932","0.0-1.0-2.0","0","0","90378","","null","","","null","0","","","","","","","","","","","","","","","",""
"","ISI","","html-keyboard-response","5","175934","0.0-1.0-3.0","0","0","90378","","null","","","null","0","NaN","","","","","","","","","","","","","","",""
"","S2","","html-keyboard-response","6","176187","0.0-1.0-4.0","0","0","90378","","null","","","null","0","","NaN","","","","","","","","","","","","","",""
"","response","","html-keyboard-response","7","176572","0.0-1.0-5.0-0.0","0","0","90378","","383","","","75","0","","","1","0","training","adjacent","BC","2","3","R.jpg","P.jpg","0","1","0","",""
"","feedback","","html-keyboard-response","8","177575","0.0-1.0-6.0-0.0","0","0","90378","","null","","","null","0","","","","","","","","","","","","","","","",""
"","time_out","","html-keyboard-response","9","179578","0.0-1.0-8.0-0.0","0","0","90378","","null","","","null","0","","","","","","","","","","","","","","","",""
"","ITI","","html-keyboard-response","10","180584","0.0-1.0-9.0","0","0","90378","","null","","","null","0","","","","","","","","","","","","","","","NaN",""
"","S1","","html-keyboard-response","11","180836","0.0-1.0-11.0","0","0","90378","","null","","","null","1","","","","","","","","","","","","","","","",""
"","ISI","","html-keyboard-response","12","181839","0.0-1.0-12.0","0","0","90378","","null","","","null","1","NaN","","","","","","","","","","","","","","",""
"","S2","","html-keyboard-response","13","182093","0.0-1.0-13.0","0","0","90378","","null","","","null","1","","NaN","","","","","","","","","","","","","",""
"","response","","html-keyboard-response","14","182434","0.0-1.0-14.0-0.0","0","0","90378","","340","","","68","1","","","1","1","training","adjacent","EF","5","6","M.jpg","N.jpg","1","1","1","",""
"","feedback","","html-keyboard-response","15","183437","0.0-1.0-15.0-0.0","0","0","90378","","null","","","null","1","","","","","","","","","","","","","","","",""
"","ITI","","html-keyboard-response","16","184439","0.0-1.0-18.0","0","0","90378","","null","","","null","1","","","","","","","","","","","","","","","NaN",""
"","S1","","html-keyboard-response","17","184691","0.0-1.0-20.0","0","0","90378","","null","","","null","2","","","","","","","","","","","","","","","",""
"","ISI","","html-keyboard-response","18","185693","0.0-1.0-21.0","0","0","90378","","null","","","null","2","NaN","","","","","","","","","","","","","","",""
"","S2","","html-keyboard-response","19","185946","0.0-1.0-22.0","0","0","90378","","null","","","null","2","","NaN","","","","","","","","","","","","","",""
"","response","","html-keyboard-response","20","186312","0.0-1.0-23.0-0.0","0","0","90378","","365","","","75","2","","","1","2","training","adjacent","DE","4","5","L.jpg","M.jpg","0","1","0","",""
"","feedback","","html-keyboard-response","21","187325","0.0-1.0-24.0-0.0","0","0","90378","","null","","","null","2","","","","","","","","","","","","","","","",""
"","time_out","","html-keyboard-response","22","189327","0.0-1.0-26.0-0.0","0","0","90378","","null","","","null","2","","","","","","","","","","","","","","","",""
"","ITI","","html-keyboard-response","23","190330","0.0-1.0-27.0","0","0","90378","","null","","","null","2","","","","","","","","","","","","","","","NaN",""
"","S1","","html-keyboard-response","24","190582","0.0-1.0-29.0","0","0","90378","","null","","","null","3","","","","","","","","","","","","","","","",""
"","ISI","","html-keyboard-response","25","191595","0.0-1.0-30.0","0","0","90378","","null","","","null","3","NaN","","","","","","","","","","","","","","",""
"","S2","","html-keyboard-response","26","191847","0.0-1.0-31.0","0","0","90378","","null","","","null","3","","NaN","","","","","","","","","","","","","",""
"","response","","html-keyboard-response","27","192463","0.0-1.0-32.0-0.0","0","0","90378","","614","","","75","3","","","1","3","training","adjacent","CD","3","4","P.jpg","L.jpg","0","1","0","",""
"","feedback","","html-keyboard-response","28","193465","0.0-1.0-33.0-0.0","0","0","90378","","null","","","null","3","","","","","","","","","","","","","","","",""
"","time_out","","html-keyboard-response","29","195467","0.0-1.0-35.0-0.0","0","0","90378","","null","","","null","3","","","","","","","","","","","","","","","",""
"","ITI","","html-keyboard-response","30","196470","0.0-1.0-36.0","0","0","90378","","null","","","null","3","","","","","","","","","","","","","","","NaN",""
"","S1","","html-keyboard-response","31","196722","0.0-1.0-38.0","0","0","90378","","null","","","null","4","","","","","","","","","","","","","","","",""
"","ISI","","html-keyboard-response","32","197725","0.0-1.0-39.0","0","0","90378","","null","","","null","4","NaN","","","","","","","","","","","","","","",""
"","S2","","html-keyboard-response","33","197978","0.0-1.0-40.0","0","0","90378","","null","","","null","4","","NaN","","","","","","","","","","","","","",""
"","response","","html-keyboard-response","34","198711","0.0-1.0-41.0-0.0","0","0","90378","","732","","","68","4","","","1","4","training","adjacent","FG","6","7","N.jpg","Q.jpg","1","1","1","",""
"","feedback","","html-keyboard-response","35","199715","0.0-1.0-42.0-0.0","0","0","90378","","null","","","null","4","","","","","","","","","","","","","","","",""
"","ITI","","html-keyboard-response","36","200723","0.0-1.0-45.0","0","0","90378","","null","","","null","4","","","","","","","","","","","","","","","NaN",""
"","S1","","html-keyboard-response","37","200974","0.0-1.0-47.0","0","0","90378","","null","","","null","5","","","","","","","","","","","","","","","",""
"","ISI","","html-keyboard-response","38","201977","0.0-1.0-48.0","0","0","90378","","null","","","null","5","NaN","","","","","","","","","","","","","","",""
"","S2","","html-keyboard-response","39","202228","0.0-1.0-49.0","0","0","90378","","null","","","null","5","","NaN","","","","","","","","","","","","","",""
"","response","","html-keyboard-response","40","202660","0.0-1.0-50.0-0.0","0","0","90378","","431","","","68","5","","","1","5","training","adjacent","ED","5","4","M.jpg","L.jpg","1","0","0","",""
"","feedback","","html-keyboard-response","41","203663","0.0-1.0-51.0-0.0","0","0","90378","","null","","","null","5","","","","","","","","","","","","","","","",""
"","time_out","","html-keyboard-response","42","205664","0.0-1.0-53.0-0.0","0","0","90378","","null","","","null","5","","","","","","","","","","","","","","","",""
"","ITI","","html-keyboard-response","43","206667","0.0-1.0-54.0","0","0","90378","","null","","","null","5","","","","","","","","","","","","","","","NaN",""
"","S1","","html-keyboard-response","44","206919","0.0-1.0-56.0","0","0","90378","","null","","","null","6","","","","","","","","","","","","","","","",""
"","ISI","","html-keyboard-response","45","207922","0.0-1.0-57.0","0","0","90378","","null","","","null","6","NaN","","","","","","","","","","","","","","",""
"","S2","","html-keyboard-response","46","208174","0.0-1.0-58.0","0","0","90378","","null","","","null","6","","NaN","","","","","","","","","","","","","",""
"","response","","html-keyboard-response","47","208681","0.0-1.0-59.0-0.0","0","0","90378","","506","","","75","6","","","1","6","training","adjacent","BC","2","3","R.jpg","P.jpg","0","1","0","",""
"","feedback","","html-keyboard-response","48","209682","0.0-1.0-60.0-0.0","0","0","90378","","null","","","null","6","","","","","","","","","","","","","","","",""
"","time_out","","html-keyboard-response","49","211687","0.0-1.0-62.0-0.0","0","0","90378","","null","","","null","6","","","","","","","","","","","","","","","",""
"","ITI","","html-keyboard-response","50","212688","0.0-1.0-63.0","0","0","90378","","null","","","null","6","","","","","","","","","","","","","","","NaN",""
"","S1","","html-keyboard-response","51","212941","0.0-1.0-65.0","0","0","90378","","null","","","null","7","","","","","","","","","","","","","","","",""
"","ISI","","html-keyboard-response","52","213942","0.0-1.0-66.0","0","0","90378","","null","","","null","7","NaN","","","","","","","","","","","","","","",""
"","S2","","html-keyboard-response","53","214195","0.0-1.0-67.0","0","0","90378","","null","","","null","7","","NaN","","","","","","","","","","","","","",""
"","response","","html-keyboard-response","54","214500","0.0-1.0-68.0-0.0","0","0","90378","","303","","","68","7","","","1","7","training","adjacent","CB","3","2","P.jpg","R.jpg","1","0","0","",""
"","feedback","","html-keyboard-response","55","215502","0.0-1.0-69.0-0.0","0","0","90378","","null","","","null","7","","","","","","","","","","","","","","","",""
"","time_out","","html-keyboard-response","56","217504","0.0-1.0-71.0-0.0","0","0","90378","","null","","","null","7","","","","","","","","","","","","","","","",""
"","ITI","","html-keyboard-response","57","218507","0.0-1.0-72.0","0","0","90378","","null","","","null","7","","","","","","","","","","","","","","","NaN",""
"","S1","","html-keyboard-response","58","218759","0.0-1.0-74.0","0","0","90378","","null","","","null","8","","","","","","","","","","","","","","","",""
"","ISI","","html-keyboard-response","59","219762","0.0-1.0-75.0","0","0","90378","","null","","","null","8","NaN","","","","","","","","","","","","","","",""
"","S2","","html-keyboard-response","60","220014","0.0-1.0-76.0","0","0","90378","","null","","","null","8","","NaN","","","","","","","","","","","","","",""
"","response","","html-keyboard-response","61","220382","0.0-1.0-77.0-0.0","0","0","90378","","366","","","75","8","","","1","8","training","adjacent","CB","3","2","P.jpg","R.jpg","0","0","1","",""
"","feedback","","html-keyboard-response","62","221384","0.0-1.0-78.0-0.0","0","0","90378","","null","","","null","8","","","","","","","","","","","","","","","",""
"","ITI","","html-keyboard-response","63","222387","0.0-1.0-81.0","0","0","90378","","null","","","null","8","","","","","","","","","","","","","","","NaN",""
"","S1","","html-keyboard-response","64","222654","0.0-1.0-83.0","0","0","90378","","null","","","null","9","","","","","","","","","","","","","","","",""
"","ISI","","html-keyboard-response","65","223663","0.0-1.0-84.0","0","0","90378","","null","","","null","9","NaN","","","","","","","","","","","","","","",""
"","S2","","html-keyboard-response","66","223916","0.0-1.0-85.0","0","0","90378","","null","","","null","9","","NaN","","","","","","","","","","","","","",""
"","response","","html-keyboard-response","67","224368","0.0-1.0-86.0-0.0","0","0","90378","","450","","","75","9","","","1","9","training","adjacent","CD","3","4","P.jpg","L.jpg","0","1","0","",""
"","feedback","","html-keyboard-response","68","225371","0.0-1.0-87.0-0.0","0","0","90378","","null","","","null","9","","","","","","","","","","","","","","","",""
"","time_out","","html-keyboard-response","69","227372","0.0-1.0-89.0-0.0","0","0","90378","","null","","","null","9","","","","","","","","","","","","","","","",""
"","ITI","","html-keyboard-response","70","228375","0.0-1.0-90.0","0","0","90378","","null","","","null","9","","","","","","","","","","","","","","","NaN",""
"","S1","","html-keyboard-response","71","228627","0.0-1.0-92.0","0","0","90378","","null","","","null","10","","","","","","","","","","","","","","","",""
"","ISI","","html-keyboard-response","72","229629","0.0-1.0-93.0","0","0","90378","","null","","","null","10","NaN","","","","","","","","","","","","","","",""
"","S2","","html-keyboard-response","73","229882","0.0-1.0-94.0","0","0","90378","","null","","","null","10","","NaN","","","","","","","","","","","","","",""
"","response","","html-keyboard-response","74","230390","0.0-1.0-95.0-0.0","0","0","90378","","507","","","75","10","","","1","10","training","adjacent","FG","6","7","N.jpg","Q.jpg","0","1","0","",""
"","feedback","","html-keyboard-response","75","231393","0.0-1.0-96.0-0.0","0","0","90378","","null","","","null","10","","","","","","","","","","","","","","","",""
"","time_out","","html-keyboard-response","76","233396","0.0-1.0-98.0-0.0","0","0","90378","","null","","","null","10","","","","","","","","","","","","","","","",""
"","ITI","","html-keyboard-response","77","234398","0.0-1.0-99.0","0","0","90378","","null","","","null","10","","","","","","","","","","","","","","","NaN",""
"","S1","","html-keyboard-response","78","234650","0.0-1.0-101.0","0","0","90378","","null","","","null","11","","","","","","","","","","","","","","","",""
"","ISI","","html-keyboard-response","79","235652","0.0-1.0-102.0","0","0","90378","","null","","","null","11","NaN","","","","","","","","","","","","","","",""
"","S2","","html-keyboard-response","80","235906","0.0-1.0-103.0","0","0","90378","","null","","","null","11","","NaN","","","","","","","","","","","","","",""
"","response","","html-keyboard-response","81","236420","0.0-1.0-104.0-0.0","0","0","90378","","513","","","68","11","","","1","11","training","adjacent","GF","7","6","Q.jpg","N.jpg","1","0","0","",""
"","feedback","","html-keyboard-response","82","237422","0.0-1.0-105.0-0.0","0","0","90378","","null","","","null","11","","","","","","","","","","","","","","","",""
"","time_out","","html-keyboard-response","83","239424","0.0-1.0-107.0-0.0","0","0","90378","","null","","","null","11","","","","","","","","","","","","","","","",""
"","ITI","","html-keyboard-response","84","240428","0.0-1.0-108.0","0","0","90378","","null","","","null","11","","","","","","","","","","","","","","","NaN",""
"","S1","","html-keyboard-response","85","240681","0.0-1.0-110.0","0","0","90378","","null","","","null","12","","","","","","","","","","","","","","","",""
"","ISI","","html-keyboard-response","86","241683","0.0-1.0-111.0","0","0","90378","","null","","","null","12","NaN","","","","","","","","","","","","","","",""
"","S2","","html-keyboard-response","87","241936","0.0-1.0-112.0","0","0","90378","","null","","","null","12","","NaN","","","","","","","","","","","","","",""
"","response","","html-keyboard-response","88","242509","0.0-1.0-113.0-0.0","0","0","90378","","571","","","75","12","","","1","12","training","adjacent","CD","3","4","P.jpg","L.jpg","0","1","0","",""
"","feedback","","html-keyboard-response","89","243512","0.0-1.0-114.0-0.0","0","0","90378","","null","","","null","12","","","","","","","","","","","","","","","",""
"","time_out","","html-keyboard-response","90","245515","0.0-1.0-116.0-0.0","0","0","90378","","null","","","null","12","","","","","","","","","","","","","","","",""
"","ITI","","html-keyboard-response","91","246517","0.0-1.0-117.0","0","0","90378","","null","","","null","12","","","","","","","","","","","","","","","NaN",""
"","S1","","html-keyboard-response","92","246770","0.0-1.0-119.0","0","0","90378","","null","","","null","13","","","","","","","","","","","","","","","",""
"","ISI","","html-keyboard-response","93","247772","0.0-1.0-120.0","0","0","90378","","null","","","null","13","NaN","","","","","","","","","","","","","","",""
"","S2","","html-keyboard-response","94","248024","0.0-1.0-121.0","0","0","90378","","null","","","null","13","","NaN","","","","","","","","","","","","","",""
"","response","","html-keyboard-response","95","249015","0.0-1.0-122.0-0.0","0","0","90378","","990","","","75","13","","","1","13","training","adjacent","BC","2","3","R.jpg","P.jpg","0","1","0","",""
"","feedback","","html-keyboard-response","96","250017","0.0-1.0-123.0-0.0","0","0","90378","","null","","","null","13","","","","","","","","","","","","","","","",""
"","time_out","","html-keyboard-response","97","252019","0.0-1.0-125.0-0.0","0","0","90378","","null","","","null","13","","","","","","","","","","","","","","","",""
"","ITI","","html-keyboard-response","98","253021","0.0-1.0-126.0","0","0","90378","","null","","","null","13","","","","","","","","","","","","","","","NaN",""
"","S1","","html-keyboard-response","99","253274","0.0-1.0-128.0","0","0","90378","","null","","","null","14","","","","","","","","","","","","","","","",""
"","ISI","","html-keyboard-response","100","254277","0.0-1.0-129.0","0","0","90378","","null","","","null","14","NaN","","","","","","","","","","","","","","",""
"","S2","","html-keyboard-response","101","254529","0.0-1.0-130.0","0","0","90378","","null","","","null","14","","NaN","","","","","","","","","","","","","",""
"","response","","html-keyboard-response","102","254894","0.0-1.0-131.0-0.0","0","0","90378","","363","","","68","14","","","1","14","training","adjacent","DE","4","5","L.jpg","M.jpg","1","1","1","",""
"","feedback","","html-keyboard-response","103","255897","0.0-1.0-132.0-0.0","0","0","90378","","null","","","null","14","","","","","","","","","","","","","","","",""
"","ITI","","html-keyboard-response","104","256900","0.0-1.0-135.0","0","0","90378","","null","","","null","14","","","","","","","","","","","","","","","NaN",""
"","S1","","html-keyboard-response","105","257153","0.0-1.0-137.0","0","0","90378","","null","","","null","15","","","","","","","","","","","","","","","",""
"","ISI","","html-keyboard-response","106","258155","0.0-1.0-138.0","0","0","90378","","null","","","null","15","NaN","","","","","","","","","","","","","","",""
"","S2","","html-keyboard-response","107","258408","0.0-1.0-139.0","0","0","90378","","null","","","null","15","","NaN","","","","","","","","","","","","","",""
"","response","","html-keyboard-response","108","258920","0.0-1.0-140.0-0.0","0","0","90378","","511","","","68","15","","","1","15","training","adjacent","FE","6","5","N.jpg","M.jpg","1","0","0","",""
"","feedback","","html-keyboard-response","109","259923","0.0-1.0-141.0-0.0","0","0","90378","","null","","","null","15","","","","","","","","","","","","","","","",""
"","time_out","","html-keyboard-response","110","261926","0.0-1.0-143.0-0.0","0","0","90378","","null","","","null","15","","","","","","","","","","","","","","","",""
"","ITI","","html-keyboard-response","111","262928","0.0-1.0-144.0","0","0","90378","","null","","","null","15","","","","","","","","","","","","","","","NaN",""
"","S1","","html-keyboard-response","112","263180","0.0-1.0-146.0","0","0","90378","","null","","","null","16","","","","","","","","","","","","","","","",""
"","ISI","","html-keyboard-response","113","264183","0.0-1.0-147.0","0","0","90378","","null","","","null","16","NaN","","","","","","","","","","","","","","",""
"","S2","","html-keyboard-response","114","264436","0.0-1.0-148.0","0","0","90378","","null","","","null","16","","NaN","","","","","","","","","","","","","",""
"","response","","html-keyboard-response","115","265030","0.0-1.0-149.0-0.0","0","0","90378","","593","","","68","16","","","1","16","training","adjacent","AB","1","2","O.jpg","R.jpg","1","1","1","",""
"","feedback","","html-keyboard-response","116","266033","0.0-1.0-150.0-0.0","0","0","90378","","null","","","null","16","","","","","","","","","","","","","","","",""
"","ITI","","html-keyboard-response","117","267036","0.0-1.0-153.0","0","0","90378","","null","","","null","16","","","","","","","","","","","","","","","NaN",""
"","S1","","html-keyboard-response","118","267288","0.0-1.0-155.0","0","0","90378","","null","","","null","17","","","","","","","","","","","","","","","",""
"","ISI","","html-keyboard-response","119","268290","0.0-1.0-156.0","0","0","90378","","null","","","null","17","NaN","","","","","","","","","","","","","","",""
"","S2","","html-keyboard-response","120","268550","0.0-1.0-157.0","0","0","90378","","null","","","null","17","","NaN","","","","","","","","","","","","","",""
"","response","","html-keyboard-response","121","269122","0.0-1.0-158.0-0.0","0","0","90378","","571","","","68","17","","","1","17","training","adjacent","FG","6","7","N.jpg","Q.jpg","1","1","1","",""
"","feedback","","html-keyboard-response","122","270124","0.0-1.0-159.0-0.0","0","0","90378","","null","","","null","17","","","","","","","","","","","","","","","",""
"","ITI","","html-keyboard-response","123","271126","0.0-1.0-162.0","0","0","90378","","null","","","null","17","","","","","","","","","","","","","","","NaN",""
"","S1","","html-keyboard-response","124","271378","0.0-1.0-164.0","0","0","90378","","null","","","null","18","","","","","","","","","","","","","","","",""
"","ISI","","html-keyboard-response","125","272381","0.0-1.0-165.0","0","0","90378","","null","","","null","18","NaN","","","","","","","","","","","","","","",""
"","S2","","html-keyboard-response","126","272633","0.0-1.0-166.0","0","0","90378","","null","","","null","18","","NaN","","","","","","","","","","","","","",""
"","response","","html-keyboard-response","127","272988","0.0-1.0-167.0-0.0","0","0","90378","","353","","","68","18","","","1","18","training","adjacent","AB","1","2","O.jpg","R.jpg","1","1","1","",""
"","feedback","","html-keyboard-response","128","273991","0.0-1.0-168.0-0.0","0","0","90378","","null","","","null","18","","","","","","","","","","","","","","","",""
"","ITI","","html-keyboard-response","129","274993","0.0-1.0-171.0","0","0","90378","","null","","","null","18","","","","","","","","","","","","","","","NaN",""
"","S1","","html-keyboard-response","130","275246","0.0-1.0-173.0","0","0","90378","","null","","","null","19","","","","","","","","","","","","","","","",""
"","ISI","","html-keyboard-response","131","276249","0.0-1.0-174.0","0","0","90378","","null","","","null","19","NaN","","","","","","","","","","","","","","",""
"","S2","","html-keyboard-response","132","276502","0.0-1.0-175.0","0","0","90378","","null","","","null","19","","NaN","","","","","","","","","","","","","",""
"","response","","html-keyboard-response","133","276956","0.0-1.0-176.0-0.0","0","0","90378","","452","","","75","19","","","1","19","training","adjacent","BA","2","1","R.jpg","O.jpg","0","0","1","",""
"","feedback","","html-keyboard-response","134","277959","0.0-1.0-177.0-0.0","0","0","90378","","null","","","null","19","","","","","","","","","","","","","","","",""
"","ITI","","html-keyboard-response","135","278961","0.0-1.0-180.0","0","0","90378","","null","","","null","19","","","","","","","","","","","","","","","NaN",""
"","S1","","html-keyboard-response","136","279216","0.0-1.0-182.0","0","0","90378","","null","","","null","20","","","","","","","","","","","","","","","",""
"","ISI","","html-keyboard-response","137","280219","0.0-1.0-183.0","0","0","90378","","null","","","null","20","NaN","","","","","","","","","","","","","","",""
"","S2","","html-keyboard-response","138","280472","0.0-1.0-184.0","0","0","90378","","null","","","null","20","","NaN","","","","","","","","","","","","","",""
"","response","","html-keyboard-response","139","281284","0.0-1.0-185.0-0.0","0","0","90378","","811","","","68","20","","","1","20","training","adjacent","DC","4","3","L.jpg","P.jpg","1","0","0","",""
"","feedback","","html-keyboard-response","140","282293","0.0-1.0-186.0-0.0","0","0","90378","","null","","","null","20","","","","","","","","","","","","","","","",""
"","time_out","","html-keyboard-response","141","284295","0.0-1.0-188.0-0.0","0","0","90378","","null","","","null","20","","","","","","","","","","","","","","","",""
"","ITI","","html-keyboard-response","142","285297","0.0-1.0-189.0","0","0","90378","","null","","","null","20","","","","","","","","","","","","","","","NaN",""
"","S1","","html-keyboard-response","143","285549","0.0-1.0-191.0","0","0","90378","","null","","","null","21","","","","","","","","","","","","","","","",""
"","ISI","","html-keyboard-response","144","286551","0.0-1.0-192.0","0","0","90378","","null","","","null","21","NaN","","","","","","","","","","","","","","",""
"","S2","","html-keyboard-response","145","286803","0.0-1.0-193.0","0","0","90378","","null","","","null","21","","NaN","","","","","","","","","","","","","",""
"","response","","html-keyboard-response","146","287061","0.0-1.0-194.0-0.0","0","0","90378","","255","","","68","21","","","1","21","training","adjacent","AB","1","2","O.jpg","R.jpg","1","1","1","",""
"","feedback","","html-keyboard-response","147","288063","0.0-1.0-195.0-0.0","0","0","90378","","null","","","null","21","","","","","","","","","","","","","","","",""
"","ITI","","html-keyboard-response","148","289066","0.0-1.0-198.0","0","0","90378","","null","","","null","21","","","","","","","","","","","","","","","NaN",""
"","S1","","html-keyboard-response","149","289318","0.0-1.0-200.0","0","0","90378","","null","","","null","22","","","","","","","","","","","","","","","",""
"","ISI","","html-keyboard-response","150","290321","0.0-1.0-201.0","0","0","90378","","null","","","null","22","NaN","","","","","","","","","","","","","","",""
"","S2","","html-keyboard-response","151","290573","0.0-1.0-202.0","0","0","90378","","null","","","null","22","","NaN","","","","","","","","","","","","","",""
"","response","","html-keyboard-response","152","290895","0.0-1.0-203.0-0.0","0","0","90378","","321","","","75","22","","","1","22","training","adjacent","BA","2","1","R.jpg","O.jpg","0","0","1","",""
"","feedback","","html-keyboard-response","153","291898","0.0-1.0-204.0-0.0","0","0","90378","","null","","","null","22","","","","","","","","","","","","","","","",""
"","ITI","","html-keyboard-response","154","292908","0.0-1.0-207.0","0","0","90378","","null","","","null","22","","","","","","","","","","","","","","","NaN",""
"","S1","","html-keyboard-response","155","293160","0.0-1.0-209.0","0","0","90378","","null","","","null","23","","","","","","","","","","","","","","","",""
"","ISI","","html-keyboard-response","156","294163","0.0-1.0-210.0","0","0","90378","","null","","","null","23","NaN","","","","","","","","","","","","","","",""
"","S2","","html-keyboard-response","157","294415","0.0-1.0-211.0","0","0","90378","","null","","","null","23","","NaN","","","","","","","","","","","","","",""
"","response","","html-keyboard-response","158","294845","0.0-1.0-212.0-0.0","0","0","90378","","428","","","68","23","","","1","23","training","adjacent","EF","5","6","M.jpg","N.jpg","1","1","1","",""
"","feedback","","html-keyboard-response","159","295848","0.0-1.0-213.0-0.0","0","0","90378","","null","","","null","23","","","","","","","","","","","","","","","",""
"","ITI","","html-keyboard-response","160","296851","0.0-1.0-216.0","0","0","90378","","null","","","null","23","","","","","","","","","","","","","","","NaN",""
"","S1","","html-keyboard-response","161","297107","0.0-1.0-218.0","0","0","90378","","null","","","null","24","","","","","","","","","","","","","","","",""
"","ISI","","html-keyboard-response","162","298110","0.0-1.0-219.0","0","0","90378","","null","","","null","24","NaN","","","","","","","","","","","","","","",""
"","S2","","html-keyboard-response","163","298363","0.0-1.0-220.0","0","0","90378","","null","","","null","24","","NaN","","","","","","","","","","","","","",""
"","response","","html-keyboard-response","164","298892","0.0-1.0-221.0-0.0","0","0","90378","","528","","","75","24","","","1","24","training","adjacent","FE","6","5","N.jpg","M.jpg","0","0","1","",""
"","feedback","","html-keyboard-response","165","299894","0.0-1.0-222.0-0.0","0","0","90378","","null","","","null","24","","","","","","","","","","","","","","","",""
"","ITI","","html-keyboard-response","166","300896","0.0-1.0-225.0","0","0","90378","","null","","","null","24","","","","","","","","","","","","","","","NaN",""
"","S1","","html-keyboard-response","167","301149","0.0-1.0-227.0","0","0","90378","","null","","","null","25","","","","","","","","","","","","","","","",""
"","ISI","","html-keyboard-response","168","302151","0.0-1.0-228.0","0","0","90378","","null","","","null","25","NaN","","","","","","","","","","","","","","",""
"","S2","","html-keyboard-response","169","302403","0.0-1.0-229.0","0","0","90378","","null","","","null","25","","NaN","","","","","","","","","","","","","",""
"","response","","html-keyboard-response","170","302942","0.0-1.0-230.0-0.0","0","0","90378","","537","","","75","25","","","1","25","training","adjacent","BA","2","1","R.jpg","O.jpg","0","0","1","",""
"","feedback","","html-keyboard-response","171","303945","0.0-1.0-231.0-0.0","0","0","90378","","null","","","null","25","","","","","","","","","","","","","","","",""
"","ITI","","html-keyboard-response","172","304951","0.0-1.0-234.0","0","0","90378","","null","","","null","25","","","","","","","","","","","","","","","NaN",""
"","S1","","html-keyboard-response","173","305217","0.0-1.0-236.0","0","0","90378","","null","","","null","26","","","","","","","","","","","","","","","",""
"","ISI","","html-keyboard-response","174","306220","0.0-1.0-237.0","0","0","90378","","null","","","null","26","NaN","","","","","","","","","","","","","","",""
"","S2","","html-keyboard-response","175","306473","0.0-1.0-238.0","0","0","90378","","null","","","null","26","","NaN","","","","","","","","","","","","","",""
"","response","","html-keyboard-response","176","307049","0.0-1.0-239.0-0.0","0","0","90378","","575","","","68","26","","","1","26","training","adjacent","DE","4","5","L.jpg","M.jpg","1","1","1","",""
"","feedback","","html-keyboard-response","177","308053","0.0-1.0-240.0-0.0","0","0","90378","","null","","","null","26","","","","","","","","","","","","","","","",""
"","ITI","","html-keyboard-response","178","309055","0.0-1.0-243.0","0","0","90378","","null","","","null","26","","","","","","","","","","","","","","","NaN",""
"","S1","","html-keyboard-response","179","309308","0.0-1.0-245.0","0","0","90378","","null","","","null","27","","","","","","","","","","","","","","","",""
"","ISI","","html-keyboard-response","180","310310","0.0-1.0-246.0","0","0","90378","","null","","","null","27","NaN","","","","","","","","","","","","","","",""
"","S2","","html-keyboard-response","181","310577","0.0-1.0-247.0","0","0","90378","","null","","","null","27","","NaN","","","","","","","","","","","","","",""
"","response","","html-keyboard-response","182","311303","0.0-1.0-248.0-0.0","0","0","90378","","723","","","68","27","","","1","27","training","adjacent","FG","6","7","N.jpg","Q.jpg","1","1","1","",""
"","feedback","","html-keyboard-response","183","312305","0.0-1.0-249.0-0.0","0","0","90378","","null","","","null","27","","","","","","","","","","","","","","","",""
"","ITI","","html-keyboard-response","184","313307","0.0-1.0-252.0","0","0","90378","","null","","","null","27","","","","","","","","","","","","","","","NaN",""
"","S1","","html-keyboard-response","185","313560","0.0-1.0-254.0","0","0","90378","","null","","","null","28","","","","","","","","","","","","","","","",""
"","ISI","","html-keyboard-response","186","314562","0.0-1.0-255.0","0","0","90378","","null","","","null","28","NaN","","","","","","","","","","","","","","",""
"","S2","","html-keyboard-response","187","314815","0.0-1.0-256.0","0","0","90378","","null","","","null","28","","NaN","","","","","","","","","","","","","",""
"","response","","html-keyboard-response","188","315157","0.0-1.0-257.0-0.0","0","0","90378","","341","","","75","28","","","1","28","training","adjacent","DE","4","5","L.jpg","M.jpg","0","1","0","",""
"","feedback","","html-keyboard-response","189","316162","0.0-1.0-258.0-0.0","0","0","90378","","null","","","null","28","","","","","","","","","","","","","","","",""
"","time_out","","html-keyboard-response","190","318176","0.0-1.0-260.0-0.0","0","0","90378","","null","","","null","28","","","","","","","","","","","","","","","",""
"","ITI","","html-keyboard-response","191","319179","0.0-1.0-261.0","0","0","90378","","null","","","null","28","","","","","","","","","","","","","","","NaN",""
"","S1","","html-keyboard-response","192","319431","0.0-1.0-263.0","0","0","90378","","null","","","null","29","","","","","","","","","","","","","","","",""
"","ISI","","html-keyboard-response","193","320433","0.0-1.0-264.0","0","0","90378","","null","","","null","29","NaN","","","","","","","","","","","","","","",""
"","S2","","html-keyboard-response","194","320685","0.0-1.0-265.0","0","0","90378","","null","","","null","29","","NaN","","","","","","","","","","","","","",""
"","response","","html-keyboard-response","195","321025","0.0-1.0-266.0-0.0","0","0","90378","","338","","","68","29","","","1","29","training","adjacent","EF","5","6","M.jpg","N.jpg","1","1","1","",""
"","feedback","","html-keyboard-response","196","322029","0.0-1.0-267.0-0.0","0","0","90378","","null","","","null","29","","","","","","","","","","","","","","","",""
"","ITI","","html-keyboard-response","197","323031","0.0-1.0-270.0","0","0","90378","","null","","","null","29","","","","","","","","","","","","","","","NaN",""
"","S1","","html-keyboard-response","198","323284","0.0-1.0-272.0","0","0","90378","","null","","","null","30","","","","","","","","","","","","","","","",""
"","ISI","","html-keyboard-response","199","324296","0.0-1.0-273.0","0","0","90378","","null","","","null","30","NaN","","","","","","","","","","","","","","",""
"","S2","","html-keyboard-response","200","324549","0.0-1.0-274.0","0","0","90378","","null","","","null","30","","NaN","","","","","","","","","","","","","",""
"","response","","html-keyboard-response","201","324913","0.0-1.0-275.0-0.0","0","0","90378","","362","","","68","30","","","1","30","training","adjacent","ED","5","4","M.jpg","L.jpg","1","0","0","",""
"","feedback","","html-keyboard-response","202","325915","0.0-1.0-276.0-0.0","0","0","90378","","null","","","null","30","","","","","","","","","","","","","","","",""
"","time_out","","html-keyboard-response","203","327917","0.0-1.0-278.0-0.0","0","0","90378","","null","","","null","30","","","","","","","","","","","","","","","",""
"","ITI","","html-keyboard-response","204","328920","0.0-1.0-279.0","0","0","90378","","null","","","null","30","","","","","","","","","","","","","","","NaN",""
"","S1","","html-keyboard-response","205","329180","0.0-1.0-281.0","0","0","90378","","null","","","null","31","","","","","","","","","","","","","","","",""
"","ISI","","html-keyboard-response","206","330182","0.0-1.0-282.0","0","0","90378","","null","","","null","31","NaN","","","","","","","","","","","","","","",""
"","S2","","html-keyboard-response","207","330435","0.0-1.0-283.0","0","0","90378","","null","","","null","31","","NaN","","","","","","","","","","","","","",""
"","response","","html-keyboard-response","208","330827","0.0-1.0-284.0-0.0","0","0","90378","","391","","","75","31","","","1","31","training","adjacent","BA","2","1","R.jpg","O.jpg","0","0","1","",""
"","feedback","","html-keyboard-response","209","331830","0.0-1.0-285.0-0.0","0","0","90378","","null","","","null","31","","","","","","","","","","","","","","","",""
"","ITI","","html-keyboard-response","210","332842","0.0-1.0-288.0","0","0","90378","","null","","","null","31","","","","","","","","","","","","","","","NaN",""
"","S1","","html-keyboard-response","211","333094","0.0-1.0-290.0","0","0","90378","","null","","","null","32","","","","","","","","","","","","","","","",""
"","ISI","","html-keyboard-response","212","334096","0.0-1.0-291.0","0","0","90378","","null","","","null","32","NaN","","","","","","","","","","","","","","",""
"","S2","","html-keyboard-response","213","334349","0.0-1.0-292.0","0","0","90378","","null","","","null","32","","NaN","","","","","","","","","","","","","",""
"","response","","html-keyboard-response","214","334698","0.0-1.0-293.0-0.0","0","0","90378","","348","","","75","32","","","1","32","training","adjacent","FE","6","5","N.jpg","M.jpg","0","0","1","",""
"","feedback","","html-keyboard-response","215","335701","0.0-1.0-294.0-0.0","0","0","90378","","null","","","null","32","","","","","","","","","","","","","","","",""
"","ITI","","html-keyboard-response","216","336703","0.0-1.0-297.0","0","0","90378","","null","","","null","32","","","","","","","","","","","","","","","NaN",""
"","S1","","html-keyboard-response","217","336965","0.0-1.0-299.0","0","0","90378","","null","","","null","33","","","","","","","","","","","","","","","",""
"","ISI","","html-keyboard-response","218","337980","0.0-1.0-300.0","0","0","90378","","null","","","null","33","NaN","","","","","","","","","","","","","","",""
"","S2","","html-keyboard-response","219","338232","0.0-1.0-301.0","0","0","90378","","null","","","null","33","","NaN","","","","","","","","","","","","","",""
"","response","","html-keyboard-response","220","338685","0.0-1.0-302.0-0.0","0","0","90378","","451","","","68","33","","","1","33","training","adjacent","CB","3","2","P.jpg","R.jpg","1","0","0","",""
"","feedback","","html-keyboard-response","221","339688","0.0-1.0-303.0-0.0","0","0","90378","","null","","","null","33","","","","","","","","","","","","","","","",""
"","time_out","","html-keyboard-response","222","341690","0.0-1.0-305.0-0.0","0","0","90378","","null","","","null","33","","","","","","","","","","","","","","","",""
"","ITI","","html-keyboard-response","223","342692","0.0-1.0-306.0","0","0","90378","","null","","","null","33","","","","","","","","","","","","","","","NaN",""
"","S1","","html-keyboard-response","224","342945","0.0-1.0-308.0","0","0","90378","","null","","","null","34","","","","","","","","","","","","","","","",""
"","ISI","","html-keyboard-response","225","343947","0.0-1.0-309.0","0","0","90378","","null","","","null","34","NaN","","","","","","","","","","","","","","",""
"","S2","","html-keyboard-response","226","344200","0.0-1.0-310.0","0","0","90378","","null","","","null","34","","NaN","","","","","","","","","","","","","",""
"","response","","html-keyboard-response","227","344714","0.0-1.0-311.0-0.0","0","0","90378","","514","","","68","34","","","1","34","training","adjacent","EF","5","6","M.jpg","N.jpg","1","1","1","",""
"","feedback","","html-keyboard-response","228","345717","0.0-1.0-312.0-0.0","0","0","90378","","null","","","null","34","","","","","","","","","","","","","","","",""
"","ITI","","html-keyboard-response","229","346719","0.0-1.0-315.0","0","0","90378","","null","","","null","34","","","","","","","","","","","","","","","NaN",""
"","S1","","html-keyboard-response","230","346980","0.0-1.0-317.0","0","0","90378","","null","","","null","35","","","","","","","","","","","","","","","",""
"","ISI","","html-keyboard-response","231","347982","0.0-1.0-318.0","0","0","90378","","null","","","null","35","NaN","","","","","","","","","","","","","","",""
"","S2","","html-keyboard-response","232","348234","0.0-1.0-319.0","0","0","90378","","null","","","null","35","","NaN","","","","","","","","","","","","","",""
"","response","","html-keyboard-response","233","348534","0.0-1.0-320.0-0.0","0","0","90378","","299","","","75","35","","","1","35","training","adjacent","CB","3","2","P.jpg","R.jpg","0","0","1","",""
"","feedback","","html-keyboard-response","234","349536","0.0-1.0-321.0-0.0","0","0","90378","","null","","","null","35","","","","","","","","","","","","","","","",""
"","ITI","","html-keyboard-response","235","350538","0.0-1.0-324.0","0","0","90378","","null","","","null","35","","","","","","","","","","","","","","","NaN",""
"","S1","","html-keyboard-response","236","350790","0.0-1.0-326.0","0","0","90378","","null","","","null","36","","","","","","","","","","","","","","","",""
"","ISI","","html-keyboard-response","237","351793","0.0-1.0-327.0","0","0","90378","","null","","","null","36","NaN","","","","","","","","","","","","","","",""
"","S2","","html-keyboard-response","238","352045","0.0-1.0-328.0","0","0","90378","","null","","","null","36","","NaN","","","","","","","","","","","","","",""
"","response","","html-keyboard-response","239","352250","0.0-1.0-329.0-0.0","0","0","90378","","204","","","68","36","","","1","36","training","adjacent","AB","1","2","O.jpg","R.jpg","1","1","1","",""
"","feedback","","html-keyboard-response","240","353255","0.0-1.0-330.0-0.0","0","0","90378","","null","","","null","36","","","","","","","","","","","","","","","",""
"","ITI","","html-keyboard-response","241","354258","0.0-1.0-333.0","0","0","90378","","null","","","null","36","","","","","","","","","","","","","","","NaN",""
"","S1","","html-keyboard-response","242","354511","0.0-1.0-335.0","0","0","90378","","null","","","null","37","","","","","","","","","","","","","","","",""
"","ISI","","html-keyboard-response","243","355513","0.0-1.0-336.0","0","0","90378","","null","","","null","37","NaN","","","","","","","","","","","","","","",""
"","S2","","html-keyboard-response","244","355765","0.0-1.0-337.0","0","0","90378","","null","","","null","37","","NaN","","","","","","","","","","","","","",""
"","response","","html-keyboard-response","245","356504","0.0-1.0-338.0-0.0","0","0","90378","","737","","","68","37","","","1","37","training","adjacent","BC","2","3","R.jpg","P.jpg","1","1","1","",""
"","feedback","","html-keyboard-response","246","357507","0.0-1.0-339.0-0.0","0","0","90378","","null","","","null","37","","","","","","","","","","","","","","","",""
"","ITI","","html-keyboard-response","247","358509","0.0-1.0-342.0","0","0","90378","","null","","","null","37","","","","","","","","","","","","","","","NaN",""
"","S1","","html-keyboard-response","248","358761","0.0-1.0-344.0","0","0","90378","","null","","","null","38","","","","","","","","","","","","","","","",""
"","ISI","","html-keyboard-response","249","359763","0.0-1.0-345.0","0","0","90378","","null","","","null","38","NaN","","","","","","","","","","","","","","",""
"","S2","","html-keyboard-response","250","360017","0.0-1.0-346.0","0","0","90378","","null","","","null","38","","NaN","","","","","","","","","","","","","",""
"","response","","html-keyboard-response","251","360626","0.0-1.0-347.0-0.0","0","0","90378","","608","","","75","38","","","1","38","training","adjacent","DC","4","3","L.jpg","P.jpg","0","0","1","",""
"","feedback","","html-keyboard-response","252","361628","0.0-1.0-348.0-0.0","0","0","90378","","null","","","null","38","","","","","","","","","","","","","","","",""
"","ITI","","html-keyboard-response","253","362631","0.0-1.0-351.0","0","0","90378","","null","","","null","38","","","","","","","","","","","","","","","NaN",""
"","S1","","html-keyboard-response","254","362883","0.0-1.0-353.0","0","0","90378","","null","","","null","39","","","","","","","","","","","","","","","",""
"","ISI","","html-keyboard-response","255","363886","0.0-1.0-354.0","0","0","90378","","null","","","null","39","NaN","","","","","","","","","","","","","","",""
"","S2","","html-keyboard-response","256","364138","0.0-1.0-355.0","0","0","90378","","null","","","null","39","","NaN","","","","","","","","","","","","","",""
"","response","","html-keyboard-response","257","364432","0.0-1.0-356.0-0.0","0","0","90378","","292","","","75","39","","","1","39","training","adjacent","GF","7","6","Q.jpg","N.jpg","0","0","1","",""
"","feedback","","html-keyboard-response","258","365434","0.0-1.0-357.0-0.0","0","0","90378","","null","","","null","39","","","","","","","","","","","","","","","",""
"","ITI","","html-keyboard-response","259","366436","0.0-1.0-360.0","0","0","90378","","null","","","null","39","","","","","","","","","","","","","","","NaN",""
"","S1","","html-keyboard-response","260","366689","0.0-1.0-362.0","0","0","90378","","null","","","null","40","","","","","","","","","","","","","","","",""
"","ISI","","html-keyboard-response","261","367691","0.0-1.0-363.0","0","0","90378","","null","","","null","40","NaN","","","","","","","","","","","","","","",""
"","S2","","html-keyboard-response","262","367943","0.0-1.0-364.0","0","0","90378","","null","","","null","40","","NaN","","","","","","","","","","","","","",""
"","response","","html-keyboard-response","263","368133","0.0-1.0-365.0-0.0","0","0","90378","","188","","","75","40","","","1","40","training","adjacent","GF","7","6","Q.jpg","N.jpg","0","0","1","",""
"","feedback","","html-keyboard-response","264","369149","0.0-1.0-366.0-0.0","0","0","90378","","null","","","null","40","","","","","","","","","","","","","","","",""
"","ITI","","html-keyboard-response","265","370151","0.0-1.0-369.0","0","0","90378","","null","","","null","40","","","","","","","","","","","","","","","NaN",""
"","S1","","html-keyboard-response","266","370403","0.0-1.0-371.0","0","0","90378","","null","","","null","41","","","","","","","","","","","","","","","",""
"","ISI","","html-keyboard-response","267","371406","0.0-1.0-372.0","0","0","90378","","null","","","null","41","NaN","","","","","","","","","","","","","","",""
"","S2","","html-keyboard-response","268","371659","0.0-1.0-373.0","0","0","90378","","null","","","null","41","","NaN","","","","","","","","","","","","","",""
"","response","","html-keyboard-response","269","372158","0.0-1.0-374.0-0.0","0","0","90378","","497","","","68","41","","","1","41","training","adjacent","CD","3","4","P.jpg","L.jpg","1","1","1","",""
"","feedback","","html-keyboard-response","270","373160","0.0-1.0-375.0-0.0","0","0","90378","","null","","","null","41","","","","","","","","","","","","","","","",""
"","ITI","","html-keyboard-response","271","374163","0.0-1.0-378.0","0","0","90378","","null","","","null","41","","","","","","","","","","","","","","","NaN",""
"","S1","","html-keyboard-response","272","374414","0.0-1.0-380.0","0","0","90378","","null","","","null","42","","","","","","","","","","","","","","","",""
"","ISI","","html-keyboard-response","273","375417","0.0-1.0-381.0","0","0","90378","","null","","","null","42","NaN","","","","","","","","","","","","","","",""
"","S2","","html-keyboard-response","274","375670","0.0-1.0-382.0","0","0","90378","","null","","","null","42","","NaN","","","","","","","","","","","","","",""
"","response","","html-keyboard-response","275","375907","0.0-1.0-383.0-0.0","0","0","90378","","237","","","68","42","","","1","42","training","adjacent","ED","5","4","M.jpg","L.jpg","1","0","0","",""
"","feedback","","html-keyboard-response","276","376910","0.0-1.0-384.0-0.0","0","0","90378","","null","","","null","42","","","","","","","","","","","","","","","",""
"","time_out","","html-keyboard-response","277","378913","0.0-1.0-386.0-0.0","0","0","90378","","null","","","null","42","","","","","","","","","","","","","","","",""
"","ITI","","html-keyboard-response","278","379915","0.0-1.0-387.0","0","0","90378","","null","","","null","42","","","","","","","","","","","","","","","NaN",""
"","S1","","html-keyboard-response","279","380168","0.0-1.0-389.0","0","0","90378","","null","","","null","43","","","","","","","","","","","","","","","",""
"","ISI","","html-keyboard-response","280","381169","0.0-1.0-390.0","0","0","90378","","null","","","null","43","NaN","","","","","","","","","","","","","","",""
"","S2","","html-keyboard-response","281","381422","0.0-1.0-391.0","0","0","90378","","null","","","null","43","","NaN","","","","","","","","","","","","","",""
"","response","","html-keyboard-response","282","382060","0.0-1.0-392.0-0.0","0","0","90378","","638","","","75","43","","","1","43","training","adjacent","DC","4","3","L.jpg","P.jpg","0","0","1","",""
"","feedback","","html-keyboard-response","283","383063","0.0-1.0-393.0-0.0","0","0","90378","","null","","","null","43","","","","","","","","","","","","","","","",""
"","ITI","","html-keyboard-response","284","384065","0.0-1.0-396.0","0","0","90378","","null","","","null","43","","","","","","","","","","","","","","","NaN",""
"","S1","","html-keyboard-response","285","384318","0.0-1.0-398.0","0","0","90378","","null","","","null","44","","","","","","","","","","","","","","","",""
"","ISI","","html-keyboard-response","286","385320","0.0-1.0-399.0","0","0","90378","","null","","","null","44","NaN","","","","","","","","","","","","","","",""
"","S2","","html-keyboard-response","287","385572","0.0-1.0-400.0","0","0","90378","","null","","","null","44","","NaN","","","","","","","","","","","","","",""
"","response","","html-keyboard-response","288","385995","0.0-1.0-401.0-0.0","0","0","90378","","421","","","75","44","","","1","44","training","adjacent","DC","4","3","L.jpg","P.jpg","0","0","1","",""
"","feedback","","html-keyboard-response","289","386997","0.0-1.0-402.0-0.0","0","0","90378","","null","","","null","44","","","","","","","","","","","","","","","",""
"","ITI","","html-keyboard-response","290","388000","0.0-1.0-405.0","0","0","90378","","null","","","null","44","","","","","","","","","","","","","","","NaN",""
"","S1","","html-keyboard-response","291","388252","0.0-1.0-407.0","0","0","90378","","null","","","null","45","","","","","","","","","","","","","","","",""
"","ISI","","html-keyboard-response","292","389254","0.0-1.0-408.0","0","0","90378","","null","","","null","45","NaN","","","","","","","","","","","","","","",""
"","S2","","html-keyboard-response","293","389507","0.0-1.0-409.0","0","0","90378","","null","","","null","45","","NaN","","","","","","","","","","","","","",""
"","response","","html-keyboard-response","294","389757","0.0-1.0-410.0-0.0","0","0","90378","","249","","","68","45","","","1","45","training","adjacent","ED","5","4","M.jpg","L.jpg","1","0","0","",""
"","feedback","","html-keyboard-response","295","390759","0.0-1.0-411.0-0.0","0","0","90378","","null","","","null","45","","","","","","","","","","","","","","","",""
"","time_out","","html-keyboard-response","296","392762","0.0-1.0-413.0-0.0","0","0","90378","","null","","","null","45","","","","","","","","","","","","","","","",""
"","ITI","","html-keyboard-response","297","393764","0.0-1.0-414.0","0","0","90378","","null","","","null","45","","","","","","","","","","","","","","","NaN",""
"","S1","","html-keyboard-response","298","394016","0.0-1.0-416.0","0","0","90378","","null","","","null","46","","","","","","","","","","","","","","","",""
"","ISI","","html-keyboard-response","299","395018","0.0-1.0-417.0","0","0","90378","","null","","","null","46","NaN","","","","","","","","","","","","","","",""
"","S2","","html-keyboard-response","300","395270","0.0-1.0-418.0","0","0","90378","","null","","","null","46","","NaN","","","","","","","","","","","","","",""
"","response","","html-keyboard-response","301","395551","0.0-1.0-419.0-0.0","0","0","90378","","280","","","75","46","","","1","46","training","adjacent","FE","6","5","N.jpg","M.jpg","0","0","1","",""
"","feedback","","html-keyboard-response","302","396554","0.0-1.0-420.0-0.0","0","0","90378","","null","","","null","46","","","","","","","","","","","","","","","",""
"","ITI","","html-keyboard-response","303","397556","0.0-1.0-423.0","0","0","90378","","null","","","null","46","","","","","","","","","","","","","","","NaN",""
"","S1","","html-keyboard-response","304","397808","0.0-1.0-425.0","0","0","90378","","null","","","null","47","","","","","","","","","","","","","","","",""
"","ISI","","html-keyboard-response","305","398811","0.0-1.0-426.0","0","0","90378","","null","","","null","47","NaN","","","","","","","","","","","","","","",""
"","S2","","html-keyboard-response","306","399070","0.0-1.0-427.0","0","0","90378","","null","","","null","47","","NaN","","","","","","","","","","","","","",""
"","response","","html-keyboard-response","307","399684","0.0-1.0-428.0-0.0","0","0","90378","","613","","","68","47","","","1","47","training","adjacent","GF","7","6","Q.jpg","N.jpg","1","0","0","",""
"","feedback","","html-keyboard-response","308","400687","0.0-1.0-429.0-0.0","0","0","90378","","null","","","null","47","","","","","","","","","","","","","","","",""
"","time_out","","html-keyboard-response","309","402690","0.0-1.0-431.0-0.0","0","0","90378","","null","","","null","47","","","","","","","","","","","","","","","",""
"","ITI","","html-keyboard-response","310","403691","0.0-1.0-432.0","0","0","90378","","null","","","null","47","","","","","","","","","","","","","","","NaN",""
"","block_over","","html-keyboard-response","311","427393","0.0-1.0-433.0-0.0","0","0","90378","","23700","","","32","47","","","","","","","","","","","","","","","",""
"","S1","","html-keyboard-response","312","427646","0.0-1.0-434.0","0","0","90378","","null","","","null","48","","","","","","","","","","","","","","","",""
"","ISI","","html-keyboard-response","313","428649","0.0-1.0-435.0","0","0","90378","","null","","","null","48","NaN","","","","","","","","","","","","","","",""
"","S2","","html-keyboard-response","314","428902","0.0-1.0-436.0","0","0","90378","","null","","","null","48","","NaN","","","","","","","","","","","","","",""
"","response","","html-keyboard-response","315","429409","0.0-1.0-437.0-0.0","0","0","90378","","505","","","75","48","","","2","48","training","adjacent","DC","4","3","L.jpg","P.jpg","0","0","1","",""
"","feedback","","html-keyboard-response","316","430411","0.0-1.0-438.0-0.0","0","0","90378","","null","","","null","48","","","","","","","","","","","","","","","",""
"","ITI","","html-keyboard-response","317","431414","0.0-1.0-441.0","0","0","90378","","null","","","null","48","","","","","","","","","","","","","","","NaN",""
"","S1","","html-keyboard-response","318","431666","0.0-1.0-443.0","0","0","90378","","null","","","null","49","","","","","","","","","","","","","","","",""
"","ISI","","html-keyboard-response","319","432668","0.0-1.0-444.0","0","0","90378","","null","","","null","49","NaN","","","","","","","","","","","","","","",""
"","S2","","html-keyboard-response","320","432921","0.0-1.0-445.0","0","0","90378","","null","","","null","49","","NaN","","","","","","","","","","","","","",""
"","response","","html-keyboard-response","321","433098","0.0-1.0-446.0-0.0","0","0","90378","","177","","","68","49","","","2","49","training","adjacent","AB","1","2","O.jpg","R.jpg","1","1","1","",""
"","feedback","","html-keyboard-response","322","434101","0.0-1.0-447.0-0.0","0","0","90378","","null","","","null","49","","","","","","","","","","","","","","","",""
"","ITI","","html-keyboard-response","323","435103","0.0-1.0-450.0","0","0","90378","","null","","","null","49","","","","","","","","","","","","","","","NaN",""
"","S1","","html-keyboard-response","324","435358","0.0-1.0-452.0","0","0","90378","","null","","","null","50","","","","","","","","","","","","","","","",""
"","ISI","","html-keyboard-response","325","436360","0.0-1.0-453.0","0","0","90378","","null","","","null","50","NaN","","","","","","","","","","","","","","",""
"","S2","","html-keyboard-response","326","436613","0.0-1.0-454.0","0","0","90378","","null","","","null","50","","NaN","","","","","","","","","","","","","",""
"","response","","html-keyboard-response","327","437189","0.0-1.0-455.0-0.0","0","0","90378","","575","","","68","50","","","2","50","training","adjacent","CB","3","2","P.jpg","R.jpg","1","0","0","",""
"","feedback","","html-keyboard-response","328","438193","0.0-1.0-456.0-0.0","0","0","90378","","null","","","null","50","","","","","","","","","","","","","","","",""
"","time_out","","html-keyboard-response","329","440195","0.0-1.0-458.0-0.0","0","0","90378","","null","","","null","50","","","","","","","","","","","","","","","",""
"","ITI","","html-keyboard-response","330","441197","0.0-1.0-459.0","0","0","90378","","null","","","null","50","","","","","","","","","","","","","","","NaN",""
"","S1","","html-keyboard-response","331","441449","0.0-1.0-461.0","0","0","90378","","null","","","null","51","","","","","","","","","","","","","","","",""
"","ISI","","html-keyboard-response","332","442451","0.0-1.0-462.0","0","0","90378","","null","","","null","51","NaN","","","","","","","","","","","","","","",""
"","S2","","html-keyboard-response","333","442703","0.0-1.0-463.0","0","0","90378","","null","","","null","51","","NaN","","","","","","","","","","","","","",""
"","response","","html-keyboard-response","334","443248","0.0-1.0-464.0-0.0","0","0","90378","","543","","","68","51","","","2","51","training","adjacent","BC","2","3","R.jpg","P.jpg","1","1","1","",""
"","feedback","","html-keyboard-response","335","444251","0.0-1.0-465.0-0.0","0","0","90378","","null","","","null","51","","","","","","","","","","","","","","","",""
"","ITI","","html-keyboard-response","336","445253","0.0-1.0-468.0","0","0","90378","","null","","","null","51","","","","","","","","","","","","","","","NaN",""
"","S1","","html-keyboard-response","337","445506","0.0-1.0-470.0","0","0","90378","","null","","","null","52","","","","","","","","","","","","","","","",""
"","ISI","","html-keyboard-response","338","446509","0.0-1.0-471.0","0","0","90378","","null","","","null","52","NaN","","","","","","","","","","","","","","",""
"","S2","","html-keyboard-response","339","446761","0.0-1.0-472.0","0","0","90378","","null","","","null","52","","NaN","","","","","","","","","","","","","",""
"","response","","html-keyboard-response","340","447232","0.0-1.0-473.0-0.0","0","0","90378","","470","","","68","52","","","2","52","training","adjacent","BC","2","3","R.jpg","P.jpg","1","1","1","",""
"","feedback","","html-keyboard-response","341","448234","0.0-1.0-474.0-0.0","0","0","90378","","null","","","null","52","","","","","","","","","","","","","","","",""
"","ITI","","html-keyboard-response","342","449237","0.0-1.0-477.0","0","0","90378","","null","","","null","52","","","","","","","","","","","","","","","NaN",""
"","S1","","html-keyboard-response","343","449490","0.0-1.0-479.0","0","0","90378","","null","","","null","53","","","","","","","","","","","","","","","",""
"","ISI","","html-keyboard-response","344","450493","0.0-1.0-480.0","0","0","90378","","null","","","null","53","NaN","","","","","","","","","","","","","","",""
"","S2","","html-keyboard-response","345","450745","0.0-1.0-481.0","0","0","90378","","null","","","null","53","","NaN","","","","","","","","","","","","","",""
"","response","","html-keyboard-response","346","451417","0.0-1.0-482.0-0.0","0","0","90378","","670","","","75","53","","","2","53","training","adjacent","DC","4","3","L.jpg","P.jpg","0","0","1","",""
"","feedback","","html-keyboard-response","347","452419","0.0-1.0-483.0-0.0","0","0","90378","","null","","","null","53","","","","","","","","","","","","","","","",""
"","ITI","","html-keyboard-response","348","453435","0.0-1.0-486.0","0","0","90378","","null","","","null","53","","","","","","","","","","","","","","","NaN",""
"","S1","","html-keyboard-response","349","453686","0.0-1.0-488.0","0","0","90378","","null","","","null","54","","","","","","","","","","","","","","","",""
"","ISI","","html-keyboard-response","350","454689","0.0-1.0-489.0","0","0","90378","","null","","","null","54","NaN","","","","","","","","","","","","","","",""
"","S2","","html-keyboard-response","351","454941","0.0-1.0-490.0","0","0","90378","","null","","","null","54","","NaN","","","","","","","","","","","","","",""
"","response","","html-keyboard-response","352","455272","0.0-1.0-491.0-0.0","0","0","90378","","329","","","75","54","","","2","54","training","adjacent","FG","6","7","N.jpg","Q.jpg","0","1","0","",""
"","feedback","","html-keyboard-response","353","456274","0.0-1.0-492.0-0.0","0","0","90378","","null","","","null","54","","","","","","","","","","","","","","","",""
"","time_out","","html-keyboard-response","354","458277","0.0-1.0-494.0-0.0","0","0","90378","","null","","","null","54","","","","","","","","","","","","","","","",""
"","ITI","","html-keyboard-response","355","459279","0.0-1.0-495.0","0","0","90378","","null","","","null","54","","","","","","","","","","","","","","","NaN",""
"","S1","","html-keyboard-response","356","459532","0.0-1.0-497.0","0","0","90378","","null","","","null","55","","","","","","","","","","","","","","","",""
"","ISI","","html-keyboard-response","357","460535","0.0-1.0-498.0","0","0","90378","","null","","","null","55","NaN","","","","","","","","","","","","","","",""
"","S2","","html-keyboard-response","358","460786","0.0-1.0-499.0","0","0","90378","","null","","","null","55","","NaN","","","","","","","","","","","","","",""
"","response","","html-keyboard-response","359","461068","0.0-1.0-500.0-0.0","0","0","90378","","280","","","68","55","","","2","55","training","adjacent","AB","1","2","O.jpg","R.jpg","1","1","1","",""
"","feedback","","html-keyboard-response","360","462071","0.0-1.0-501.0-0.0","0","0","90378","","null","","","null","55","","","","","","","","","","","","","","","",""
"","ITI","","html-keyboard-response","361","463073","0.0-1.0-504.0","0","0","90378","","null","","","null","55","","","","","","","","","","","","","","","NaN",""
"","S1","","html-keyboard-response","362","463325","0.0-1.0-506.0","0","0","90378","","null","","","null","56","","","","","","","","","","","","","","","",""
"","ISI","","html-keyboard-response","363","464327","0.0-1.0-507.0","0","0","90378","","null","","","null","56","NaN","","","","","","","","","","","","","","",""
"","S2","","html-keyboard-response","364","464581","0.0-1.0-508.0","0","0","90378","","null","","","null","56","","NaN","","","","","","","","","","","","","",""
"","response","","html-keyboard-response","365","464863","0.0-1.0-509.0-0.0","0","0","90378","","282","","","68","56","","","2","56","training","adjacent","ED","5","4","M.jpg","L.jpg","1","0","0","",""
"","feedback","","html-keyboard-response","366","465866","0.0-1.0-510.0-0.0","0","0","90378","","null","","","null","56","","","","","","","","","","","","","","","",""
"","time_out","","html-keyboard-response","367","467870","0.0-1.0-512.0-0.0","0","0","90378","","null","","","null","56","","","","","","","","","","","","","","","",""
"","ITI","","html-keyboard-response","368","468872","0.0-1.0-513.0","0","0","90378","","null","","","null","56","","","","","","","","","","","","","","","NaN",""
"","S1","","html-keyboard-response","369","469125","0.0-1.0-515.0","0","0","90378","","null","","","null","57","","","","","","","","","","","","","","","",""
"","ISI","","html-keyboard-response","370","470127","0.0-1.0-516.0","0","0","90378","","null","","","null","57","NaN","","","","","","","","","","","","","","",""
"","S2","","html-keyboard-response","371","470379","0.0-1.0-517.0","0","0","90378","","null","","","null","57","","NaN","","","","","","","","","","","","","",""
"","response","","html-keyboard-response","372","471200","0.0-1.0-518.0-0.0","0","0","90378","","820","","","75","57","","","2","57","training","adjacent","DC","4","3","L.jpg","P.jpg","0","0","1","",""
"","feedback","","html-keyboard-response","373","472203","0.0-1.0-519.0-0.0","0","0","90378","","null","","","null","57","","","","","","","","","","","","","","","",""
"","ITI","","html-keyboard-response","374","473205","0.0-1.0-522.0","0","0","90378","","null","","","null","57","","","","","","","","","","","","","","","NaN",""
"","S1","","html-keyboard-response","375","473457","0.0-1.0-524.0","0","0","90378","","null","","","null","58","","","","","","","","","","","","","","","",""
"","ISI","","html-keyboard-response","376","474460","0.0-1.0-525.0","0","0","90378","","null","","","null","58","NaN","","","","","","","","","","","","","","",""
"","S2","","html-keyboard-response","377","474719","0.0-1.0-526.0","0","0","90378","","null","","","null","58","","NaN","","","","","","","","","","","","","",""
"","response","","html-keyboard-response","378","475026","0.0-1.0-527.0-0.0","0","0","90378","","305","","","75","58","","","2","58","training","adjacent","FE","6","5","N.jpg","M.jpg","0","0","1","",""
"","feedback","","html-keyboard-response","379","476030","0.0-1.0-528.0-0.0","0","0","90378","","null","","","null","58","","","","","","","","","","","","","","","",""
"","ITI","","html-keyboard-response","380","477032","0.0-1.0-531.0","0","0","90378","","null","","","null","58","","","","","","","","","","","","","","","NaN",""
"","S1","","html-keyboard-response","381","477284","0.0-1.0-533.0","0","0","90378","","null","","","null","59","","","","","","","","","","","","","","","",""
"","ISI","","html-keyboard-response","382","478296","0.0-1.0-534.0","0","0","90378","","null","","","null","59","NaN","","","","","","","","","","","","","","",""
"","S2","","html-keyboard-response","383","478549","0.0-1.0-535.0","0","0","90378","","null","","","null","59","","NaN","","","","","","","","","","","","","",""
"","response","","html-keyboard-response","384","479233","0.0-1.0-536.0-0.0","0","0","90378","","683","","","68","59","","","2","59","training","adjacent","BA","2","1","R.jpg","O.jpg","1","0","0","",""
"","feedback","","html-keyboard-response","385","480235","0.0-1.0-537.0-0.0","0","0","90378","","null","","","null","59","","","","","","","","","","","","","","","",""
"","time_out","","html-keyboard-response","386","482238","0.0-1.0-539.0-0.0","0","0","90378","","null","","","null","59","","","","","","","","","","","","","","","",""
"","ITI","","html-keyboard-response","387","483240","0.0-1.0-540.0","0","0","90378","","null","","","null","59","","","","","","","","","","","","","","","NaN",""
"","S1","","html-keyboard-response","388","483492","0.0-1.0-542.0","0","0","90378","","null","","","null","60","","","","","","","","","","","","","","","",""
"","ISI","","html-keyboard-response","389","484507","0.0-1.0-543.0","0","0","90378","","null","","","null","60","NaN","","","","","","","","","","","","","","",""
"","S2","","html-keyboard-response","390","484759","0.0-1.0-544.0","0","0","90378","","null","","","null","60","","NaN","","","","","","","","","","","","","",""
"","response","","html-keyboard-response","391","485485","0.0-1.0-545.0-0.0","0","0","90378","","725","","","75","60","","","2","60","training","adjacent","BA","2","1","R.jpg","O.jpg","0","0","1","",""
"","feedback","","html-keyboard-response","392","486488","0.0-1.0-546.0-0.0","0","0","90378","","null","","","null","60","","","","","","","","","","","","","","","",""
"","ITI","","html-keyboard-response","393","487491","0.0-1.0-549.0","0","0","90378","","null","","","null","60","","","","","","","","","","","","","","","NaN",""
"","S1","","html-keyboard-response","394","487745","0.0-1.0-551.0","0","0","90378","","null","","","null","61","","","","","","","","","","","","","","","",""
"","ISI","","html-keyboard-response","395","488747","0.0-1.0-552.0","0","0","90378","","null","","","null","61","NaN","","","","","","","","","","","","","","",""
"","S2","","html-keyboard-response","396","489000","0.0-1.0-553.0","0","0","90378","","null","","","null","61","","NaN","","","","","","","","","","","","","",""
"","response","","html-keyboard-response","397","489680","0.0-1.0-554.0-0.0","0","0","90378","","679","","","68","61","","","2","61","training","adjacent","DE","4","5","L.jpg","M.jpg","1","1","1","",""
"","feedback","","html-keyboard-response","398","490683","0.0-1.0-555.0-0.0","0","0","90378","","null","","","null","61","","","","","","","","","","","","","","","",""
"","ITI","","html-keyboard-response","399","491685","0.0-1.0-558.0","0","0","90378","","null","","","null","61","","","","","","","","","","","","","","","NaN",""
"","S1","","html-keyboard-response","400","491937","0.0-1.0-560.0","0","0","90378","","null","","","null","62","","","","","","","","","","","","","","","",""
"","ISI","","html-keyboard-response","401","492939","0.0-1.0-561.0","0","0","90378","","null","","","null","62","NaN","","","","","","","","","","","","","","",""
"","S2","","html-keyboard-response","402","493192","0.0-1.0-562.0","0","0","90378","","null","","","null","62","","NaN","","","","","","","","","","","","","",""
"","response","","html-keyboard-response","403","493544","0.0-1.0-563.0-0.0","0","0","90378","","351","","","68","62","","","2","62","training","adjacent","GF","7","6","Q.jpg","N.jpg","1","0","0","",""
"","feedback","","html-keyboard-response","404","494560","0.0-1.0-564.0-0.0","0","0","90378","","null","","","null","62","","","","","","","","","","","","","","","",""
"","time_out","","html-keyboard-response","405","496561","0.0-1.0-566.0-0.0","0","0","90378","","null","","","null","62","","","","","","","","","","","","","","","",""
"","ITI","","html-keyboard-response","406","497564","0.0-1.0-567.0","0","0","90378","","null","","","null","62","","","","","","","","","","","","","","","NaN",""
"","S1","","html-keyboard-response","407","497816","0.0-1.0-569.0","0","0","90378","","null","","","null","63","","","","","","","","","","","","","","","",""
"","ISI","","html-keyboard-response","408","498819","0.0-1.0-570.0","0","0","90378","","null","","","null","63","NaN","","","","","","","","","","","","","","",""
"","S2","","html-keyboard-response","409","499071","0.0-1.0-571.0","0","0","90378","","null","","","null","63","","NaN","","","","","","","","","","","","","",""
"","response","","html-keyboard-response","410","499746","0.0-1.0-572.0-0.0","0","0","90378","","675","","","75","63","","","2","63","training","adjacent","ED","5","4","M.jpg","L.jpg","0","0","1","",""
"","feedback","","html-keyboard-response","411","500750","0.0-1.0-573.0-0.0","0","0","90378","","null","","","null","63","","","","","","","","","","","","","","","",""
"","ITI","","html-keyboard-response","412","501752","0.0-1.0-576.0","0","0","90378","","null","","","null","63","","","","","","","","","","","","","","","NaN",""
"","S1","","html-keyboard-response","413","502005","0.0-1.0-578.0","0","0","90378","","null","","","null","64","","","","","","","","","","","","","","","",""
"","ISI","","html-keyboard-response","414","503007","0.0-1.0-579.0","0","0","90378","","null","","","null","64","NaN","","","","","","","","","","","","","","",""
"","S2","","html-keyboard-response","415","503260","0.0-1.0-580.0","0","0","90378","","null","","","null","64","","NaN","","","","","","","","","","","","","",""
"","response","","html-keyboard-response","416","503813","0.0-1.0-581.0-0.0","0","0","90378","","551","","","75","64","","","2","64","training","adjacent","BC","2","3","R.jpg","P.jpg","0","1","0","",""
"","feedback","","html-keyboard-response","417","504816","0.0-1.0-582.0-0.0","0","0","90378","","null","","","null","64","","","","","","","","","","","","","","","",""
"","time_out","","html-keyboard-response","418","506818","0.0-1.0-584.0-0.0","0","0","90378","","null","","","null","64","","","","","","","","","","","","","","","",""
"","ITI","","html-keyboard-response","419","507821","0.0-1.0-585.0","0","0","90378","","null","","","null","64","","","","","","","","","","","","","","","NaN",""
"","S1","","html-keyboard-response","420","508074","0.0-1.0-587.0","0","0","90378","","null","","","null","65","","","","","","","","","","","","","","","",""
"","ISI","","html-keyboard-response","421","509086","0.0-1.0-588.0","0","0","90378","","null","","","null","65","NaN","","","","","","","","","","","","","","",""
"","S2","","html-keyboard-response","422","509339","0.0-1.0-589.0","0","0","90378","","null","","","null","65","","NaN","","","","","","","","","","","","","",""
"","response","","html-keyboard-response","423","509979","0.0-1.0-590.0-0.0","0","0","90378","","639","","","68","65","","","2","65","training","adjacent","CD","3","4","P.jpg","L.jpg","1","1","1","",""
"","feedback","","html-keyboard-response","424","510981","0.0-1.0-591.0-0.0","0","0","90378","","null","","","null","65","","","","","","","","","","","","","","","",""
"","ITI","","html-keyboard-response","425","511983","0.0-1.0-594.0","0","0","90378","","null","","","null","65","","","","","","","","","","","","","","","NaN",""
"","S1","","html-keyboard-response","426","512236","0.0-1.0-596.0","0","0","90378","","null","","","null","66","","","","","","","","","","","","","","","",""
"","ISI","","html-keyboard-response","427","513237","0.0-1.0-597.0","0","0","90378","","null","","","null","66","NaN","","","","","","","","","","","","","","",""
"","S2","","html-keyboard-response","428","513489","0.0-1.0-598.0","0","0","90378","","null","","","null","66","","NaN","","","","","","","","","","","","","",""
"","response","","html-keyboard-response","429","513867","0.0-1.0-599.0-0.0","0","0","90378","","377","","","68","66","","","2","66","training","adjacent","CD","3","4","P.jpg","L.jpg","1","1","1","",""
"","feedback","","html-keyboard-response","430","514868","0.0-1.0-600.0-0.0","0","0","90378","","null","","","null","66","","","","","","","","","","","","","","","",""
"","ITI","","html-keyboard-response","431","515871","0.0-1.0-603.0","0","0","90378","","null","","","null","66","","","","","","","","","","","","","","","NaN",""
"","S1","","html-keyboard-response","432","516123","0.0-1.0-605.0","0","0","90378","","null","","","null","67","","","","","","","","","","","","","","","",""
"","ISI","","html-keyboard-response","433","517140","0.0-1.0-606.0","0","0","90378","","null","","","null","67","NaN","","","","","","","","","","","","","","",""
"","S2","","html-keyboard-response","434","517405","0.0-1.0-607.0","0","0","90378","","null","","","null","67","","NaN","","","","","","","","","","","","","",""
"","response","","html-keyboard-response","435","518069","0.0-1.0-608.0-0.0","0","0","90378","","662","","","68","67","","","2","67","training","adjacent","CB","3","2","P.jpg","R.jpg","1","0","0","",""
"","feedback","","html-keyboard-response","436","519072","0.0-1.0-609.0-0.0","0","0","90378","","null","","","null","67","","","","","","","","","","","","","","","",""
"","time_out","","html-keyboard-response","437","521082","0.0-1.0-611.0-0.0","0","0","90378","","null","","","null","67","","","","","","","","","","","","","","","",""
"","ITI","","html-keyboard-response","438","522084","0.0-1.0-612.0","0","0","90378","","null","","","null","67","","","","","","","","","","","","","","","NaN",""
"","S1","","html-keyboard-response","439","522336","0.0-1.0-614.0","0","0","90378","","null","","","null","68","","","","","","","","","","","","","","","",""
"","ISI","","html-keyboard-response","440","523338","0.0-1.0-615.0","0","0","90378","","null","","","null","68","NaN","","","","","","","","","","","","","","",""
"","S2","","html-keyboard-response","441","523591","0.0-1.0-616.0","0","0","90378","","null","","","null","68","","NaN","","","","","","","","","","","","","",""
"","response","","html-keyboard-response","442","524251","0.0-1.0-617.0-0.0","0","0","90378","","659","","","75","68","","","2","68","training","adjacent","BA","2","1","R.jpg","O.jpg","0","0","1","",""
"","feedback","","html-keyboard-response","443","525253","0.0-1.0-618.0-0.0","0","0","90378","","null","","","null","68","","","","","","","","","","","","","","","",""
"","ITI","","html-keyboard-response","444","526256","0.0-1.0-621.0","0","0","90378","","null","","","null","68","","","","","","","","","","","","","","","NaN",""
"","S1","","html-keyboard-response","445","526508","0.0-1.0-623.0","0","0","90378","","null","","","null","69","","","","","","","","","","","","","","","",""
"","ISI","","html-keyboard-response","446","527514","0.0-1.0-624.0","0","0","90378","","null","","","null","69","NaN","","","","","","","","","","","","","","",""
"","S2","","html-keyboard-response","447","527767","0.0-1.0-625.0","0","0","90378","","null","","","null","69","","NaN","","","","","","","","","","","","","",""
"","response","","html-keyboard-response","448","528465","0.0-1.0-626.0-0.0","0","0","90378","","697","","","75","69","","","2","69","training","adjacent","ED","5","4","M.jpg","L.jpg","0","0","1","",""
"","feedback","","html-keyboard-response","449","529468","0.0-1.0-627.0-0.0","0","0","90378","","null","","","null","69","","","","","","","","","","","","","","","",""
"","ITI","","html-keyboard-response","450","530471","0.0-1.0-630.0","0","0","90378","","null","","","null","69","","","","","","","","","","","","","","","NaN",""
"","S1","","html-keyboard-response","451","530723","0.0-1.0-632.0","0","0","90378","","null","","","null","70","","","","","","","","","","","","","","","",""
"","ISI","","html-keyboard-response","452","531726","0.0-1.0-633.0","0","0","90378","","null","","","null","70","NaN","","","","","","","","","","","","","","",""
"","S2","","html-keyboard-response","453","531977","0.0-1.0-634.0","0","0","90378","","null","","","null","70","","NaN","","","","","","","","","","","","","",""
"","response","","html-keyboard-response","454","532463","0.0-1.0-635.0-0.0","0","0","90378","","484","","","68","70","","","2","70","training","adjacent","FE","6","5","N.jpg","M.jpg","1","0","0","",""
"","feedback","","html-keyboard-response","455","533466","0.0-1.0-636.0-0.0","0","0","90378","","null","","","null","70","","","","","","","","","","","","","","","",""
"","time_out","","html-keyboard-response","456","535468","0.0-1.0-638.0-0.0","0","0","90378","","null","","","null","70","","","","","","","","","","","","","","","",""
"","ITI","","html-keyboard-response","457","536470","0.0-1.0-639.0","0","0","90378","","null","","","null","70","","","","","","","","","","","","","","","NaN",""
"","S1","","html-keyboard-response","458","536733","0.0-1.0-641.0","0","0","90378","","null","","","null","71","","","","","","","","","","","","","","","",""
"","ISI","","html-keyboard-response","459","537735","0.0-1.0-642.0","0","0","90378","","null","","","null","71","NaN","","","","","","","","","","","","","","",""
"","S2","","html-keyboard-response","460","537987","0.0-1.0-643.0","0","0","90378","","null","","","null","71","","NaN","","","","","","","","","","","","","",""
"","response","","html-keyboard-response","461","539136","0.0-1.0-644.0-0.0","0","0","90378","","1147","","","68","71","","","2","71","training","adjacent","FE","6","5","N.jpg","M.jpg","1","0","0","",""
"","feedback","","html-keyboard-response","462","540138","0.0-1.0-645.0-0.0","0","0","90378","","null","","","null","71","","","","","","","","","","","","","","","",""
"","time_out","","html-keyboard-response","463","542141","0.0-1.0-647.0-0.0","0","0","90378","","null","","","null","71","","","","","","","","","","","","","","","",""
"","ITI","","html-keyboard-response","464","543143","0.0-1.0-648.0","0","0","90378","","null","","","null","71","","","","","","","","","","","","","","","NaN",""
"","S1","","html-keyboard-response","465","543396","0.0-1.0-650.0","0","0","90378","","null","","","null","72","","","","","","","","","","","","","","","",""
"","ISI","","html-keyboard-response","466","544398","0.0-1.0-651.0","0","0","90378","","null","","","null","72","NaN","","","","","","","","","","","","","","",""
"","S2","","html-keyboard-response","467","544652","0.0-1.0-652.0","0","0","90378","","null","","","null","72","","NaN","","","","","","","","","","","","","",""
"","response","","html-keyboard-response","468","545007","0.0-1.0-653.0-0.0","0","0","90378","","353","","","68","72","","","2","72","training","adjacent","GF","7","6","Q.jpg","N.jpg","1","0","0","",""
"","feedback","","html-keyboard-response","469","546009","0.0-1.0-654.0-0.0","0","0","90378","","null","","","null","72","","","","","","","","","","","","","","","",""
"","time_out","","html-keyboard-response","470","548012","0.0-1.0-656.0-0.0","0","0","90378","","null","","","null","72","","","","","","","","","","","","","","","",""
"","ITI","","html-keyboard-response","471","549015","0.0-1.0-657.0","0","0","90378","","null","","","null","72","","","","","","","","","","","","","","","NaN",""
"","S1","","html-keyboard-response","472","549267","0.0-1.0-659.0","0","0","90378","","null","","","null","73","","","","","","","","","","","","","","","",""
"","ISI","","html-keyboard-response","473","550269","0.0-1.0-660.0","0","0","90378","","null","","","null","73","NaN","","","","","","","","","","","","","","",""
"","S2","","html-keyboard-response","474","550523","0.0-1.0-661.0","0","0","90378","","null","","","null","73","","NaN","","","","","","","","","","","","","",""
"","response","","html-keyboard-response","475","551752","0.0-1.0-662.0-0.0","0","0","90378","","1229","","","75","73","","","2","73","training","adjacent","FE","6","5","N.jpg","M.jpg","0","0","1","",""
"","feedback","","html-keyboard-response","476","552755","0.0-1.0-663.0-0.0","0","0","90378","","null","","","null","73","","","","","","","","","","","","","","","",""
"","ITI","","html-keyboard-response","477","553758","0.0-1.0-666.0","0","0","90378","","null","","","null","73","","","","","","","","","","","","","","","NaN",""
"","S1","","html-keyboard-response","478","554011","0.0-1.0-668.0","0","0","90378","","null","","","null","74","","","","","","","","","","","","","","","",""
"","ISI","","html-keyboard-response","479","555021","0.0-1.0-669.0","0","0","90378","","null","","","null","74","NaN","","","","","","","","","","","","","","",""
"","S2","","html-keyboard-response","480","555273","0.0-1.0-670.0","0","0","90378","","null","","","null","74","","NaN","","","","","","","","","","","","","",""
"","response","","html-keyboard-response","481","556364","0.0-1.0-671.0-0.0","0","0","90378","","1088","","","68","74","","","2","74","training","adjacent","DE","4","5","L.jpg","M.jpg","1","1","1","",""
"","feedback","","html-keyboard-response","482","557366","0.0-1.0-672.0-0.0","0","0","90378","","null","","","null","74","","","","","","","","","","","","","","","",""
"","ITI","","html-keyboard-response","483","558369","0.0-1.0-675.0","0","0","90378","","null","","","null","74","","","","","","","","","","","","","","","NaN",""
"","S1","","html-keyboard-response","484","558636","0.0-1.0-677.0","0","0","90378","","null","","","null","75","","","","","","","","","","","","","","","",""
"","ISI","","html-keyboard-response","485","559638","0.0-1.0-678.0","0","0","90378","","null","","","null","75","NaN","","","","","","","","","","","","","","",""
"","S2","","html-keyboard-response","486","559891","0.0-1.0-679.0","0","0","90378","","null","","","null","75","","NaN","","","","","","","","","","","","","",""
"","response","","html-keyboard-response","487","560600","0.0-1.0-680.0-0.0","0","0","90378","","708","","","75","75","","","2","75","training","adjacent","CB","3","2","P.jpg","R.jpg","0","0","1","",""
"","feedback","","html-keyboard-response","488","561602","0.0-1.0-681.0-0.0","0","0","90378","","null","","","null","75","","","","","","","","","","","","","","","",""
"","ITI","","html-keyboard-response","489","562604","0.0-1.0-684.0","0","0","90378","","null","","","null","75","","","","","","","","","","","","","","","NaN",""
"","S1","","html-keyboard-response","490","562856","0.0-1.0-686.0","0","0","90378","","null","","","null","76","","","","","","","","","","","","","","","",""
"","ISI","","html-keyboard-response","491","563859","0.0-1.0-687.0","0","0","90378","","null","","","null","76","NaN","","","","","","","","","","","","","","",""
"","S2","","html-keyboard-response","492","564111","0.0-1.0-688.0","0","0","90378","","null","","","null","76","","NaN","","","","","","","","","","","","","",""
"","response","","html-keyboard-response","493","565148","0.0-1.0-689.0-0.0","0","0","90378","","1036","","","68","76","","","2","76","training","adjacent","EF","5","6","M.jpg","N.jpg","1","1","1","",""
"","feedback","","html-keyboard-response","494","566150","0.0-1.0-690.0-0.0","0","0","90378","","null","","","null","76","","","","","","","","","","","","","","","",""
"","ITI","","html-keyboard-response","495","567152","0.0-1.0-693.0","0","0","90378","","null","","","null","76","","","","","","","","","","","","","","","NaN",""
"","S1","","html-keyboard-response","496","567405","0.0-1.0-695.0","0","0","90378","","null","","","null","77","","","","","","","","","","","","","","","",""
"","ISI","","html-keyboard-response","497","568407","0.0-1.0-696.0","0","0","90378","","null","","","null","77","NaN","","","","","","","","","","","","","","",""
"","S2","","html-keyboard-response","498","568660","0.0-1.0-697.0","0","0","90378","","null","","","null","77","","NaN","","","","","","","","","","","","","",""
"","response","","html-keyboard-response","499","569029","0.0-1.0-698.0-0.0","0","0","90378","","368","","","68","77","","","2","77","training","adjacent","GF","7","6","Q.jpg","N.jpg","1","0","0","",""
"","feedback","","html-keyboard-response","500","570032","0.0-1.0-699.0-0.0","0","0","90378","","null","","","null","77","","","","","","","","","","","","","","","",""
"","time_out","","html-keyboard-response","501","572035","0.0-1.0-701.0-0.0","0","0","90378","","null","","","null","77","","","","","","","","","","","","","","","",""
"","ITI","","html-keyboard-response","502","573037","0.0-1.0-702.0","0","0","90378","","null","","","null","77","","","","","","","","","","","","","","","NaN",""
"","S1","","html-keyboard-response","503","573288","0.0-1.0-704.0","0","0","90378","","null","","","null","78","","","","","","","","","","","","","","","",""
"","ISI","","html-keyboard-response","504","574291","0.0-1.0-705.0","0","0","90378","","null","","","null","78","NaN","","","","","","","","","","","","","","",""
"","S2","","html-keyboard-response","505","574544","0.0-1.0-706.0","0","0","90378","","null","","","null","78","","NaN","","","","","","","","","","","","","",""
"","response","","html-keyboard-response","506","574938","0.0-1.0-707.0-0.0","0","0","90378","","394","","","75","78","","","2","78","training","adjacent","BA","2","1","R.jpg","O.jpg","0","0","1","",""
"","feedback","","html-keyboard-response","507","575941","0.0-1.0-708.0-0.0","0","0","90378","","null","","","null","78","","","","","","","","","","","","","","","",""
"","ITI","","html-keyboard-response","508","576944","0.0-1.0-711.0","0","0","90378","","null","","","null","78","","","","","","","","","","","","","","","NaN",""
"","S1","","html-keyboard-response","509","577196","0.0-1.0-713.0","0","0","90378","","null","","","null","79","","","","","","","","","","","","","","","",""
"","ISI","","html-keyboard-response","510","578213","0.0-1.0-714.0","0","0","90378","","null","","","null","79","NaN","","","","","","","","","","","","","","",""
"","S2","","html-keyboard-response","511","578464","0.0-1.0-715.0","0","0","90378","","null","","","null","79","","NaN","","","","","","","","","","","","","",""
"","response","","html-keyboard-response","512","579237","0.0-1.0-716.0-0.0","0","0","90378","","771","","","68","79","","","2","79","training","adjacent","EF","5","6","M.jpg","N.jpg","1","1","1","",""
"","feedback","","html-keyboard-response","513","580239","0.0-1.0-717.0-0.0","0","0","90378","","null","","","null","79","","","","","","","","","","","","","","","",""
"","ITI","","html-keyboard-response","514","581242","0.0-1.0-720.0","0","0","90378","","null","","","null","79","","","","","","","","","","","","","","","NaN",""
"","S1","","html-keyboard-response","515","581494","0.0-1.0-722.0","0","0","90378","","null","","","null","80","","","","","","","","","","","","","","","",""
"","ISI","","html-keyboard-response","516","582497","0.0-1.0-723.0","0","0","90378","","null","","","null","80","NaN","","","","","","","","","","","","","","",""
"","S2","","html-keyboard-response","517","582750","0.0-1.0-724.0","0","0","90378","","null","","","null","80","","NaN","","","","","","","","","","","","","",""
"","response","","html-keyboard-response","518","583419","0.0-1.0-725.0-0.0","0","0","90378","","667","","","75","80","","","2","80","training","adjacent","FG","6","7","N.jpg","Q.jpg","0","1","0","",""
"","feedback","","html-keyboard-response","519","584421","0.0-1.0-726.0-0.0","0","0","90378","","null","","","null","80","","","","","","","","","","","","","","","",""
"","time_out","","html-keyboard-response","520","586424","0.0-1.0-728.0-0.0","0","0","90378","","null","","","null","80","","","","","","","","","","","","","","","",""
"","ITI","","html-keyboard-response","521","587426","0.0-1.0-729.0","0","0","90378","","null","","","null","80","","","","","","","","","","","","","","","NaN",""
"","S1","","html-keyboard-response","522","587679","0.0-1.0-731.0","0","0","90378","","null","","","null","81","","","","","","","","","","","","","","","",""
"","ISI","","html-keyboard-response","523","588682","0.0-1.0-732.0","0","0","90378","","null","","","null","81","NaN","","","","","","","","","","","","","","",""
"","S2","","html-keyboard-response","524","588934","0.0-1.0-733.0","0","0","90378","","null","","","null","81","","NaN","","","","","","","","","","","","","",""
"","response","","html-keyboard-response","525","589871","0.0-1.0-734.0-0.0","0","0","90378","","936","","","75","81","","","2","81","training","adjacent","DC","4","3","L.jpg","P.jpg","0","0","1","",""
"","feedback","","html-keyboard-response","526","590874","0.0-1.0-735.0-0.0","0","0","90378","","null","","","null","81","","","","","","","","","","","","","","","",""
"","ITI","","html-keyboard-response","527","591880","0.0-1.0-738.0","0","0","90378","","null","","","null","81","","","","","","","","","","","","","","","NaN",""
"","S1","","html-keyboard-response","528","592144","0.0-1.0-740.0","0","0","90378","","null","","","null","82","","","","","","","","","","","","","","","",""
"","ISI","","html-keyboard-response","529","593157","0.0-1.0-741.0","0","0","90378","","null","","","null","82","NaN","","","","","","","","","","","","","","",""
"","S2","","html-keyboard-response","530","593410","0.0-1.0-742.0","0","0","90378","","null","","","null","82","","NaN","","","","","","","","","","","","","",""
"","response","","html-keyboard-response","531","594316","0.0-1.0-743.0-0.0","0","0","90378","","906","","","68","82","","","2","82","training","adjacent","DE","4","5","L.jpg","M.jpg","1","1","1","",""
"","feedback","","html-keyboard-response","532","595319","0.0-1.0-744.0-0.0","0","0","90378","","null","","","null","82","","","","","","","","","","","","","","","",""
"","ITI","","html-keyboard-response","533","596322","0.0-1.0-747.0","0","0","90378","","null","","","null","82","","","","","","","","","","","","","","","NaN",""
"","S1","","html-keyboard-response","534","596574","0.0-1.0-749.0","0","0","90378","","null","","","null","83","","","","","","","","","","","","","","","",""
"","ISI","","html-keyboard-response","535","597576","0.0-1.0-750.0","0","0","90378","","null","","","null","83","NaN","","","","","","","","","","","","","","",""
"","S2","","html-keyboard-response","536","597828","0.0-1.0-751.0","0","0","90378","","null","","","null","83","","NaN","","","","","","","","","","","","","",""
"","response","","html-keyboard-response","537","598545","0.0-1.0-752.0-0.0","0","0","90378","","715","","","75","83","","","2","83","training","adjacent","CB","3","2","P.jpg","R.jpg","0","0","1","",""
"","feedback","","html-keyboard-response","538","599548","0.0-1.0-753.0-0.0","0","0","90378","","null","","","null","83","","","","","","","","","","","","","","","",""
"","ITI","","html-keyboard-response","539","600551","0.0-1.0-756.0","0","0","90378","","null","","","null","83","","","","","","","","","","","","","","","NaN",""
"","S1","","html-keyboard-response","540","600804","0.0-1.0-758.0","0","0","90378","","null","","","null","84","","","","","","","","","","","","","","","",""
"","ISI","","html-keyboard-response","541","601806","0.0-1.0-759.0","0","0","90378","","null","","","null","84","NaN","","","","","","","","","","","","","","",""
"","S2","","html-keyboard-response","542","602059","0.0-1.0-760.0","0","0","90378","","null","","","null","84","","NaN","","","","","","","","","","","","","",""
"","response","","html-keyboard-response","543","602994","0.0-1.0-761.0-0.0","0","0","90378","","934","","","75","84","","","2","84","training","adjacent","BC","2","3","R.jpg","P.jpg","0","1","0","",""
"","feedback","","html-keyboard-response","544","603997","0.0-1.0-762.0-0.0","0","0","90378","","null","","","null","84","","","","","","","","","","","","","","","",""
"","time_out","","html-keyboard-response","545","605999","0.0-1.0-764.0-0.0","0","0","90378","","null","","","null","84","","","","","","","","","","","","","","","",""
"","ITI","","html-keyboard-response","546","607001","0.0-1.0-765.0","0","0","90378","","null","","","null","84","","","","","","","","","","","","","","","NaN",""
"","S1","","html-keyboard-response","547","607253","0.0-1.0-767.0","0","0","90378","","null","","","null","85","","","","","","","","","","","","","","","",""
"","ISI","","html-keyboard-response","548","608255","0.0-1.0-768.0","0","0","90378","","null","","","null","85","NaN","","","","","","","","","","","","","","",""
"","S2","","html-keyboard-response","549","608508","0.0-1.0-769.0","0","0","90378","","null","","","null","85","","NaN","","","","","","","","","","","","","",""
"","response","","html-keyboard-response","550","609311","0.0-1.0-770.0-0.0","0","0","90378","","802","","","75","85","","","2","85","training","adjacent","DE","4","5","L.jpg","M.jpg","0","1","0","",""
"","feedback","","html-keyboard-response","551","610315","0.0-1.0-771.0-0.0","0","0","90378","","null","","","null","85","","","","","","","","","","","","","","","",""
"","time_out","","html-keyboard-response","552","612318","0.0-1.0-773.0-0.0","0","0","90378","","null","","","null","85","","","","","","","","","","","","","","","",""
"","ITI","","html-keyboard-response","553","613320","0.0-1.0-774.0","0","0","90378","","null","","","null","85","","","","","","","","","","","","","","","NaN",""
"","S1","","html-keyboard-response","554","613574","0.0-1.0-776.0","0","0","90378","","null","","","null","86","","","","","","","","","","","","","","","",""
"","ISI","","html-keyboard-response","555","614578","0.0-1.0-777.0","0","0","90378","","null","","","null","86","NaN","","","","","","","","","","","","","","",""
"","S2","","html-keyboard-response","556","614830","0.0-1.0-778.0","0","0","90378","","null","","","null","86","","NaN","","","","","","","","","","","","","",""
"","response","","html-keyboard-response","557","615209","0.0-1.0-779.0-0.0","0","0","90378","","375","","","68","86","","","2","86","training","adjacent","FG","6","7","N.jpg","Q.jpg","1","1","1","",""
"","feedback","","html-keyboard-response","558","616213","0.0-1.0-780.0-0.0","0","0","90378","","null","","","null","86","","","","","","","","","","","","","","","",""
"","ITI","","html-keyboard-response","559","617216","0.0-1.0-783.0","0","0","90378","","null","","","null","86","","","","","","","","","","","","","","","NaN",""
"","S1","","html-keyboard-response","560","617468","0.0-1.0-785.0","0","0","90378","","null","","","null","87","","","","","","","","","","","","","","","",""
"","ISI","","html-keyboard-response","561","618471","0.0-1.0-786.0","0","0","90378","","null","","","null","87","NaN","","","","","","","","","","","","","","",""
"","S2","","html-keyboard-response","562","618723","0.0-1.0-787.0","0","0","90378","","null","","","null","87","","NaN","","","","","","","","","","","","","",""
"","response","","html-keyboard-response","563","619308","0.0-1.0-788.0-0.0","0","0","90378","","583","","","68","87","","","2","87","training","adjacent","FG","6","7","N.jpg","Q.jpg","1","1","1","",""
"","feedback","","html-keyboard-response","564","620311","0.0-1.0-789.0-0.0","0","0","90378","","null","","","null","87","","","","","","","","","","","","","","","",""
"","ITI","","html-keyboard-response","565","621320","0.0-1.0-792.0","0","0","90378","","null","","","null","87","","","","","","","","","","","","","","","NaN",""
"","S1","","html-keyboard-response","566","621572","0.0-1.0-794.0","0","0","90378","","null","","","null","88","","","","","","","","","","","","","","","",""
"","ISI","","html-keyboard-response","567","622575","0.0-1.0-795.0","0","0","90378","","null","","","null","88","NaN","","","","","","","","","","","","","","",""
"","S2","","html-keyboard-response","568","622827","0.0-1.0-796.0","0","0","90378","","null","","","null","88","","NaN","","","","","","","","","","","","","",""
"","response","","html-keyboard-response","569","623047","0.0-1.0-797.0-0.0","0","0","90378","","218","","","68","88","","","2","88","training","adjacent","AB","1","2","O.jpg","R.jpg","1","1","1","",""
"","feedback","","html-keyboard-response","570","624049","0.0-1.0-798.0-0.0","0","0","90378","","null","","","null","88","","","","","","","","","","","","","","","",""
"","ITI","","html-keyboard-response","571","625052","0.0-1.0-801.0","0","0","90378","","null","","","null","88","","","","","","","","","","","","","","","NaN",""
"","S1","","html-keyboard-response","572","625304","0.0-1.0-803.0","0","0","90378","","null","","","null","89","","","","","","","","","","","","","","","",""
"","ISI","","html-keyboard-response","573","626307","0.0-1.0-804.0","0","0","90378","","null","","","null","89","NaN","","","","","","","","","","","","","","",""
"","S2","","html-keyboard-response","574","626559","0.0-1.0-805.0","0","0","90378","","null","","","null","89","","NaN","","","","","","","","","","","","","",""
"","response","","html-keyboard-response","575","627014","0.0-1.0-806.0-0.0","0","0","90378","","453","","","75","89","","","2","89","training","adjacent","EF","5","6","M.jpg","N.jpg","0","1","0","",""
"","feedback","","html-keyboard-response","576","628016","0.0-1.0-807.0-0.0","0","0","90378","","null","","","null","89","","","","","","","","","","","","","","","",""
"","time_out","","html-keyboard-response","577","630019","0.0-1.0-809.0-0.0","0","0","90378","","null","","","null","89","","","","","","","","","","","","","","","",""
"","ITI","","html-keyboard-response","578","631023","0.0-1.0-810.0","0","0","90378","","null","","","null","89","","","","","","","","","","","","","","","NaN",""
"","S1","","html-keyboard-response","579","631275","0.0-1.0-812.0","0","0","90378","","null","","","null","90","","","","","","","","","","","","","","","",""
"","ISI","","html-keyboard-response","580","632278","0.0-1.0-813.0","0","0","90378","","null","","","null","90","NaN","","","","","","","","","","","","","","",""
"","S2","","html-keyboard-response","581","632531","0.0-1.0-814.0","0","0","90378","","null","","","null","90","","NaN","","","","","","","","","","","","","",""
"","response","","html-keyboard-response","582","633560","0.0-1.0-815.0-0.0","0","0","90378","","1028","","","68","90","","","2","90","training","adjacent","ED","5","4","M.jpg","L.jpg","1","0","0","",""
