"success","ttype","start_time","trial_type","trial_index","time_elapsed","internal_node_id","warning","missed_checkup","PID","view_history","rt","responses","repeat_instructions","key_press","index","keypress_isi","keypress_S2","block","trial_num","phase","group_type","pair_type","S1_stim","S2_stim","S1_img","S2_img","S1_chosen","S1_higher","accuracy","keypress_iti","total_bonus_tally"
"true","full_screen","d08042022hr2154","fullscreen","0","10566","0.0-0.0","0","0","43986","","","","","","","","","","","","","","","","","","","","","",""
"","instructions","","instructions","1","58223","0.0-1.0-0.0-0.0","0","0","43986","[{""page_index"":0,""viewing_time"":6025},{""page_index"":1,""viewing_time"":26858},{""page_index"":2,""viewing_time"":13037},{""page_index"":3,""viewing_time"":1730}]","47654","","","","","","","","","","","","","","","","","","","",""
"","comprehension_check","","survey-multi-choice","2","77104","0.0-1.0-0.0-1.0","0","0","43986","","18870","{""Q0"":""True"",""Q1"":""D"",""Q2"":""Only when the screen 'MAKE A CHOICE' is shown"",""Q3"":""Green mark"",""Q4"":""either D or K""}","1","","","","","","","","","","","","","","","","","",""
"","missed_instruction_checkup","","html-keyboard-response","3","80406","0.0-1.0-0.0-2.0-0.0","0","1","43986","","3295","","","32","","","","","","","","","","","","","","","","",""
"","instructions","","instructions","4","101409","0.0-1.0-0.1-0.1","0","0","43986","[{""page_index"":0,""viewing_time"":9100},{""page_index"":1,""viewing_time"":6476},{""page_index"":2,""viewing_time"":3812},{""page_index"":3,""viewing_time"":1613}]","21001","","","","","","","","","","","","","","","","","","","",""
"","comprehension_check","","survey-multi-choice","5","121006","0.0-1.0-0.1-1.1","0","0","43986","","19590","{""Q0"":""True"",""Q1"":""D"",""Q2"":""Once the second image appears and while the screen 'MAKE A CHOICE' is shown"",""Q3"":""Green mark"",""Q4"":""either D or K""}","0","","","","","","","","","","","","","","","","","",""
"","start_exp","","html-keyboard-response","6","122267","0.0-1.0-1.0","0","0","43986","","1256","","","32","","","","","","","","","","","","","","","","",""
"","S1","","html-keyboard-response","7","122525","0.0-1.0-2.0","0","0","43986","","null","","","null","0","","","","","","","","","","","","","","","",""
"","ISI","","html-keyboard-response","8","124532","0.0-1.0-3.0","0","0","43986","","null","","","null","0","NaN","","","","","","","","","","","","","","",""
"","S2","","html-keyboard-response","9","124789","0.0-1.0-4.0","0","0","43986","","null","","","null","0","","NaN","","","","","","","","","","","","","",""
"","response","","html-keyboard-response","10","125528","0.0-1.0-5.0-0.0","0","0","43986","","737","","","75","0","","","1","0","training","adjacent","DC","4","3","N.jpg","Q.jpg","0","0","1","",""
"","feedback","","html-keyboard-response","11","126534","0.0-1.0-6.0-0.0","0","0","43986","","null","","","null","0","","","","","","","","","","","","","","","",""
"","ITI","","html-keyboard-response","12","127540","0.0-1.0-9.0","0","0","43986","","null","","","null","0","","","","","","","","","","","","","","","NaN",""
"","S1","","html-keyboard-response","13","127797","0.0-1.0-11.0","0","0","43986","","null","","","null","1","","","","","","","","","","","","","","","",""
"","ISI","","html-keyboard-response","14","129803","0.0-1.0-12.0","0","0","43986","","null","","","null","1","NaN","","","","","","","","","","","","","","",""
"","S2","","html-keyboard-response","15","130059","0.0-1.0-13.0","0","0","43986","","null","","","null","1","","NaN","","","","","","","","","","","","","",""
"","response","","html-keyboard-response","16","130548","0.0-1.0-14.0-0.0","0","0","43986","","487","","","68","1","","","1","1","training","adjacent","CB","3","2","Q.jpg","O.jpg","1","0","0","",""
"","feedback","","html-keyboard-response","17","131553","0.0-1.0-15.0-0.0","0","0","43986","","null","","","null","1","","","","","","","","","","","","","","","",""
"","time_out","","html-keyboard-response","18","133560","0.0-1.0-17.0-0.0","0","0","43986","","null","","","null","1","","","","","","","","","","","","","","","",""
"","ITI","","html-keyboard-response","19","134565","0.0-1.0-18.0","0","0","43986","","null","","","null","1","","","","","","","","","","","","","","","NaN",""
"","S1","","html-keyboard-response","20","134820","0.0-1.0-20.0","0","0","43986","","null","","","null","2","","","","","","","","","","","","","","","",""
"","ISI","","html-keyboard-response","21","136828","0.0-1.0-21.0","0","0","43986","","null","","","null","2","NaN","","","","","","","","","","","","","","",""
"","S2","","html-keyboard-response","22","137084","0.0-1.0-22.0","0","0","43986","","null","","","null","2","","NaN","","","","","","","","","","","","","",""
"","response","","html-keyboard-response","23","137412","0.0-1.0-23.0-0.0","0","0","43986","","327","","","75","2","","","1","2","training","adjacent","ED","5","4","L.jpg","N.jpg","0","0","1","",""
"","feedback","","html-keyboard-response","24","138425","0.0-1.0-24.0-0.0","0","0","43986","","null","","","null","2","","","","","","","","","","","","","","","",""
"","ITI","","html-keyboard-response","25","139432","0.0-1.0-27.0","0","0","43986","","null","","","null","2","","","","","","","","","","","","","","","NaN",""
"","S1","","html-keyboard-response","26","139690","0.0-1.0-29.0","0","0","43986","","null","","","null","3","","","","","","","","","","","","","","","",""
"","ISI","","html-keyboard-response","27","141697","0.0-1.0-30.0","0","0","43986","","null","","","null","3","NaN","","","","","","","","","","","","","","",""
"","S2","","html-keyboard-response","28","141954","0.0-1.0-31.0","0","0","43986","","null","","","null","3","","NaN","","","","","","","","","","","","","",""
"","response","","html-keyboard-response","29","142249","0.0-1.0-32.0-0.0","0","0","43986","","293","","","75","3","","","1","3","training","adjacent","EF","5","6","L.jpg","M.jpg","0","1","0","",""
"","feedback","","html-keyboard-response","30","143255","0.0-1.0-33.0-0.0","0","0","43986","","null","","","null","3","","","","","","","","","","","","","","","",""
"","time_out","","html-keyboard-response","31","145262","0.0-1.0-35.0-0.0","0","0","43986","","null","","","null","3","","","","","","","","","","","","","","","",""
"","ITI","","html-keyboard-response","32","146268","0.0-1.0-36.0","0","0","43986","","null","","","null","3","","","","","","","","","","","","","","","NaN",""
"","S1","","html-keyboard-response","33","146522","0.0-1.0-38.0","0","0","43986","","null","","","null","4","","","","","","","","","","","","","","","",""
"","ISI","","html-keyboard-response","34","148524","0.0-1.0-39.0","0","0","43986","","null","","","null","4","NaN","","","","","","","","","","","","","","",""
"","S2","","html-keyboard-response","35","148781","0.0-1.0-40.0","0","0","43986","","null","","","null","4","","NaN","","","","","","","","","","","","","",""
"","response","","html-keyboard-response","36","149242","0.0-1.0-41.0-0.0","0","0","43986","","459","","","68","4","","","1","4","training","adjacent","DC","4","3","N.jpg","Q.jpg","1","0","0","",""
"","feedback","","html-keyboard-response","37","150247","0.0-1.0-42.0-0.0","0","0","43986","","null","","","null","4","","","","","","","","","","","","","","","",""
"","time_out","","html-keyboard-response","38","152252","0.0-1.0-44.0-0.0","0","0","43986","","null","","","null","4","","","","","","","","","","","","","","","",""
"","ITI","","html-keyboard-response","39","153256","0.0-1.0-45.0","0","0","43986","","null","","","null","4","","","","","","","","","","","","","","","NaN",""
"","S1","","html-keyboard-response","40","153512","0.0-1.0-47.0","0","0","43986","","null","","","null","5","","","","","","","","","","","","","","","",""
"","ISI","","html-keyboard-response","41","155516","0.0-1.0-48.0","0","0","43986","","null","","","null","5","NaN","","","","","","","","","","","","","","",""
"","S2","","html-keyboard-response","42","155770","0.0-1.0-49.0","0","0","43986","","null","","","null","5","","NaN","","","","","","","","","","","","","",""
"","response","","html-keyboard-response","43","156065","0.0-1.0-50.0-0.0","0","0","43986","","292","","","75","5","","","1","5","training","adjacent","AB","1","2","P.jpg","O.jpg","0","1","0","",""
"","feedback","","html-keyboard-response","44","157070","0.0-1.0-51.0-0.0","0","0","43986","","null","","","null","5","","","","","","","","","","","","","","","",""
"","time_out","","html-keyboard-response","45","159072","0.0-1.0-53.0-0.0","0","0","43986","","null","","","null","5","","","","","","","","","","","","","","","",""
"","ITI","","html-keyboard-response","46","160088","0.0-1.0-54.0","0","0","43986","","null","","","null","5","","","","","","","","","","","","","","","NaN",""
"","S1","","html-keyboard-response","47","160340","0.0-1.0-56.0","0","0","43986","","null","","","null","6","","","","","","","","","","","","","","","",""
"","ISI","","html-keyboard-response","48","162345","0.0-1.0-57.0","0","0","43986","","null","","","null","6","NaN","","","","","","","","","","","","","","",""
"","S2","","html-keyboard-response","49","162603","0.0-1.0-58.0","0","0","43986","","null","","","null","6","","NaN","","","","","","","","","","","","","",""
"","response","","html-keyboard-response","50","162962","0.0-1.0-59.0-0.0","0","0","43986","","357","","","75","6","","","1","6","training","adjacent","BA","2","1","O.jpg","P.jpg","0","0","1","",""
"","feedback","","html-keyboard-response","51","163972","0.0-1.0-60.0-0.0","0","0","43986","","null","","","null","6","","","","","","","","","","","","","","","",""
"","ITI","","html-keyboard-response","52","164976","0.0-1.0-63.0","0","0","43986","","null","","","null","6","","","","","","","","","","","","","","","NaN",""
"","S1","","html-keyboard-response","53","165231","0.0-1.0-65.0","0","0","43986","","null","","","null","7","","","","","","","","","","","","","","","",""
"","ISI","","html-keyboard-response","54","167234","0.0-1.0-66.0","0","0","43986","","null","","","null","7","NaN","","","","","","","","","","","","","","",""
"","S2","","html-keyboard-response","55","167490","0.0-1.0-67.0","0","0","43986","","null","","","null","7","","NaN","","","","","","","","","","","","","",""
"","response","","html-keyboard-response","56","167855","0.0-1.0-68.0-0.0","0","0","43986","","363","","","75","7","","","1","7","training","adjacent","BA","2","1","O.jpg","P.jpg","0","0","1","",""
"","feedback","","html-keyboard-response","57","168859","0.0-1.0-69.0-0.0","0","0","43986","","null","","","null","7","","","","","","","","","","","","","","","",""
"","ITI","","html-keyboard-response","58","169864","0.0-1.0-72.0","0","0","43986","","null","","","null","7","","","","","","","","","","","","","","","NaN",""
"","S1","","html-keyboard-response","59","170121","0.0-1.0-74.0","0","0","43986","","null","","","null","8","","","","","","","","","","","","","","","",""
"","ISI","","html-keyboard-response","60","172126","0.0-1.0-75.0","0","0","43986","","null","","","null","8","NaN","","","","","","","","","","","","","","",""
"","S2","","html-keyboard-response","61","172383","0.0-1.0-76.0","0","0","43986","","null","","","null","8","","NaN","","","","","","","","","","","","","",""
"","response","","html-keyboard-response","62","172664","0.0-1.0-77.0-0.0","0","0","43986","","280","","","75","8","","","1","8","training","adjacent","CD","3","4","Q.jpg","N.jpg","0","1","0","",""
"","feedback","","html-keyboard-response","63","173671","0.0-1.0-78.0-0.0","0","0","43986","","null","","","null","8","","","","","","","","","","","","","","","",""
"","time_out","","html-keyboard-response","64","175675","0.0-1.0-80.0-0.0","0","0","43986","","null","","","null","8","","","","","","","","","","","","","","","",""
"","ITI","","html-keyboard-response","65","176681","0.0-1.0-81.0","0","0","43986","","null","","","null","8","","","","","","","","","","","","","","","NaN",""
"","S1","","html-keyboard-response","66","176933","0.0-1.0-83.0","0","0","43986","","null","","","null","9","","","","","","","","","","","","","","","",""
"","ISI","","html-keyboard-response","67","178937","0.0-1.0-84.0","0","0","43986","","null","","","null","9","NaN","","","","","","","","","","","","","","",""
"","S2","","html-keyboard-response","68","179192","0.0-1.0-85.0","0","0","43986","","null","","","null","9","","NaN","","","","","","","","","","","","","",""
"","response","","html-keyboard-response","69","179561","0.0-1.0-86.0-0.0","0","0","43986","","368","","","75","9","","","1","9","training","adjacent","GF","7","6","R.jpg","M.jpg","0","0","1","",""
"","feedback","","html-keyboard-response","70","180568","0.0-1.0-87.0-0.0","0","0","43986","","null","","","null","9","","","","","","","","","","","","","","","",""
"","ITI","","html-keyboard-response","71","181572","0.0-1.0-90.0","0","0","43986","","null","","","null","9","","","","","","","","","","","","","","","NaN",""
"","S1","","html-keyboard-response","72","181828","0.0-1.0-92.0","0","0","43986","","null","","","null","10","","","","","","","","","","","","","","","",""
"","ISI","","html-keyboard-response","73","183837","0.0-1.0-93.0","0","0","43986","","null","","","null","10","NaN","","","","","","","","","","","","","","",""
"","S2","","html-keyboard-response","74","184091","0.0-1.0-94.0","0","0","43986","","null","","","null","10","","NaN","","","","","","","","","","","","","",""
"","response","","html-keyboard-response","75","184831","0.0-1.0-95.0-0.0","0","0","43986","","738","","","75","10","","","1","10","training","adjacent","GF","7","6","R.jpg","M.jpg","0","0","1","",""
"","feedback","","html-keyboard-response","76","185838","0.0-1.0-96.0-0.0","0","0","43986","","null","","","null","10","","","","","","","","","","","","","","","",""
"","ITI","","html-keyboard-response","77","186843","0.0-1.0-99.0","0","0","43986","","null","","","null","10","","","","","","","","","","","","","","","NaN",""
"","S1","","html-keyboard-response","78","187098","0.0-1.0-101.0","0","0","43986","","null","","","null","11","","","","","","","","","","","","","","","",""
"","ISI","","html-keyboard-response","79","189100","0.0-1.0-102.0","0","0","43986","","null","","","null","11","NaN","","","","","","","","","","","","","","",""
"","S2","","html-keyboard-response","80","189356","0.0-1.0-103.0","0","0","43986","","null","","","null","11","","NaN","","","","","","","","","","","","","",""
"","response","","html-keyboard-response","81","189695","0.0-1.0-104.0-0.0","0","0","43986","","336","","","75","11","","","1","11","training","adjacent","ED","5","4","L.jpg","N.jpg","0","0","1","",""
"","feedback","","html-keyboard-response","82","190698","0.0-1.0-105.0-0.0","0","0","43986","","null","","","null","11","","","","","","","","","","","","","","","",""
"","ITI","","html-keyboard-response","83","191702","0.0-1.0-108.0","0","0","43986","","null","","","null","11","","","","","","","","","","","","","","","NaN",""
"","S1","","html-keyboard-response","84","191959","0.0-1.0-110.0","0","0","43986","","null","","","null","12","","","","","","","","","","","","","","","",""
"","ISI","","html-keyboard-response","85","193966","0.0-1.0-111.0","0","0","43986","","null","","","null","12","NaN","","","","","","","","","","","","","","",""
"","S2","","html-keyboard-response","86","194222","0.0-1.0-112.0","0","0","43986","","null","","","null","12","","NaN","","","","","","","","","","","","","",""
"","response","","html-keyboard-response","87","195964","0.0-1.0-113.0-0.0","0","0","43986","","1740","","","75","12","","","1","12","training","adjacent","FE","6","5","M.jpg","L.jpg","0","0","1","",""
"","feedback","","html-keyboard-response","88","196968","0.0-1.0-114.0-0.0","0","0","43986","","null","","","null","12","","","","","","","","","","","","","","","",""
"","ITI","","html-keyboard-response","89","197971","0.0-1.0-117.0","0","0","43986","","null","","","null","12","","","","","","","","","","","","","","","NaN",""
"","S1","","html-keyboard-response","90","198226","0.0-1.0-119.0","0","0","43986","","null","","","null","13","","","","","","","","","","","","","","","",""
"","ISI","","html-keyboard-response","91","200230","0.0-1.0-120.0","0","0","43986","","null","","","null","13","NaN","","","","","","","","","","","","","","",""
"","S2","","html-keyboard-response","92","200485","0.0-1.0-121.0","0","0","43986","","null","","","null","13","","NaN","","","","","","","","","","","","","",""
"","response","","html-keyboard-response","93","200954","0.0-1.0-122.0-0.0","0","0","43986","","466","","","75","13","","","1","13","training","adjacent","DC","4","3","N.jpg","Q.jpg","0","0","1","",""
"","feedback","","html-keyboard-response","94","201958","0.0-1.0-123.0-0.0","0","0","43986","","null","","","null","13","","","","","","","","","","","","","","","",""
"","ITI","","html-keyboard-response","95","202964","0.0-1.0-126.0","0","0","43986","","null","","","null","13","","","","","","","","","","","","","","","NaN",""
"","S1","","html-keyboard-response","96","203218","0.0-1.0-128.0","0","0","43986","","null","","","null","14","","","","","","","","","","","","","","","",""
"","ISI","","html-keyboard-response","97","205221","0.0-1.0-129.0","0","0","43986","","null","","","null","14","NaN","","","","","","","","","","","","","","",""
"","S2","","html-keyboard-response","98","205477","0.0-1.0-130.0","0","0","43986","","null","","","null","14","","NaN","","","","","","","","","","","","","",""
"","response","","html-keyboard-response","99","206079","0.0-1.0-131.0-0.0","0","0","43986","","599","","","75","14","","","1","14","training","adjacent","BC","2","3","O.jpg","Q.jpg","0","1","0","",""
"","feedback","","html-keyboard-response","100","207084","0.0-1.0-132.0-0.0","0","0","43986","","null","","","null","14","","","","","","","","","","","","","","","",""
"","time_out","","html-keyboard-response","101","209089","0.0-1.0-134.0-0.0","0","0","43986","","null","","","null","14","","","","","","","","","","","","","","","",""
"","ITI","","html-keyboard-response","102","210096","0.0-1.0-135.0","0","0","43986","","null","","","null","14","","","","","","","","","","","","","","","NaN",""
"","S1","","html-keyboard-response","103","210353","0.0-1.0-137.0","0","0","43986","","null","","","null","15","","","","","","","","","","","","","","","",""
"","ISI","","html-keyboard-response","104","212361","0.0-1.0-138.0","0","0","43986","","null","","","null","15","NaN","","","","","","","","","","","","","","",""
"","S2","","html-keyboard-response","105","212618","0.0-1.0-139.0","0","0","43986","","null","","","null","15","","NaN","","","","","","","","","","","","","",""
"","response","","html-keyboard-response","106","212646","0.0-1.0-140.0-0.0","0","0","43986","","25","","","75","15","","","1","15","training","adjacent","CB","3","2","Q.jpg","O.jpg","0","0","1","",""
"","feedback","","html-keyboard-response","107","213649","0.0-1.0-141.0-0.0","0","0","43986","","null","","","null","15","","","","","","","","","","","","","","","",""
"","ITI","","html-keyboard-response","108","214654","0.0-1.0-144.0","0","0","43986","","null","","","null","15","","","","","","","","","","","","","","","NaN",""
"","S1","","html-keyboard-response","109","214910","0.0-1.0-146.0","0","0","43986","","null","","","null","16","","","","","","","","","","","","","","","",""
"","ISI","","html-keyboard-response","110","216917","0.0-1.0-147.0","0","0","43986","","null","","","null","16","NaN","","","","","","","","","","","","","","",""
"","S2","","html-keyboard-response","111","217174","0.0-1.0-148.0","0","0","43986","","null","","","null","16","","NaN","","","","","","","","","","","","","",""
"","response","","html-keyboard-response","112","217593","0.0-1.0-149.0-0.0","0","0","43986","","416","","","75","16","","","1","16","training","adjacent","DE","4","5","N.jpg","L.jpg","0","1","0","",""
"","feedback","","html-keyboard-response","113","218596","0.0-1.0-150.0-0.0","0","0","43986","","null","","","null","16","","","","","","","","","","","","","","","",""
"","time_out","","html-keyboard-response","114","220598","0.0-1.0-152.0-0.0","0","0","43986","","null","","","null","16","","","","","","","","","","","","","","","",""
"","ITI","","html-keyboard-response","115","221603","0.0-1.0-153.0","0","0","43986","","null","","","null","16","","","","","","","","","","","","","","","NaN",""
"","S1","","html-keyboard-response","116","221858","0.0-1.0-155.0","0","0","43986","","null","","","null","17","","","","","","","","","","","","","","","",""
"","ISI","","html-keyboard-response","117","223863","0.0-1.0-156.0","0","0","43986","","null","","","null","17","NaN","","","","","","","","","","","","","","",""
"","S2","","html-keyboard-response","118","224117","0.0-1.0-157.0","0","0","43986","","null","","","null","17","","NaN","","","","","","","","","","","","","",""
"","response","","html-keyboard-response","119","224431","0.0-1.0-158.0-0.0","0","0","43986","","313","","","75","17","","","1","17","training","adjacent","DC","4","3","N.jpg","Q.jpg","0","0","1","",""
"","feedback","","html-keyboard-response","120","225433","0.0-1.0-159.0-0.0","0","0","43986","","null","","","null","17","","","","","","","","","","","","","","","",""
"","ITI","","html-keyboard-response","121","226438","0.0-1.0-162.0","0","0","43986","","null","","","null","17","","","","","","","","","","","","","","","NaN",""
"","S1","","html-keyboard-response","122","226705","0.0-1.0-164.0","0","0","43986","","null","","","null","18","","","","","","","","","","","","","","","",""
"","ISI","","html-keyboard-response","123","228707","0.0-1.0-165.0","0","0","43986","","null","","","null","18","NaN","","","","","","","","","","","","","","",""
"","S2","","html-keyboard-response","124","228962","0.0-1.0-166.0","0","0","43986","","null","","","null","18","","NaN","","","","","","","","","","","","","",""
"","response","","html-keyboard-response","125","229301","0.0-1.0-167.0-0.0","0","0","43986","","336","","","68","18","","","1","18","training","adjacent","BA","2","1","O.jpg","P.jpg","1","0","0","",""
"","feedback","","html-keyboard-response","126","230304","0.0-1.0-168.0-0.0","0","0","43986","","null","","","null","18","","","","","","","","","","","","","","","",""
"","time_out","","html-keyboard-response","127","232312","0.0-1.0-170.0-0.0","0","0","43986","","null","","","null","18","","","","","","","","","","","","","","","",""
"","ITI","","html-keyboard-response","128","233316","0.0-1.0-171.0","0","0","43986","","null","","","null","18","","","","","","","","","","","","","","","NaN",""
"","S1","","html-keyboard-response","129","233572","0.0-1.0-173.0","0","0","43986","","null","","","null","19","","","","","","","","","","","","","","","",""
"","ISI","","html-keyboard-response","130","235579","0.0-1.0-174.0","0","0","43986","","null","","","null","19","NaN","","","","","","","","","","","","","","",""
"","S2","","html-keyboard-response","131","235836","0.0-1.0-175.0","0","0","43986","","null","","","null","19","","NaN","","","","","","","","","","","","","",""
"","response","","html-keyboard-response","132","236110","0.0-1.0-176.0-0.0","0","0","43986","","272","","","75","19","","","1","19","training","adjacent","FE","6","5","M.jpg","L.jpg","0","0","1","",""
"","feedback","","html-keyboard-response","133","237115","0.0-1.0-177.0-0.0","0","0","43986","","null","","","null","19","","","","","","","","","","","","","","","",""
"","ITI","","html-keyboard-response","134","238117","0.0-1.0-180.0","0","0","43986","","null","","","null","19","","","","","","","","","","","","","","","NaN",""
"","S1","","html-keyboard-response","135","238373","0.0-1.0-182.0","0","0","43986","","null","","","null","20","","","","","","","","","","","","","","","",""
"","ISI","","html-keyboard-response","136","240380","0.0-1.0-183.0","0","0","43986","","null","","","null","20","NaN","","","","","","","","","","","","","","",""
"","S2","","html-keyboard-response","137","240636","0.0-1.0-184.0","0","0","43986","","null","","","null","20","","NaN","","","","","","","","","","","","","",""
"","response","","html-keyboard-response","138","240962","0.0-1.0-185.0-0.0","0","0","43986","","325","","","75","20","","","1","20","training","adjacent","ED","5","4","L.jpg","N.jpg","0","0","1","",""
"","feedback","","html-keyboard-response","139","241965","0.0-1.0-186.0-0.0","0","0","43986","","null","","","null","20","","","","","","","","","","","","","","","",""
"","ITI","","html-keyboard-response","140","242971","0.0-1.0-189.0","0","0","43986","","null","","","null","20","","","","","","","","","","","","","","","NaN",""
"","S1","","html-keyboard-response","141","243225","0.0-1.0-191.0","0","0","43986","","null","","","null","21","","","","","","","","","","","","","","","",""
"","ISI","","html-keyboard-response","142","245228","0.0-1.0-192.0","0","0","43986","","null","","","null","21","NaN","","","","","","","","","","","","","","",""
"","S2","","html-keyboard-response","143","245484","0.0-1.0-193.0","0","0","43986","","null","","","null","21","","NaN","","","","","","","","","","","","","",""
"","response","","html-keyboard-response","144","245913","0.0-1.0-194.0-0.0","0","0","43986","","428","","","75","21","","","1","21","training","adjacent","AB","1","2","P.jpg","O.jpg","0","1","0","",""
"","feedback","","html-keyboard-response","145","246917","0.0-1.0-195.0-0.0","0","0","43986","","null","","","null","21","","","","","","","","","","","","","","","",""
"","time_out","","html-keyboard-response","146","248923","0.0-1.0-197.0-0.0","0","0","43986","","null","","","null","21","","","","","","","","","","","","","","","",""
"","ITI","","html-keyboard-response","147","249928","0.0-1.0-198.0","0","0","43986","","null","","","null","21","","","","","","","","","","","","","","","NaN",""
"","S1","","html-keyboard-response","148","250184","0.0-1.0-200.0","0","0","43986","","null","","","null","22","","","","","","","","","","","","","","","",""
"","ISI","","html-keyboard-response","149","252189","0.0-1.0-201.0","0","0","43986","","null","","","null","22","NaN","","","","","","","","","","","","","","",""
"","S2","","html-keyboard-response","150","252446","0.0-1.0-202.0","0","0","43986","","null","","","null","22","","NaN","","","","","","","","","","","","","",""
"","response","","html-keyboard-response","151","252744","0.0-1.0-203.0-0.0","0","0","43986","","295","","","75","22","","","1","22","training","adjacent","FG","6","7","M.jpg","R.jpg","0","1","0","",""
"","feedback","","html-keyboard-response","152","253749","0.0-1.0-204.0-0.0","0","0","43986","","null","","","null","22","","","","","","","","","","","","","","","",""
"","time_out","","html-keyboard-response","153","255755","0.0-1.0-206.0-0.0","0","0","43986","","null","","","null","22","","","","","","","","","","","","","","","",""
"","ITI","","html-keyboard-response","154","256757","0.0-1.0-207.0","0","0","43986","","null","","","null","22","","","","","","","","","","","","","","","NaN",""
"","S1","","html-keyboard-response","155","257017","0.0-1.0-209.0","0","0","43986","","null","","","null","23","","","","","","","","","","","","","","","",""
"","ISI","","html-keyboard-response","156","259021","0.0-1.0-210.0","0","0","43986","","null","","","null","23","NaN","","","","","","","","","","","","","","",""
"","S2","","html-keyboard-response","157","259279","0.0-1.0-211.0","0","0","43986","","null","","","null","23","","NaN","","","","","","","","","","","","","",""
"","response","","html-keyboard-response","158","259780","0.0-1.0-212.0-0.0","0","0","43986","","500","","","68","23","","","1","23","training","adjacent","CD","3","4","Q.jpg","N.jpg","1","1","1","",""
"","feedback","","html-keyboard-response","159","260787","0.0-1.0-213.0-0.0","0","0","43986","","null","","","null","23","","","","","","","","","","","","","","","",""
"","ITI","","html-keyboard-response","160","261794","0.0-1.0-216.0","0","0","43986","","null","","","null","23","","","","","","","","","","","","","","","NaN",""
"","S1","","html-keyboard-response","161","262046","0.0-1.0-218.0","0","0","43986","","null","","","null","24","","","","","","","","","","","","","","","",""
"","ISI","","html-keyboard-response","162","264052","0.0-1.0-219.0","0","0","43986","","null","","","null","24","NaN","","","","","","","","","","","","","","",""
"","S2","","html-keyboard-response","163","264308","0.0-1.0-220.0","0","0","43986","","null","","","null","24","","NaN","","","","","","","","","","","","","",""
"","response","","html-keyboard-response","164","264672","0.0-1.0-221.0-0.0","0","0","43986","","362","","","68","24","","","1","24","training","adjacent","BC","2","3","O.jpg","Q.jpg","1","1","1","",""
"","feedback","","html-keyboard-response","165","265678","0.0-1.0-222.0-0.0","0","0","43986","","null","","","null","24","","","","","","","","","","","","","","","",""
"","ITI","","html-keyboard-response","166","266684","0.0-1.0-225.0","0","0","43986","","null","","","null","24","","","","","","","","","","","","","","","NaN",""
"","S1","","html-keyboard-response","167","266939","0.0-1.0-227.0","0","0","43986","","null","","","null","25","","","","","","","","","","","","","","","",""
"","ISI","","html-keyboard-response","168","268946","0.0-1.0-228.0","0","0","43986","","null","","","null","25","NaN","","","","","","","","","","","","","","",""
"","S2","","html-keyboard-response","169","269203","0.0-1.0-229.0","0","0","43986","","null","","","null","25","","NaN","","","","","","","","","","","","","",""
"","response","","html-keyboard-response","170","269519","0.0-1.0-230.0-0.0","0","0","43986","","313","","","68","25","","","1","25","training","adjacent","FG","6","7","M.jpg","R.jpg","1","1","1","",""
"","feedback","","html-keyboard-response","171","270526","0.0-1.0-231.0-0.0","0","0","43986","","null","","","null","25","","","","","","","","","","","","","","","",""
"","ITI","","html-keyboard-response","172","271531","0.0-1.0-234.0","0","0","43986","","null","","","null","25","","","","","","","","","","","","","","","NaN",""
"","S1","","html-keyboard-response","173","271786","0.0-1.0-236.0","0","0","43986","","null","","","null","26","","","","","","","","","","","","","","","",""
"","ISI","","html-keyboard-response","174","273793","0.0-1.0-237.0","0","0","43986","","null","","","null","26","NaN","","","","","","","","","","","","","","",""
"","S2","","html-keyboard-response","175","274050","0.0-1.0-238.0","0","0","43986","","null","","","null","26","","NaN","","","","","","","","","","","","","",""
"","response","","html-keyboard-response","176","274381","0.0-1.0-239.0-0.0","0","0","43986","","330","","","68","26","","","1","26","training","adjacent","FE","6","5","M.jpg","L.jpg","1","0","0","",""
"","feedback","","html-keyboard-response","177","275385","0.0-1.0-240.0-0.0","0","0","43986","","null","","","null","26","","","","","","","","","","","","","","","",""
"","time_out","","html-keyboard-response","178","277392","0.0-1.0-242.0-0.0","0","0","43986","","null","","","null","26","","","","","","","","","","","","","","","",""
"","ITI","","html-keyboard-response","179","278398","0.0-1.0-243.0","0","0","43986","","null","","","null","26","","","","","","","","","","","","","","","NaN",""
"","S1","","html-keyboard-response","180","278653","0.0-1.0-245.0","0","0","43986","","null","","","null","27","","","","","","","","","","","","","","","",""
"","ISI","","html-keyboard-response","181","280657","0.0-1.0-246.0","0","0","43986","","null","","","null","27","NaN","","","","","","","","","","","","","","",""
"","S2","","html-keyboard-response","182","280914","0.0-1.0-247.0","0","0","43986","","null","","","null","27","","NaN","","","","","","","","","","","","","",""
"","response","","html-keyboard-response","183","281272","0.0-1.0-248.0-0.0","0","0","43986","","356","","","68","27","","","1","27","training","adjacent","FG","6","7","M.jpg","R.jpg","1","1","1","",""
"","feedback","","html-keyboard-response","184","282278","0.0-1.0-249.0-0.0","0","0","43986","","null","","","null","27","","","","","","","","","","","","","","","",""
"","ITI","","html-keyboard-response","185","283285","0.0-1.0-252.0","0","0","43986","","null","","","null","27","","","","","","","","","","","","","","","NaN",""
"","S1","","html-keyboard-response","186","283542","0.0-1.0-254.0","0","0","43986","","null","","","null","28","","","","","","","","","","","","","","","",""
"","ISI","","html-keyboard-response","187","285549","0.0-1.0-255.0","0","0","43986","","null","","","null","28","NaN","","","","","","","","","","","","","","",""
"","S2","","html-keyboard-response","188","285804","0.0-1.0-256.0","0","0","43986","","null","","","null","28","","NaN","","","","","","","","","","","","","",""
"","response","","html-keyboard-response","189","286280","0.0-1.0-257.0-0.0","0","0","43986","","473","","","68","28","","","1","28","training","adjacent","AB","1","2","P.jpg","O.jpg","1","1","1","",""
"","feedback","","html-keyboard-response","190","287285","0.0-1.0-258.0-0.0","0","0","43986","","null","","","null","28","","","","","","","","","","","","","","","",""
"","ITI","","html-keyboard-response","191","288291","0.0-1.0-261.0","0","0","43986","","null","","","null","28","","","","","","","","","","","","","","","NaN",""
"","S1","","html-keyboard-response","192","288550","0.0-1.0-263.0","0","0","43986","","null","","","null","29","","","","","","","","","","","","","","","",""
"","ISI","","html-keyboard-response","193","290553","0.0-1.0-264.0","0","0","43986","","null","","","null","29","NaN","","","","","","","","","","","","","","",""
"","S2","","html-keyboard-response","194","290812","0.0-1.0-265.0","0","0","43986","","null","","","null","29","","NaN","","","","","","","","","","","","","",""
"","response","","html-keyboard-response","195","291264","0.0-1.0-266.0-0.0","0","0","43986","","450","","","68","29","","","1","29","training","adjacent","CD","3","4","Q.jpg","N.jpg","1","1","1","",""
"","feedback","","html-keyboard-response","196","292270","0.0-1.0-267.0-0.0","0","0","43986","","null","","","null","29","","","","","","","","","","","","","","","",""
"","ITI","","html-keyboard-response","197","293276","0.0-1.0-270.0","0","0","43986","","null","","","null","29","","","","","","","","","","","","","","","NaN",""
"","S1","","html-keyboard-response","198","293532","0.0-1.0-272.0","0","0","43986","","null","","","null","30","","","","","","","","","","","","","","","",""
"","ISI","","html-keyboard-response","199","295540","0.0-1.0-273.0","0","0","43986","","null","","","null","30","NaN","","","","","","","","","","","","","","",""
"","S2","","html-keyboard-response","200","295796","0.0-1.0-274.0","0","0","43986","","null","","","null","30","","NaN","","","","","","","","","","","","","",""
"","response","","html-keyboard-response","201","295898","0.0-1.0-275.0-0.0","0","0","43986","","100","","","68","30","","","1","30","training","adjacent","GF","7","6","R.jpg","M.jpg","1","0","0","",""
"","feedback","","html-keyboard-response","202","296903","0.0-1.0-276.0-0.0","0","0","43986","","null","","","null","30","","","","","","","","","","","","","","","",""
"","time_out","","html-keyboard-response","203","298906","0.0-1.0-278.0-0.0","0","0","43986","","null","","","null","30","","","","","","","","","","","","","","","",""
"","ITI","","html-keyboard-response","204","299911","0.0-1.0-279.0","0","0","43986","","null","","","null","30","","","","","","","","","","","","","","","NaN",""
"","S1","","html-keyboard-response","205","300166","0.0-1.0-281.0","0","0","43986","","null","","","null","31","","","","","","","","","","","","","","","",""
"","ISI","","html-keyboard-response","206","302173","0.0-1.0-282.0","0","0","43986","","null","","","null","31","NaN","","","","","","","","","","","","","","",""
"","S2","","html-keyboard-response","207","302432","0.0-1.0-283.0","0","0","43986","","null","","","null","31","","NaN","","","","","","","","","","","","","",""
"","response","","html-keyboard-response","208","302511","0.0-1.0-284.0-0.0","0","0","43986","","77","","","68","31","","","1","31","training","adjacent","DE","4","5","N.jpg","L.jpg","1","1","1","",""
"","feedback","","html-keyboard-response","209","303515","0.0-1.0-285.0-0.0","0","0","43986","","null","","","null","31","","","","","","","","","","","","","","","",""
"","ITI","","html-keyboard-response","210","304520","0.0-1.0-288.0","0","0","43986","","null","","","null","31","","","","","","","","","","","","","","","NaN",""
"","S1","","html-keyboard-response","211","304778","0.0-1.0-290.0","0","0","43986","","null","","","null","32","","","","","","","","","","","","","","","",""
"","ISI","","html-keyboard-response","212","306789","0.0-1.0-291.0","0","0","43986","","null","","","null","32","NaN","","","","","","","","","","","","","","",""
"","S2","","html-keyboard-response","213","307044","0.0-1.0-292.0","0","0","43986","","null","","","null","32","","NaN","","","","","","","","","","","","","",""
"","response","","html-keyboard-response","214","307431","0.0-1.0-293.0-0.0","0","0","43986","","386","","","68","32","","","1","32","training","adjacent","AB","1","2","P.jpg","O.jpg","1","1","1","",""
"","feedback","","html-keyboard-response","215","308438","0.0-1.0-294.0-0.0","0","0","43986","","null","","","null","32","","","","","","","","","","","","","","","",""
"","ITI","","html-keyboard-response","216","309444","0.0-1.0-297.0","0","0","43986","","null","","","null","32","","","","","","","","","","","","","","","NaN",""
"","S1","","html-keyboard-response","217","309697","0.0-1.0-299.0","0","0","43986","","null","","","null","33","","","","","","","","","","","","","","","",""
"","ISI","","html-keyboard-response","218","311700","0.0-1.0-300.0","0","0","43986","","null","","","null","33","NaN","","","","","","","","","","","","","","",""
"","S2","","html-keyboard-response","219","311956","0.0-1.0-301.0","0","0","43986","","null","","","null","33","","NaN","","","","","","","","","","","","","",""
"","response","","html-keyboard-response","220","312433","0.0-1.0-302.0-0.0","0","0","43986","","475","","","68","33","","","1","33","training","adjacent","EF","5","6","L.jpg","M.jpg","1","1","1","",""
"","feedback","","html-keyboard-response","221","313440","0.0-1.0-303.0-0.0","0","0","43986","","null","","","null","33","","","","","","","","","","","","","","","",""
"","ITI","","html-keyboard-response","222","314446","0.0-1.0-306.0","0","0","43986","","null","","","null","33","","","","","","","","","","","","","","","NaN",""
"","S1","","html-keyboard-response","223","314700","0.0-1.0-308.0","0","0","43986","","null","","","null","34","","","","","","","","","","","","","","","",""
"","ISI","","html-keyboard-response","224","316704","0.0-1.0-309.0","0","0","43986","","null","","","null","34","NaN","","","","","","","","","","","","","","",""
"","S2","","html-keyboard-response","225","316961","0.0-1.0-310.0","0","0","43986","","null","","","null","34","","NaN","","","","","","","","","","","","","",""
"","response","","html-keyboard-response","226","317451","0.0-1.0-311.0-0.0","0","0","43986","","488","","","68","34","","","1","34","training","adjacent","DE","4","5","N.jpg","L.jpg","1","1","1","",""
"","feedback","","html-keyboard-response","227","318457","0.0-1.0-312.0-0.0","0","0","43986","","null","","","null","34","","","","","","","","","","","","","","","",""
"","ITI","","html-keyboard-response","228","319461","0.0-1.0-315.0","0","0","43986","","null","","","null","34","","","","","","","","","","","","","","","NaN",""
"","S1","","html-keyboard-response","229","319715","0.0-1.0-317.0","0","0","43986","","null","","","null","35","","","","","","","","","","","","","","","",""
"","ISI","","html-keyboard-response","230","321722","0.0-1.0-318.0","0","0","43986","","null","","","null","35","NaN","","","","","","","","","","","","","","",""
"","S2","","html-keyboard-response","231","321979","0.0-1.0-319.0","0","0","43986","","null","","","null","35","","NaN","","","","","","","","","","","","","",""
"","response","","html-keyboard-response","232","322364","0.0-1.0-320.0-0.0","0","0","43986","","384","","","68","35","","","1","35","training","adjacent","CD","3","4","Q.jpg","N.jpg","1","1","1","",""
"","feedback","","html-keyboard-response","233","323368","0.0-1.0-321.0-0.0","0","0","43986","","null","","","null","35","","","","","","","","","","","","","","","",""
"","ITI","","html-keyboard-response","234","324372","0.0-1.0-324.0","0","0","43986","","null","","","null","35","","","","","","","","","","","","","","","NaN",""
"","S1","","html-keyboard-response","235","324627","0.0-1.0-326.0","0","0","43986","","null","","","null","36","","","","","","","","","","","","","","","",""
"","ISI","","html-keyboard-response","236","326631","0.0-1.0-327.0","0","0","43986","","null","","","null","36","NaN","","","","","","","","","","","","","","",""
"","S2","","html-keyboard-response","237","326886","0.0-1.0-328.0","0","0","43986","","null","","","null","36","","NaN","","","","","","","","","","","","","",""
"","response","","html-keyboard-response","238","327204","0.0-1.0-329.0-0.0","0","0","43986","","315","","","68","36","","","1","36","training","adjacent","BC","2","3","O.jpg","Q.jpg","1","1","1","",""
"","feedback","","html-keyboard-response","239","328211","0.0-1.0-330.0-0.0","0","0","43986","","null","","","null","36","","","","","","","","","","","","","","","",""
"","ITI","","html-keyboard-response","240","329218","0.0-1.0-333.0","0","0","43986","","null","","","null","36","","","","","","","","","","","","","","","NaN",""
"","S1","","html-keyboard-response","241","329475","0.0-1.0-335.0","0","0","43986","","null","","","null","37","","","","","","","","","","","","","","","",""
"","ISI","","html-keyboard-response","242","331482","0.0-1.0-336.0","0","0","43986","","null","","","null","37","NaN","","","","","","","","","","","","","","",""
"","S2","","html-keyboard-response","243","331739","0.0-1.0-337.0","0","0","43986","","null","","","null","37","","NaN","","","","","","","","","","","","","",""
"","response","","html-keyboard-response","244","332105","0.0-1.0-338.0-0.0","0","0","43986","","364","","","68","37","","","1","37","training","adjacent","CB","3","2","Q.jpg","O.jpg","1","0","0","",""
"","feedback","","html-keyboard-response","245","333111","0.0-1.0-339.0-0.0","0","0","43986","","null","","","null","37","","","","","","","","","","","","","","","",""
"","time_out","","html-keyboard-response","246","335117","0.0-1.0-341.0-0.0","0","0","43986","","null","","","null","37","","","","","","","","","","","","","","","",""
"","ITI","","html-keyboard-response","247","336120","0.0-1.0-342.0","0","0","43986","","null","","","null","37","","","","","","","","","","","","","","","NaN",""
"","S1","","html-keyboard-response","248","336378","0.0-1.0-344.0","0","0","43986","","null","","","null","38","","","","","","","","","","","","","","","",""
"","ISI","","html-keyboard-response","249","338384","0.0-1.0-345.0","0","0","43986","","null","","","null","38","NaN","","","","","","","","","","","","","","",""
"","S2","","html-keyboard-response","250","338636","0.0-1.0-346.0","0","0","43986","","null","","","null","38","","NaN","","","","","","","","","","","","","",""
"","response","","html-keyboard-response","251","339015","0.0-1.0-347.0-0.0","0","0","43986","","376","","","68","38","","","1","38","training","adjacent","FG","6","7","M.jpg","R.jpg","1","1","1","",""
"","feedback","","html-keyboard-response","252","340022","0.0-1.0-348.0-0.0","0","0","43986","","null","","","null","38","","","","","","","","","","","","","","","",""
"","ITI","","html-keyboard-response","253","341027","0.0-1.0-351.0","0","0","43986","","null","","","null","38","","","","","","","","","","","","","","","NaN",""
"","S1","","html-keyboard-response","254","341282","0.0-1.0-353.0","0","0","43986","","null","","","null","39","","","","","","","","","","","","","","","",""
"","ISI","","html-keyboard-response","255","343288","0.0-1.0-354.0","0","0","43986","","null","","","null","39","NaN","","","","","","","","","","","","","","",""
"","S2","","html-keyboard-response","256","343544","0.0-1.0-355.0","0","0","43986","","null","","","null","39","","NaN","","","","","","","","","","","","","",""
"","response","","html-keyboard-response","257","344028","0.0-1.0-356.0-0.0","0","0","43986","","482","","","68","39","","","1","39","training","adjacent","EF","5","6","L.jpg","M.jpg","1","1","1","",""
"","feedback","","html-keyboard-response","258","345032","0.0-1.0-357.0-0.0","0","0","43986","","null","","","null","39","","","","","","","","","","","","","","","",""
"","ITI","","html-keyboard-response","259","346036","0.0-1.0-360.0","0","0","43986","","null","","","null","39","","","","","","","","","","","","","","","NaN",""
"","S1","","html-keyboard-response","260","346294","0.0-1.0-362.0","0","0","43986","","null","","","null","40","","","","","","","","","","","","","","","",""
"","ISI","","html-keyboard-response","261","348300","0.0-1.0-363.0","0","0","43986","","null","","","null","40","NaN","","","","","","","","","","","","","","",""
"","S2","","html-keyboard-response","262","348555","0.0-1.0-364.0","0","0","43986","","null","","","null","40","","NaN","","","","","","","","","","","","","",""
"","response","","html-keyboard-response","263","348909","0.0-1.0-365.0-0.0","0","0","43986","","352","","","68","40","","","1","40","training","adjacent","FE","6","5","M.jpg","L.jpg","1","0","0","",""
"","feedback","","html-keyboard-response","264","349913","0.0-1.0-366.0-0.0","0","0","43986","","null","","","null","40","","","","","","","","","","","","","","","",""
"","time_out","","html-keyboard-response","265","351921","0.0-1.0-368.0-0.0","0","0","43986","","null","","","null","40","","","","","","","","","","","","","","","",""
"","ITI","","html-keyboard-response","266","352926","0.0-1.0-369.0","0","0","43986","","null","","","null","40","","","","","","","","","","","","","","","NaN",""
"","S1","","html-keyboard-response","267","353182","0.0-1.0-371.0","0","0","43986","","null","","","null","41","","","","","","","","","","","","","","","",""
"","ISI","","html-keyboard-response","268","355189","0.0-1.0-372.0","0","0","43986","","null","","","null","41","NaN","","","","","","","","","","","","","","",""
"","S2","","html-keyboard-response","269","355445","0.0-1.0-373.0","0","0","43986","","null","","","null","41","","NaN","","","","","","","","","","","","","",""
"","response","","html-keyboard-response","270","355752","0.0-1.0-374.0-0.0","0","0","43986","","305","","","68","41","","","1","41","training","adjacent","BA","2","1","O.jpg","P.jpg","1","0","0","",""
"","feedback","","html-keyboard-response","271","356757","0.0-1.0-375.0-0.0","0","0","43986","","null","","","null","41","","","","","","","","","","","","","","","",""
"","time_out","","html-keyboard-response","272","358760","0.0-1.0-377.0-0.0","0","0","43986","","null","","","null","41","","","","","","","","","","","","","","","",""
"","ITI","","html-keyboard-response","273","359764","0.0-1.0-378.0","0","0","43986","","null","","","null","41","","","","","","","","","","","","","","","NaN",""
"","S1","","html-keyboard-response","274","360019","0.0-1.0-380.0","0","0","43986","","null","","","null","42","","","","","","","","","","","","","","","",""
"","ISI","","html-keyboard-response","275","362023","0.0-1.0-381.0","0","0","43986","","null","","","null","42","NaN","","","","","","","","","","","","","","",""
"","S2","","html-keyboard-response","276","362276","0.0-1.0-382.0","0","0","43986","","null","","","null","42","","NaN","","","","","","","","","","","","","",""
"","response","","html-keyboard-response","277","362586","0.0-1.0-383.0-0.0","0","0","43986","","307","","","75","42","","","1","42","training","adjacent","BC","2","3","O.jpg","Q.jpg","0","1","0","",""
"","feedback","","html-keyboard-response","278","363593","0.0-1.0-384.0-0.0","0","0","43986","","null","","","null","42","","","","","","","","","","","","","","","",""
"","time_out","","html-keyboard-response","279","365603","0.0-1.0-386.0-0.0","0","0","43986","","null","","","null","42","","","","","","","","","","","","","","","",""
"","ITI","","html-keyboard-response","280","366610","0.0-1.0-387.0","0","0","43986","","null","","","null","42","","","","","","","","","","","","","","","NaN",""
"","S1","","html-keyboard-response","281","366865","0.0-1.0-389.0","0","0","43986","","null","","","null","43","","","","","","","","","","","","","","","",""
"","ISI","","html-keyboard-response","282","368870","0.0-1.0-390.0","0","0","43986","","null","","","null","43","NaN","","","","","","","","","","","","","","",""
"","S2","","html-keyboard-response","283","369135","0.0-1.0-391.0","0","0","43986","","null","","","null","43","","NaN","","","","","","","","","","","","","",""
"","response","","html-keyboard-response","284","369612","0.0-1.0-392.0-0.0","0","0","43986","","475","","","75","43","","","1","43","training","adjacent","GF","7","6","R.jpg","M.jpg","0","0","1","",""
"","feedback","","html-keyboard-response","285","370616","0.0-1.0-393.0-0.0","0","0","43986","","null","","","null","43","","","","","","","","","","","","","","","",""
"","ITI","","html-keyboard-response","286","371623","0.0-1.0-396.0","0","0","43986","","null","","","null","43","","","","","","","","","","","","","","","NaN",""
"","S1","","html-keyboard-response","287","371878","0.0-1.0-398.0","0","0","43986","","null","","","null","44","","","","","","","","","","","","","","","",""
"","ISI","","html-keyboard-response","288","373882","0.0-1.0-399.0","0","0","43986","","null","","","null","44","NaN","","","","","","","","","","","","","","",""
"","S2","","html-keyboard-response","289","374138","0.0-1.0-400.0","0","0","43986","","null","","","null","44","","NaN","","","","","","","","","","","","","",""
"","response","","html-keyboard-response","290","374621","0.0-1.0-401.0-0.0","0","0","43986","","482","","","75","44","","","1","44","training","adjacent","ED","5","4","L.jpg","N.jpg","0","0","1","",""
"","feedback","","html-keyboard-response","291","375628","0.0-1.0-402.0-0.0","0","0","43986","","null","","","null","44","","","","","","","","","","","","","","","",""
"","ITI","","html-keyboard-response","292","376633","0.0-1.0-405.0","0","0","43986","","null","","","null","44","","","","","","","","","","","","","","","NaN",""
"","S1","","html-keyboard-response","293","376888","0.0-1.0-407.0","0","0","43986","","null","","","null","45","","","","","","","","","","","","","","","",""
"","ISI","","html-keyboard-response","294","378892","0.0-1.0-408.0","0","0","43986","","null","","","null","45","NaN","","","","","","","","","","","","","","",""
"","S2","","html-keyboard-response","295","379146","0.0-1.0-409.0","0","0","43986","","null","","","null","45","","NaN","","","","","","","","","","","","","",""
"","response","","html-keyboard-response","296","379720","0.0-1.0-410.0-0.0","0","0","43986","","573","","","75","45","","","1","45","training","adjacent","DE","4","5","N.jpg","L.jpg","0","1","0","",""
"","feedback","","html-keyboard-response","297","380726","0.0-1.0-411.0-0.0","0","0","43986","","null","","","null","45","","","","","","","","","","","","","","","",""
"","time_out","","html-keyboard-response","298","382732","0.0-1.0-413.0-0.0","0","0","43986","","null","","","null","45","","","","","","","","","","","","","","","",""
"","ITI","","html-keyboard-response","299","383738","0.0-1.0-414.0","0","0","43986","","null","","","null","45","","","","","","","","","","","","","","","NaN",""
"","S1","","html-keyboard-response","300","383994","0.0-1.0-416.0","0","0","43986","","null","","","null","46","","","","","","","","","","","","","","","",""
"","ISI","","html-keyboard-response","301","385996","0.0-1.0-417.0","0","0","43986","","null","","","null","46","NaN","","","","","","","","","","","","","","",""
"","S2","","html-keyboard-response","302","386252","0.0-1.0-418.0","0","0","43986","","null","","","null","46","","NaN","","","","","","","","","","","","","",""
"","response","","html-keyboard-response","303","386581","0.0-1.0-419.0-0.0","0","0","43986","","327","","","75","46","","","1","46","training","adjacent","EF","5","6","L.jpg","M.jpg","0","1","0","",""
"","feedback","","html-keyboard-response","304","387587","0.0-1.0-420.0-0.0","0","0","43986","","null","","","null","46","","","","","","","","","","","","","","","",""
"","time_out","","html-keyboard-response","305","389595","0.0-1.0-422.0-0.0","0","0","43986","","null","","","null","46","","","","","","","","","","","","","","","",""
"","ITI","","html-keyboard-response","306","390600","0.0-1.0-423.0","0","0","43986","","null","","","null","46","","","","","","","","","","","","","","","NaN",""
"","S1","","html-keyboard-response","307","390855","0.0-1.0-425.0","0","0","43986","","null","","","null","47","","","","","","","","","","","","","","","",""
"","ISI","","html-keyboard-response","308","392862","0.0-1.0-426.0","0","0","43986","","null","","","null","47","NaN","","","","","","","","","","","","","","",""
"","S2","","html-keyboard-response","309","393117","0.0-1.0-427.0","0","0","43986","","null","","","null","47","","NaN","","","","","","","","","","","","","",""
"","response","","html-keyboard-response","310","393385","0.0-1.0-428.0-0.0","0","0","43986","","266","","","68","47","","","1","47","training","adjacent","CB","3","2","Q.jpg","O.jpg","1","0","0","",""
"","feedback","","html-keyboard-response","311","394395","0.0-1.0-429.0-0.0","0","0","43986","","null","","","null","47","","","","","","","","","","","","","","","",""
"","time_out","","html-keyboard-response","312","396398","0.0-1.0-431.0-0.0","0","0","43986","","null","","","null","47","","","","","","","","","","","","","","","",""
"","ITI","","html-keyboard-response","313","397402","0.0-1.0-432.0","0","0","43986","","null","","","null","47","","","","","","","","","","","","","","","NaN",""
"","block_over","","html-keyboard-response","314","418554","0.0-1.0-433.0-0.0","0","0","43986","","21149","","","32","47","","","","","","","","","","","","","","","",""
"","S1","","html-keyboard-response","315","418811","0.0-1.0-434.0","0","0","43986","","null","","","null","48","","","","","","","","","","","","","","","",""
"","ISI","","html-keyboard-response","316","420814","0.0-1.0-435.0","0","0","43986","","null","","","null","48","NaN","","","","","","","","","","","","","","",""
"","S2","","html-keyboard-response","317","421068","0.0-1.0-436.0","0","0","43986","","null","","","null","48","","NaN","","","","","","","","","","","","","",""
"","response","","html-keyboard-response","318","421484","0.0-1.0-437.0-0.0","0","0","43986","","414","","","75","48","","","2","48","training","adjacent","FE","6","5","M.jpg","L.jpg","0","0","1","",""
"","feedback","","html-keyboard-response","319","422491","0.0-1.0-438.0-0.0","0","0","43986","","null","","","null","48","","","","","","","","","","","","","","","",""
"","ITI","","html-keyboard-response","320","423495","0.0-1.0-441.0","0","0","43986","","null","","","null","48","","","","","","","","","","","","","","","NaN",""
"","S1","","html-keyboard-response","321","423750","0.0-1.0-443.0","0","0","43986","","null","","","null","49","","","","","","","","","","","","","","","",""
"","ISI","","html-keyboard-response","322","425753","0.0-1.0-444.0","0","0","43986","","null","","","null","49","NaN","","","","","","","","","","","","","","",""
"","S2","","html-keyboard-response","323","426008","0.0-1.0-445.0","0","0","43986","","null","","","null","49","","NaN","","","","","","","","","","","","","",""
"","response","","html-keyboard-response","324","426383","0.0-1.0-446.0-0.0","0","0","43986","","372","","","75","49","","","2","49","training","adjacent","BA","2","1","O.jpg","P.jpg","0","0","1","",""
"","feedback","","html-keyboard-response","325","427391","0.0-1.0-447.0-0.0","0","0","43986","","null","","","null","49","","","","","","","","","","","","","","","",""
"","ITI","","html-keyboard-response","326","428398","0.0-1.0-450.0","0","0","43986","","null","","","null","49","","","","","","","","","","","","","","","NaN",""
"","S1","","html-keyboard-response","327","428655","0.0-1.0-452.0","0","0","43986","","null","","","null","50","","","","","","","","","","","","","","","",""
"","ISI","","html-keyboard-response","328","430660","0.0-1.0-453.0","0","0","43986","","73","","","75","50","k","","","","","","","","","","","","","","",""
"","S2","","html-keyboard-response","329","430915","0.0-1.0-454.0","0","0","43986","","null","","","null","50","","NaN","","","","","","","","","","","","","",""
"","response","","html-keyboard-response","330","431674","0.0-1.0-455.0-0.0","0","0","43986","","757","","","75","50","","","2","50","training","adjacent","CD","3","4","Q.jpg","N.jpg","0","1","0","",""
"","feedback","","html-keyboard-response","331","432676","0.0-1.0-456.0-0.0","0","0","43986","","null","","","null","50","","","","","","","","","","","","","","","",""
"","time_out","","html-keyboard-response","332","434681","0.0-1.0-458.0-0.0","0","0","43986","","null","","","null","50","","","","","","","","","","","","","","","",""
"","ITI","","html-keyboard-response","333","435686","0.0-1.0-459.0","0","0","43986","","null","","","null","50","","","","","","","","","","","","","","","NaN",""
"","S1","","html-keyboard-response","334","435942","0.0-1.0-461.0","0","0","43986","","null","","","null","51","","","","","","","","","","","","","","","",""
"","ISI","","html-keyboard-response","335","437949","0.0-1.0-462.0","0","0","43986","","null","","","null","51","NaN","","","","","","","","","","","","","","",""
"","S2","","html-keyboard-response","336","438207","0.0-1.0-463.0","0","0","43986","","null","","","null","51","","NaN","","","","","","","","","","","","","",""
"","response","","html-keyboard-response","337","438592","0.0-1.0-464.0-0.0","0","0","43986","","383","","","75","51","","","2","51","training","adjacent","FG","6","7","M.jpg","R.jpg","0","1","0","",""
"","feedback","","html-keyboard-response","338","439598","0.0-1.0-465.0-0.0","0","0","43986","","null","","","null","51","","","","","","","","","","","","","","","",""
"","time_out","","html-keyboard-response","339","441600","0.0-1.0-467.0-0.0","0","0","43986","","null","","","null","51","","","","","","","","","","","","","","","",""
"","ITI","","html-keyboard-response","340","442603","0.0-1.0-468.0","0","0","43986","","null","","","null","51","","","","","","","","","","","","","","","NaN",""
"","S1","","html-keyboard-response","341","442859","0.0-1.0-470.0","0","0","43986","","null","","","null","52","","","","","","","","","","","","","","","",""
"","ISI","","html-keyboard-response","342","444863","0.0-1.0-471.0","0","0","43986","","null","","","null","52","NaN","","","","","","","","","","","","","","",""
"","S2","","html-keyboard-response","343","445116","0.0-1.0-472.0","0","0","43986","","null","","","null","52","","NaN","","","","","","","","","","","","","",""
"","response","","html-keyboard-response","344","445382","0.0-1.0-473.0-0.0","0","0","43986","","265","","","68","52","","","2","52","training","adjacent","CD","3","4","Q.jpg","N.jpg","1","1","1","",""
"","feedback","","html-keyboard-response","345","446388","0.0-1.0-474.0-0.0","0","0","43986","","null","","","null","52","","","","","","","","","","","","","","","",""
"","ITI","","html-keyboard-response","346","447394","0.0-1.0-477.0","0","0","43986","","null","","","null","52","","","","","","","","","","","","","","","NaN",""
"","S1","","html-keyboard-response","347","447650","0.0-1.0-479.0","0","0","43986","","null","","","null","53","","","","","","","","","","","","","","","",""
"","ISI","","html-keyboard-response","348","449653","0.0-1.0-480.0","0","0","43986","","null","","","null","53","NaN","","","","","","","","","","","","","","",""
"","S2","","html-keyboard-response","349","449908","0.0-1.0-481.0","0","0","43986","","null","","","null","53","","NaN","","","","","","","","","","","","","",""
"","response","","html-keyboard-response","350","450405","0.0-1.0-482.0-0.0","0","0","43986","","494","","","68","53","","","2","53","training","adjacent","BA","2","1","O.jpg","P.jpg","1","0","0","",""
"","feedback","","html-keyboard-response","351","451410","0.0-1.0-483.0-0.0","0","0","43986","","null","","","null","53","","","","","","","","","","","","","","","",""
"","time_out","","html-keyboard-response","352","453413","0.0-1.0-485.0-0.0","0","0","43986","","null","","","null","53","","","","","","","","","","","","","","","",""
"","ITI","","html-keyboard-response","353","454418","0.0-1.0-486.0","0","0","43986","","null","","","null","53","","","","","","","","","","","","","","","NaN",""
"","S1","","html-keyboard-response","354","454676","0.0-1.0-488.0","0","0","43986","","null","","","null","54","","","","","","","","","","","","","","","",""
"","ISI","","html-keyboard-response","355","456681","0.0-1.0-489.0","0","0","43986","","null","","","null","54","NaN","","","","","","","","","","","","","","",""
"","S2","","html-keyboard-response","356","456937","0.0-1.0-490.0","0","0","43986","","null","","","null","54","","NaN","","","","","","","","","","","","","",""
"","response","","html-keyboard-response","357","457408","0.0-1.0-491.0-0.0","0","0","43986","","466","","","68","54","","","2","54","training","adjacent","CB","3","2","Q.jpg","O.jpg","1","0","0","",""
"","feedback","","html-keyboard-response","358","458414","0.0-1.0-492.0-0.0","0","0","43986","","null","","","null","54","","","","","","","","","","","","","","","",""
"","time_out","","html-keyboard-response","359","460419","0.0-1.0-494.0-0.0","0","0","43986","","null","","","null","54","","","","","","","","","","","","","","","",""
"","ITI","","html-keyboard-response","360","461424","0.0-1.0-495.0","0","0","43986","","null","","","null","54","","","","","","","","","","","","","","","NaN",""
"","S1","","html-keyboard-response","361","461679","0.0-1.0-497.0","0","0","43986","","null","","","null","55","","","","","","","","","","","","","","","",""
"","ISI","","html-keyboard-response","362","463683","0.0-1.0-498.0","0","0","43986","","null","","","null","55","NaN","","","","","","","","","","","","","","",""
"","S2","","html-keyboard-response","363","463962","0.0-1.0-499.0","0","0","43986","","null","","","null","55","","NaN","","","","","","","","","","","","","",""
"","response","","html-keyboard-response","364","464354","0.0-1.0-500.0-0.0","0","0","43986","","389","","","68","55","","","2","55","training","adjacent","BC","2","3","O.jpg","Q.jpg","1","1","1","",""
"","feedback","","html-keyboard-response","365","465360","0.0-1.0-501.0-0.0","0","0","43986","","null","","","null","55","","","","","","","","","","","","","","","",""
"","ITI","","html-keyboard-response","366","466364","0.0-1.0-504.0","0","0","43986","","null","","","null","55","","","","","","","","","","","","","","","NaN",""
"","S1","","html-keyboard-response","367","466620","0.0-1.0-506.0","0","0","43986","","null","","","null","56","","","","","","","","","","","","","","","",""
"","ISI","","html-keyboard-response","368","468627","0.0-1.0-507.0","0","0","43986","","null","","","null","56","NaN","","","","","","","","","","","","","","",""
"","S2","","html-keyboard-response","369","468883","0.0-1.0-508.0","0","0","43986","","null","","","null","56","","NaN","","","","","","","","","","","","","",""
"","response","","html-keyboard-response","370","469316","0.0-1.0-509.0-0.0","0","0","43986","","430","","","75","56","","","2","56","training","adjacent","CB","3","2","Q.jpg","O.jpg","0","0","1","",""
"","feedback","","html-keyboard-response","371","470322","0.0-1.0-510.0-0.0","0","0","43986","","null","","","null","56","","","","","","","","","","","","","","","",""
"","ITI","","html-keyboard-response","372","471327","0.0-1.0-513.0","0","0","43986","","null","","","null","56","","","","","","","","","","","","","","","NaN",""
"","S1","","html-keyboard-response","373","471583","0.0-1.0-515.0","0","0","43986","","null","","","null","57","","","","","","","","","","","","","","","",""
"","ISI","","html-keyboard-response","374","473587","0.0-1.0-516.0","0","0","43986","","null","","","null","57","NaN","","","","","","","","","","","","","","",""
"","S2","","html-keyboard-response","375","473841","0.0-1.0-517.0","0","0","43986","","null","","","null","57","","NaN","","","","","","","","","","","","","",""
"","response","","html-keyboard-response","376","474314","0.0-1.0-518.0-0.0","0","0","43986","","472","","","75","57","","","2","57","training","adjacent","GF","7","6","R.jpg","M.jpg","0","0","1","",""
"","feedback","","html-keyboard-response","377","475317","0.0-1.0-519.0-0.0","0","0","43986","","null","","","null","57","","","","","","","","","","","","","","","",""
"","ITI","","html-keyboard-response","378","476324","0.0-1.0-522.0","0","0","43986","","null","","","null","57","","","","","","","","","","","","","","","NaN",""
"","S1","","html-keyboard-response","379","476580","0.0-1.0-524.0","0","0","43986","","null","","","null","58","","","","","","","","","","","","","","","",""
"","ISI","","html-keyboard-response","380","478586","0.0-1.0-525.0","0","0","43986","","null","","","null","58","NaN","","","","","","","","","","","","","","",""
"","S2","","html-keyboard-response","381","478840","0.0-1.0-526.0","0","0","43986","","null","","","null","58","","NaN","","","","","","","","","","","","","",""
"","response","","html-keyboard-response","382","479343","0.0-1.0-527.0-0.0","0","0","43986","","501","","","75","58","","","2","58","training","adjacent","DC","4","3","N.jpg","Q.jpg","0","0","1","",""
"","feedback","","html-keyboard-response","383","480350","0.0-1.0-528.0-0.0","0","0","43986","","null","","","null","58","","","","","","","","","","","","","","","",""
"","ITI","","html-keyboard-response","384","481357","0.0-1.0-531.0","0","0","43986","","null","","","null","58","","","","","","","","","","","","","","","NaN",""
"","S1","","html-keyboard-response","385","481611","0.0-1.0-533.0","0","0","43986","","null","","","null","59","","","","","","","","","","","","","","","",""
"","ISI","","html-keyboard-response","386","483615","0.0-1.0-534.0","0","0","43986","","null","","","null","59","NaN","","","","","","","","","","","","","","",""
"","S2","","html-keyboard-response","387","483873","0.0-1.0-535.0","0","0","43986","","null","","","null","59","","NaN","","","","","","","","","","","","","",""
"","response","","html-keyboard-response","388","484386","0.0-1.0-536.0-0.0","0","0","43986","","511","","","75","59","","","2","59","training","adjacent","BC","2","3","O.jpg","Q.jpg","0","1","0","",""
"","feedback","","html-keyboard-response","389","485393","0.0-1.0-537.0-0.0","0","0","43986","","null","","","null","59","","","","","","","","","","","","","","","",""
"","time_out","","html-keyboard-response","390","487400","0.0-1.0-539.0-0.0","0","0","43986","","null","","","null","59","","","","","","","","","","","","","","","",""
"","ITI","","html-keyboard-response","391","488407","0.0-1.0-540.0","0","0","43986","","null","","","null","59","","","","","","","","","","","","","","","NaN",""
"","S1","","html-keyboard-response","392","488661","0.0-1.0-542.0","0","0","43986","","null","","","null","60","","","","","","","","","","","","","","","",""
"","ISI","","html-keyboard-response","393","490669","0.0-1.0-543.0","0","0","43986","","null","","","null","60","NaN","","","","","","","","","","","","","","",""
"","S2","","html-keyboard-response","394","490925","0.0-1.0-544.0","0","0","43986","","null","","","null","60","","NaN","","","","","","","","","","","","","",""
"","response","","html-keyboard-response","395","491323","0.0-1.0-545.0-0.0","0","0","43986","","395","","","68","60","","","2","60","training","adjacent","CD","3","4","Q.jpg","N.jpg","1","1","1","",""
"","feedback","","html-keyboard-response","396","492330","0.0-1.0-546.0-0.0","0","0","43986","","null","","","null","60","","","","","","","","","","","","","","","",""
"","ITI","","html-keyboard-response","397","493333","0.0-1.0-549.0","0","0","43986","","null","","","null","60","","","","","","","","","","","","","","","NaN",""
"","S1","","html-keyboard-response","398","493589","0.0-1.0-551.0","0","0","43986","","null","","","null","61","","","","","","","","","","","","","","","",""
"","ISI","","html-keyboard-response","399","495597","0.0-1.0-552.0","0","0","43986","","null","","","null","61","NaN","","","","","","","","","","","","","","",""
"","S2","","html-keyboard-response","400","495854","0.0-1.0-553.0","0","0","43986","","null","","","null","61","","NaN","","","","","","","","","","","","","",""
"","response","","html-keyboard-response","401","496117","0.0-1.0-554.0-0.0","0","0","43986","","260","","","68","61","","","2","61","training","adjacent","ED","5","4","L.jpg","N.jpg","1","0","0","",""
"","feedback","","html-keyboard-response","402","497124","0.0-1.0-555.0-0.0","0","0","43986","","null","","","null","61","","","","","","","","","","","","","","","",""
"","time_out","","html-keyboard-response","403","499126","0.0-1.0-557.0-0.0","0","0","43986","","null","","","null","61","","","","","","","","","","","","","","","",""
"","ITI","","html-keyboard-response","404","500132","0.0-1.0-558.0","0","0","43986","","null","","","null","61","","","","","","","","","","","","","","","NaN",""
"","S1","","html-keyboard-response","405","500387","0.0-1.0-560.0","0","0","43986","","null","","","null","62","","","","","","","","","","","","","","","",""
"","ISI","","html-keyboard-response","406","502394","0.0-1.0-561.0","0","0","43986","","null","","","null","62","NaN","","","","","","","","","","","","","","",""
"","S2","","html-keyboard-response","407","502650","0.0-1.0-562.0","0","0","43986","","null","","","null","62","","NaN","","","","","","","","","","","","","",""
"","response","","html-keyboard-response","408","502991","0.0-1.0-563.0-0.0","0","0","43986","","339","","","75","62","","","2","62","training","adjacent","AB","1","2","P.jpg","O.jpg","0","1","0","",""
"","feedback","","html-keyboard-response","409","504000","0.0-1.0-564.0-0.0","0","0","43986","","null","","","null","62","","","","","","","","","","","","","","","",""
"","time_out","","html-keyboard-response","410","506007","0.0-1.0-566.0-0.0","0","0","43986","","null","","","null","62","","","","","","","","","","","","","","","",""
"","ITI","","html-keyboard-response","411","507009","0.0-1.0-567.0","0","0","43986","","null","","","null","62","","","","","","","","","","","","","","","NaN",""
"","S1","","html-keyboard-response","412","507271","0.0-1.0-569.0","0","0","43986","","null","","","null","63","","","","","","","","","","","","","","","",""
"","ISI","","html-keyboard-response","413","509272","0.0-1.0-570.0","0","0","43986","","474","","","68","63","d","","","","","","","","","","","","","","",""
"","S2","","html-keyboard-response","414","509531","0.0-1.0-571.0","0","0","43986","","null","","","null","63","","NaN","","","","","","","","","","","","","",""
"","response","","html-keyboard-response","415","509837","0.0-1.0-572.0-0.0","0","0","43986","","304","","","68","63","","","2","63","training","adjacent","EF","5","6","L.jpg","M.jpg","1","1","1","",""
"","feedback","","html-keyboard-response","416","510842","0.0-1.0-573.0-0.0","0","0","43986","","null","","","null","63","","","","","","","","","","","","","","","",""
"","ITI","","html-keyboard-response","417","511845","0.0-1.0-576.0","0","0","43986","","null","","","null","63","","","","","","","","","","","","","","","NaN",""
"","S1","","html-keyboard-response","418","512100","0.0-1.0-578.0","0","0","43986","","null","","","null","64","","","","","","","","","","","","","","","",""
"","ISI","","html-keyboard-response","419","514106","0.0-1.0-579.0","0","0","43986","","null","","","null","64","NaN","","","","","","","","","","","","","","",""
"","S2","","html-keyboard-response","420","514358","0.0-1.0-580.0","0","0","43986","","null","","","null","64","","NaN","","","","","","","","","","","","","",""
"","response","","html-keyboard-response","421","514891","0.0-1.0-581.0-0.0","0","0","43986","","531","","","75","64","","","2","64","training","adjacent","FE","6","5","M.jpg","L.jpg","0","0","1","",""
"","feedback","","html-keyboard-response","422","515897","0.0-1.0-582.0-0.0","0","0","43986","","null","","","null","64","","","","","","","","","","","","","","","",""
"","ITI","","html-keyboard-response","423","516905","0.0-1.0-585.0","0","0","43986","","null","","","null","64","","","","","","","","","","","","","","","NaN",""
"","S1","","html-keyboard-response","424","517157","0.0-1.0-587.0","0","0","43986","","null","","","null","65","","","","","","","","","","","","","","","",""
"","ISI","","html-keyboard-response","425","519160","0.0-1.0-588.0","0","0","43986","","null","","","null","65","NaN","","","","","","","","","","","","","","",""
"","S2","","html-keyboard-response","426","519415","0.0-1.0-589.0","0","0","43986","","null","","","null","65","","NaN","","","","","","","","","","","","","",""
"","response","","html-keyboard-response","427","519844","0.0-1.0-590.0-0.0","0","0","43986","","426","","","68","65","","","2","65","training","adjacent","BC","2","3","O.jpg","Q.jpg","1","1","1","",""
"","feedback","","html-keyboard-response","428","520849","0.0-1.0-591.0-0.0","0","0","43986","","null","","","null","65","","","","","","","","","","","","","","","",""
"","ITI","","html-keyboard-response","429","521856","0.0-1.0-594.0","0","0","43986","","null","","","null","65","","","","","","","","","","","","","","","NaN",""
"","S1","","html-keyboard-response","430","522113","0.0-1.0-596.0","0","0","43986","","null","","","null","66","","","","","","","","","","","","","","","",""
"","ISI","","html-keyboard-response","431","524116","0.0-1.0-597.0","0","0","43986","","null","","","null","66","NaN","","","","","","","","","","","","","","",""
"","S2","","html-keyboard-response","432","524372","0.0-1.0-598.0","0","0","43986","","null","","","null","66","","NaN","","","","","","","","","","","","","",""
"","response","","html-keyboard-response","433","526126","0.0-1.0-599.0-0.0","0","0","43986","","null","","","null","66","","","2","66","training","adjacent","DC","4","3","N.jpg","Q.jpg","NaN","0","0","",""
"","too_slow_prompt","","html-keyboard-response","434","527129","0.0-1.0-601.0-0.0","1","0","43986","","null","","","null","","","","","","","","","","","","","","","","",""
"","time_out","","html-keyboard-response","435","529132","0.0-1.0-602.0-0.0","0","0","43986","","null","","","null","66","","","","","","","","","","","","","","","",""
"","ITI","","html-keyboard-response","436","530137","0.0-1.0-603.0","0","0","43986","","null","","","null","66","","","","","","","","","","","","","","","NaN",""
"","S1","","html-keyboard-response","437","530391","0.0-1.0-605.0","0","0","43986","","null","","","null","67","","","","","","","","","","","","","","","",""
"","ISI","","html-keyboard-response","438","532394","0.0-1.0-606.0","0","0","43986","","null","","","null","67","NaN","","","","","","","","","","","","","","",""
"","S2","","html-keyboard-response","439","532649","0.0-1.0-607.0","0","0","43986","","null","","","null","67","","NaN","","","","","","","","","","","","","",""
"","response","","html-keyboard-response","440","532970","0.0-1.0-608.0-0.0","0","0","43986","","319","","","75","67","","","2","67","training","adjacent","CD","3","4","Q.jpg","N.jpg","0","1","0","",""
"","feedback","","html-keyboard-response","441","533973","0.0-1.0-609.0-0.0","0","0","43986","","null","","","null","67","","","","","","","","","","","","","","","",""
"","time_out","","html-keyboard-response","442","535976","0.0-1.0-611.0-0.0","0","0","43986","","null","","","null","67","","","","","","","","","","","","","","","",""
"","ITI","","html-keyboard-response","443","536981","0.0-1.0-612.0","0","0","43986","","null","","","null","67","","","","","","","","","","","","","","","NaN",""
"","S1","","html-keyboard-response","444","537239","0.0-1.0-614.0","0","0","43986","","null","","","null","68","","","","","","","","","","","","","","","",""
"","ISI","","html-keyboard-response","445","539244","0.0-1.0-615.0","0","0","43986","","null","","","null","68","NaN","","","","","","","","","","","","","","",""
"","S2","","html-keyboard-response","446","539513","0.0-1.0-616.0","0","0","43986","","null","","","null","68","","NaN","","","","","","","","","","","","","",""
"","response","","html-keyboard-response","447","539854","0.0-1.0-617.0-0.0","0","0","43986","","339","","","75","68","","","2","68","training","adjacent","FG","6","7","M.jpg","R.jpg","0","1","0","",""
"","feedback","","html-keyboard-response","448","540858","0.0-1.0-618.0-0.0","0","0","43986","","null","","","null","68","","","","","","","","","","","","","","","",""
"","time_out","","html-keyboard-response","449","542863","0.0-1.0-620.0-0.0","0","0","43986","","null","","","null","68","","","","","","","","","","","","","","","",""
"","ITI","","html-keyboard-response","450","543870","0.0-1.0-621.0","0","0","43986","","null","","","null","68","","","","","","","","","","","","","","","NaN",""
"","S1","","html-keyboard-response","451","544126","0.0-1.0-623.0","0","0","43986","","null","","","null","69","","","","","","","","","","","","","","","",""
"","ISI","","html-keyboard-response","452","546133","0.0-1.0-624.0","0","0","43986","","null","","","null","69","NaN","","","","","","","","","","","","","","",""
"","S2","","html-keyboard-response","453","546389","0.0-1.0-625.0","0","0","43986","","null","","","null","69","","NaN","","","","","","","","","","","","","",""
"","response","","html-keyboard-response","454","546913","0.0-1.0-626.0-0.0","0","0","43986","","523","","","75","69","","","2","69","training","adjacent","EF","5","6","L.jpg","M.jpg","0","1","0","",""
"","feedback","","html-keyboard-response","455","547924","0.0-1.0-627.0-0.0","0","0","43986","","null","","","null","69","","","","","","","","","","","","","","","",""
"","time_out","","html-keyboard-response","456","549931","0.0-1.0-629.0-0.0","0","0","43986","","null","","","null","69","","","","","","","","","","","","","","","",""
"","ITI","","html-keyboard-response","457","550935","0.0-1.0-630.0","0","0","43986","","null","","","null","69","","","","","","","","","","","","","","","NaN",""
"","S1","","html-keyboard-response","458","551198","0.0-1.0-632.0","0","0","43986","","null","","","null","70","","","","","","","","","","","","","","","",""
"","ISI","","html-keyboard-response","459","553204","0.0-1.0-633.0","0","0","43986","","null","","","null","70","NaN","","","","","","","","","","","","","","",""
"","S2","","html-keyboard-response","460","553460","0.0-1.0-634.0","0","0","43986","","null","","","null","70","","NaN","","","","","","","","","","","","","",""
"","response","","html-keyboard-response","461","553965","0.0-1.0-635.0-0.0","0","0","43986","","504","","","75","70","","","2","70","training","adjacent","BA","2","1","O.jpg","P.jpg","0","0","1","",""
"","feedback","","html-keyboard-response","462","554972","0.0-1.0-636.0-0.0","0","0","43986","","null","","","null","70","","","","","","","","","","","","","","","",""
"","ITI","","html-keyboard-response","463","555979","0.0-1.0-639.0","0","0","43986","","null","","","null","70","","","","","","","","","","","","","","","NaN",""
"","S1","","html-keyboard-response","464","556234","0.0-1.0-641.0","0","0","43986","","null","","","null","71","","","","","","","","","","","","","","","",""
"","ISI","","html-keyboard-response","465","558239","0.0-1.0-642.0","0","0","43986","","null","","","null","71","NaN","","","","","","","","","","","","","","",""
"","S2","","html-keyboard-response","466","558493","0.0-1.0-643.0","0","0","43986","","null","","","null","71","","NaN","","","","","","","","","","","","","",""
"","response","","html-keyboard-response","467","558941","0.0-1.0-644.0-0.0","0","0","43986","","446","","","75","71","","","2","71","training","adjacent","GF","7","6","R.jpg","M.jpg","0","0","1","",""
"","feedback","","html-keyboard-response","468","559945","0.0-1.0-645.0-0.0","0","0","43986","","null","","","null","71","","","","","","","","","","","","","","","",""
"","ITI","","html-keyboard-response","469","560949","0.0-1.0-648.0","0","0","43986","","null","","","null","71","","","","","","","","","","","","","","","NaN",""
"","S1","","html-keyboard-response","470","561204","0.0-1.0-650.0","0","0","43986","","null","","","null","72","","","","","","","","","","","","","","","",""
"","ISI","","html-keyboard-response","471","563211","0.0-1.0-651.0","0","0","43986","","null","","","null","72","NaN","","","","","","","","","","","","","","",""
"","S2","","html-keyboard-response","472","563468","0.0-1.0-652.0","0","0","43986","","null","","","null","72","","NaN","","","","","","","","","","","","","",""
"","response","","html-keyboard-response","473","563864","0.0-1.0-653.0-0.0","0","0","43986","","394","","","75","72","","","2","72","training","adjacent","FG","6","7","M.jpg","R.jpg","0","1","0","",""
"","feedback","","html-keyboard-response","474","564871","0.0-1.0-654.0-0.0","0","0","43986","","null","","","null","72","","","","","","","","","","","","","","","",""
"","time_out","","html-keyboard-response","475","566875","0.0-1.0-656.0-0.0","0","0","43986","","null","","","null","72","","","","","","","","","","","","","","","",""
"","ITI","","html-keyboard-response","476","567880","0.0-1.0-657.0","0","0","43986","","null","","","null","72","","","","","","","","","","","","","","","NaN",""
"","S1","","html-keyboard-response","477","568135","0.0-1.0-659.0","0","0","43986","","null","","","null","73","","","","","","","","","","","","","","","",""
"","ISI","","html-keyboard-response","478","570138","0.0-1.0-660.0","0","0","43986","","null","","","null","73","NaN","","","","","","","","","","","","","","",""
"","S2","","html-keyboard-response","479","570393","0.0-1.0-661.0","0","0","43986","","null","","","null","73","","NaN","","","","","","","","","","","","","",""
"","response","","html-keyboard-response","480","570419","0.0-1.0-662.0-0.0","0","0","43986","","23","","","68","73","","","2","73","training","adjacent","DE","4","5","N.jpg","L.jpg","1","1","1","",""
"","feedback","","html-keyboard-response","481","571427","0.0-1.0-663.0-0.0","0","0","43986","","null","","","null","73","","","","","","","","","","","","","","","",""
"","ITI","","html-keyboard-response","482","572438","0.0-1.0-666.0","0","0","43986","","null","","","null","73","","","","","","","","","","","","","","","NaN",""
"","S1","","html-keyboard-response","483","572692","0.0-1.0-668.0","0","0","43986","","null","","","null","74","","","","","","","","","","","","","","","",""
"","ISI","","html-keyboard-response","484","574693","0.0-1.0-669.0","0","0","43986","","null","","","null","74","NaN","","","","","","","","","","","","","","",""
"","S2","","html-keyboard-response","485","574949","0.0-1.0-670.0","0","0","43986","","null","","","null","74","","NaN","","","","","","","","","","","","","",""
"","response","","html-keyboard-response","486","575428","0.0-1.0-671.0-0.0","0","0","43986","","478","","","75","74","","","2","74","training","adjacent","AB","1","2","P.jpg","O.jpg","0","1","0","",""
"","feedback","","html-keyboard-response","487","576435","0.0-1.0-672.0-0.0","0","0","43986","","null","","","null","74","","","","","","","","","","","","","","","",""
"","time_out","","html-keyboard-response","488","578442","0.0-1.0-674.0-0.0","0","0","43986","","null","","","null","74","","","","","","","","","","","","","","","",""
"","ITI","","html-keyboard-response","489","579449","0.0-1.0-675.0","0","0","43986","","null","","","null","74","","","","","","","","","","","","","","","NaN",""
"","S1","","html-keyboard-response","490","579705","0.0-1.0-677.0","0","0","43986","","null","","","null","75","","","","","","","","","","","","","","","",""
"","ISI","","html-keyboard-response","491","581711","0.0-1.0-678.0","0","0","43986","","null","","","null","75","NaN","","","","","","","","","","","","","","",""
"","S2","","html-keyboard-response","492","581967","0.0-1.0-679.0","0","0","43986","","null","","","null","75","","NaN","","","","","","","","","","","","","",""
"","response","","html-keyboard-response","493","581969","0.0-1.0-680.0-0.0","0","0","43986","","0","","","75","75","","","2","75","training","adjacent","FG","6","7","M.jpg","R.jpg","0","1","0","",""
"","feedback","","html-keyboard-response","494","582974","0.0-1.0-681.0-0.0","0","0","43986","","null","","","null","75","","","","","","","","","","","","","","","",""
"","time_out","","html-keyboard-response","495","584980","0.0-1.0-683.0-0.0","0","0","43986","","null","","","null","75","","","","","","","","","","","","","","","",""
"","ITI","","html-keyboard-response","496","585985","0.0-1.0-684.0","0","0","43986","","null","","","null","75","","","","","","","","","","","","","","","NaN",""
"","S1","","html-keyboard-response","497","586240","0.0-1.0-686.0","0","0","43986","","null","","","null","76","","","","","","","","","","","","","","","",""
"","ISI","","html-keyboard-response","498","588246","0.0-1.0-687.0","0","0","43986","","null","","","null","76","NaN","","","","","","","","","","","","","","",""
"","S2","","html-keyboard-response","499","588503","0.0-1.0-688.0","0","0","43986","","null","","","null","76","","NaN","","","","","","","","","","","","","",""
"","response","","html-keyboard-response","500","588886","0.0-1.0-689.0-0.0","0","0","43986","","382","","","68","76","","","2","76","training","adjacent","CB","3","2","Q.jpg","O.jpg","1","0","0","",""
"","feedback","","html-keyboard-response","501","589892","0.0-1.0-690.0-0.0","0","0","43986","","null","","","null","76","","","","","","","","","","","","","","","",""
"","time_out","","html-keyboard-response","502","591898","0.0-1.0-692.0-0.0","0","0","43986","","null","","","null","76","","","","","","","","","","","","","","","",""
"","ITI","","html-keyboard-response","503","592904","0.0-1.0-693.0","0","0","43986","","null","","","null","76","","","","","","","","","","","","","","","NaN",""
"","S1","","html-keyboard-response","504","593160","0.0-1.0-695.0","0","0","43986","","null","","","null","77","","","","","","","","","","","","","","","",""
"","ISI","","html-keyboard-response","505","595162","0.0-1.0-696.0","0","0","43986","","null","","","null","77","NaN","","","","","","","","","","","","","","",""
"","S2","","html-keyboard-response","506","595415","0.0-1.0-697.0","0","0","43986","","null","","","null","77","","NaN","","","","","","","","","","","","","",""
"","response","","html-keyboard-response","507","595768","0.0-1.0-698.0-0.0","0","0","43986","","351","","","68","77","","","2","77","training","adjacent","EF","5","6","L.jpg","M.jpg","1","1","1","",""
"","feedback","","html-keyboard-response","508","596775","0.0-1.0-699.0-0.0","0","0","43986","","null","","","null","77","","","","","","","","","","","","","","","",""
"","ITI","","html-keyboard-response","509","597780","0.0-1.0-702.0","0","0","43986","","null","","","null","77","","","","","","","","","","","","","","","NaN",""
"","S1","","html-keyboard-response","510","598043","0.0-1.0-704.0","0","0","43986","","null","","","null","78","","","","","","","","","","","","","","","",""
"","ISI","","html-keyboard-response","511","600049","0.0-1.0-705.0","0","0","43986","","null","","","null","78","NaN","","","","","","","","","","","","","","",""
"","S2","","html-keyboard-response","512","600306","0.0-1.0-706.0","0","0","43986","","null","","","null","78","","NaN","","","","","","","","","","","","","",""
"","response","","html-keyboard-response","513","600628","0.0-1.0-707.0-0.0","0","0","43986","","319","","","68","78","","","2","78","training","adjacent","DC","4","3","N.jpg","Q.jpg","1","0","0","",""
"","feedback","","html-keyboard-response","514","601635","0.0-1.0-708.0-0.0","0","0","43986","","null","","","null","78","","","","","","","","","","","","","","","",""
"","time_out","","html-keyboard-response","515","603642","0.0-1.0-710.0-0.0","0","0","43986","","null","","","null","78","","","","","","","","","","","","","","","",""
"","ITI","","html-keyboard-response","516","604647","0.0-1.0-711.0","0","0","43986","","null","","","null","78","","","","","","","","","","","","","","","NaN",""
"","S1","","html-keyboard-response","517","605134","0.0-1.0-713.0","0","0","43986","","null","","","null","79","","","","","","","","","","","","","","","",""
"","ISI","","html-keyboard-response","518","607141","0.0-1.0-714.0","0","0","43986","","null","","","null","79","NaN","","","","","","","","","","","","","","",""
"","S2","","html-keyboard-response","519","607399","0.0-1.0-715.0","0","0","43986","","null","","","null","79","","NaN","","","","","","","","","","","","","",""
"","response","","html-keyboard-response","520","607403","0.0-1.0-716.0-0.0","0","0","43986","","2","","","68","79","","","2","79","training","adjacent","DC","4","3","N.jpg","Q.jpg","1","0","0","",""
"","feedback","","html-keyboard-response","521","608407","0.0-1.0-717.0-0.0","0","0","43986","","null","","","null","79","","","","","","","","","","","","","","","",""
"","time_out","","html-keyboard-response","522","610413","0.0-1.0-719.0-0.0","0","0","43986","","null","","","null","79","","","","","","","","","","","","","","","",""
"","ITI","","html-keyboard-response","523","611420","0.0-1.0-720.0","0","0","43986","","null","","","null","79","","","","","","","","","","","","","","","NaN",""
"","S1","","html-keyboard-response","524","611676","0.0-1.0-722.0","0","0","43986","","null","","","null","80","","","","","","","","","","","","","","","",""
"","ISI","","html-keyboard-response","525","613683","0.0-1.0-723.0","0","0","43986","","null","","","null","80","NaN","","","","","","","","","","","","","","",""
"","S2","","html-keyboard-response","526","613940","0.0-1.0-724.0","0","0","43986","","null","","","null","80","","NaN","","","","","","","","","","","","","",""
"","response","","html-keyboard-response","527","613960","0.0-1.0-725.0-0.0","0","0","43986","","18","","","68","80","","","2","80","training","adjacent","BC","2","3","O.jpg","Q.jpg","1","1","1","",""
"","feedback","","html-keyboard-response","528","614966","0.0-1.0-726.0-0.0","0","0","43986","","null","","","null","80","","","","","","","","","","","","","","","",""
"","ITI","","html-keyboard-response","529","615972","0.0-1.0-729.0","0","0","43986","","null","","","null","80","","","","","","","","","","","","","","","NaN",""
"","S1","","html-keyboard-response","530","616227","0.0-1.0-731.0","0","0","43986","","null","","","null","81","","","","","","","","","","","","","","","",""
"","ISI","","html-keyboard-response","531","618230","0.0-1.0-732.0","0","0","43986","","null","","","null","81","NaN","","","","","","","","","","","","","","",""
"","S2","","html-keyboard-response","532","618486","0.0-1.0-733.0","0","0","43986","","null","","","null","81","","NaN","","","","","","","","","","","","","",""
"","response","","html-keyboard-response","533","620239","0.0-1.0-734.0-0.0","0","0","43986","","null","","","null","81","","","2","81","training","adjacent","CB","3","2","Q.jpg","O.jpg","NaN","0","0","",""
"","too_slow_prompt","","html-keyboard-response","534","621248","0.0-1.0-736.0-0.0","1","0","43986","","null","","","null","","","","","","","","","","","","","","","","",""
"","time_out","","html-keyboard-response","535","623252","0.0-1.0-737.0-0.0","0","0","43986","","null","","","null","81","","","","","","","","","","","","","","","",""
"","ITI","","html-keyboard-response","536","624256","0.0-1.0-738.0","0","0","43986","","null","","","null","81","","","","","","","","","","","","","","","NaN",""
"","S1","","html-keyboard-response","537","624512","0.0-1.0-740.0","0","0","43986","","null","","","null","82","","","","","","","","","","","","","","","",""
"","ISI","","html-keyboard-response","538","626519","0.0-1.0-741.0","0","0","43986","","null","","","null","82","NaN","","","","","","","","","","","","","","",""
"","S2","","html-keyboard-response","539","626775","0.0-1.0-742.0","0","0","43986","","null","","","null","82","","NaN","","","","","","","","","","","","","",""
"","response","","html-keyboard-response","540","627205","0.0-1.0-743.0-0.0","0","0","43986","","428","","","68","82","","","2","82","training","adjacent","FE","6","5","M.jpg","L.jpg","1","0","0","",""
"","feedback","","html-keyboard-response","541","628213","0.0-1.0-744.0-0.0","0","0","43986","","null","","","null","82","","","","","","","","","","","","","","","",""
"","time_out","","html-keyboard-response","542","630217","0.0-1.0-746.0-0.0","0","0","43986","","null","","","null","82","","","","","","","","","","","","","","","",""
"","ITI","","html-keyboard-response","543","631222","0.0-1.0-747.0","0","0","43986","","null","","","null","82","","","","","","","","","","","","","","","NaN",""
"","S1","","html-keyboard-response","544","631478","0.0-1.0-749.0","0","0","43986","","null","","","null","83","","","","","","","","","","","","","","","",""
"","ISI","","html-keyboard-response","545","633485","0.0-1.0-750.0","0","0","43986","","null","","","null","83","NaN","","","","","","","","","","","","","","",""
"","S2","","html-keyboard-response","546","633743","0.0-1.0-751.0","0","0","43986","","null","","","null","83","","NaN","","","","","","","","","","","","","",""
"","response","","html-keyboard-response","547","634150","0.0-1.0-752.0-0.0","0","0","43986","","405","","","75","83","","","2","83","training","adjacent","AB","1","2","P.jpg","O.jpg","0","1","0","",""
"","feedback","","html-keyboard-response","548","635157","0.0-1.0-753.0-0.0","0","0","43986","","null","","","null","83","","","","","","","","","","","","","","","",""
"","time_out","","html-keyboard-response","549","637165","0.0-1.0-755.0-0.0","0","0","43986","","null","","","null","83","","","","","","","","","","","","","","","",""
"","ITI","","html-keyboard-response","550","638169","0.0-1.0-756.0","0","0","43986","","null","","","null","83","","","","","","","","","","","","","","","NaN",""
"","S1","","html-keyboard-response","551","638426","0.0-1.0-758.0","0","0","43986","","null","","","null","84","","","","","","","","","","","","","","","",""
"","ISI","","html-keyboard-response","552","640433","0.0-1.0-759.0","0","0","43986","","null","","","null","84","NaN","","","","","","","","","","","","","","",""
"","S2","","html-keyboard-response","553","640689","0.0-1.0-760.0","0","0","43986","","null","","","null","84","","NaN","","","","","","","","","","","","","",""
"","response","","html-keyboard-response","554","640932","0.0-1.0-761.0-0.0","0","0","43986","","242","","","75","84","","","2","84","training","adjacent","ED","5","4","L.jpg","N.jpg","0","0","1","",""
"","feedback","","html-keyboard-response","555","641944","0.0-1.0-762.0-0.0","0","0","43986","","null","","","null","84","","","","","","","","","","","","","","","",""
"","ITI","","html-keyboard-response","556","642953","0.0-1.0-765.0","0","0","43986","","null","","","null","84","","","","","","","","","","","","","","","NaN",""
"","S1","","html-keyboard-response","557","643207","0.0-1.0-767.0","0","0","43986","","null","","","null","85","","","","","","","","","","","","","","","",""
"","ISI","","html-keyboard-response","558","645212","0.0-1.0-768.0","0","0","43986","","null","","","null","85","NaN","","","","","","","","","","","","","","",""
"","S2","","html-keyboard-response","559","645466","0.0-1.0-769.0","0","0","43986","","null","","","null","85","","NaN","","","","","","","","","","","","","",""
"","response","","html-keyboard-response","560","645911","0.0-1.0-770.0-0.0","0","0","43986","","443","","","68","85","","","2","85","training","adjacent","BA","2","1","O.jpg","P.jpg","1","0","0","",""
"","feedback","","html-keyboard-response","561","646917","0.0-1.0-771.0-0.0","0","0","43986","","null","","","null","85","","","","","","","","","","","","","","","",""
"","time_out","","html-keyboard-response","562","648927","0.0-1.0-773.0-0.0","0","0","43986","","null","","","null","85","","","","","","","","","","","","","","","",""
"","ITI","","html-keyboard-response","563","649932","0.0-1.0-774.0","0","0","43986","","null","","","null","85","","","","","","","","","","","","","","","NaN",""
"","S1","","html-keyboard-response","564","650185","0.0-1.0-776.0","0","0","43986","","null","","","null","86","","","","","","","","","","","","","","","",""
"","ISI","","html-keyboard-response","565","652191","0.0-1.0-777.0","0","0","43986","","null","","","null","86","NaN","","","","","","","","","","","","","","",""
"","S2","","html-keyboard-response","566","652446","0.0-1.0-778.0","0","0","43986","","null","","","null","86","","NaN","","","","","","","","","","","","","",""
"","response","","html-keyboard-response","567","652931","0.0-1.0-779.0-0.0","0","0","43986","","483","","","68","86","","","2","86","training","adjacent","AB","1","2","P.jpg","O.jpg","1","1","1","",""
"","feedback","","html-keyboard-response","568","653935","0.0-1.0-780.0-0.0","0","0","43986","","null","","","null","86","","","","","","","","","","","","","","","",""
"","ITI","","html-keyboard-response","569","654941","0.0-1.0-783.0","0","0","43986","","null","","","null","86","","","","","","","","","","","","","","","NaN",""
"","S1","","html-keyboard-response","570","655198","0.0-1.0-785.0","0","0","43986","","null","","","null","87","","","","","","","","","","","","","","","",""
"","ISI","","html-keyboard-response","571","657200","0.0-1.0-786.0","0","0","43986","","null","","","null","87","NaN","","","","","","","","","","","","","","",""
"","S2","","html-keyboard-response","572","657453","0.0-1.0-787.0","0","0","43986","","null","","","null","87","","NaN","","","","","","","","","","","","","",""
"","response","","html-keyboard-response","573","657817","0.0-1.0-788.0-0.0","0","0","43986","","362","","","68","87","","","2","87","training","adjacent","GF","7","6","R.jpg","M.jpg","1","0","0","",""
"","feedback","","html-keyboard-response","574","658823","0.0-1.0-789.0-0.0","0","0","43986","","null","","","null","87","","","","","","","","","","","","","","","",""
"","time_out","","html-keyboard-response","575","660831","0.0-1.0-791.0-0.0","0","0","43986","","null","","","null","87","","","","","","","","","","","","","","","",""
"","ITI","","html-keyboard-response","576","661836","0.0-1.0-792.0","0","0","43986","","null","","","null","87","","","","","","","","","","","","","","","NaN",""
"","S1","","html-keyboard-response","577","662091","0.0-1.0-794.0","0","0","43986","","null","","","null","88","","","","","","","","","","","","","","","",""
"","ISI","","html-keyboard-response","578","664096","0.0-1.0-795.0","0","0","43986","","null","","","null","88","NaN","","","","","","","","","","","","","","",""
"","S2","","html-keyboard-response","579","664352","0.0-1.0-796.0","0","0","43986","","null","","","null","88","","NaN","","","","","","","","","","","","","",""
"","response","","html-keyboard-response","580","664726","0.0-1.0-797.0-0.0","0","0","43986","","372","","","75","88","","","2","88","training","adjacent","DE","4","5","N.jpg","L.jpg","0","1","0","",""
