"success","ttype","start_time","trial_type","trial_index","time_elapsed","internal_node_id","warning","missed_checkup","PID","view_history","rt","responses","repeat_instructions","key_press","index","keypress_isi","keypress_S2","block","trial_num","phase","group_type","pair_type","S1_stim","S2_stim","S1_img","S2_img","S1_chosen","S1_higher","accuracy","keypress_iti","total_bonus_tally"
"true","full_screen","d08012022hr1349","fullscreen","0","20137","0.0-0.0","0","0","38558","","","","","","","","","","","","","","","","","","","","","",""
"","instructions","","instructions","1","72344","0.0-1.0-0.0-0.0","0","0","38558","[{""page_index"":0,""viewing_time"":5191},{""page_index"":1,""viewing_time"":28326},{""page_index"":2,""viewing_time"":7472},{""page_index"":3,""viewing_time"":2448},{""page_index"":2,""viewing_time"":7959},{""page_index"":3,""viewing_time"":808}]","52205","","","","","","","","","","","","","","","","","","","",""
"","comprehension_check","","survey-multi-choice","2","112879","0.0-1.0-0.0-1.0","0","0","38558","","40530","{""Q0"":""True"",""Q1"":""D"",""Q2"":""When you see the prompt 'MAKE A CHOICE' after the second image was presented"",""Q3"":""Green mark"",""Q4"":""either D or K""}","0","","","","","","","","","","","","","","","","","",""
"","start_exp","","html-keyboard-response","3","115596","0.0-1.0-1.0","0","0","38558","","2711","","","32","","","","","","","","","","","","","","","","",""
"","S1","","html-keyboard-response","4","115855","0.0-1.0-2.0","0","0","38558","","null","","","null","0","","","","","","","","","","","","","","","",""
"","ISI","","html-keyboard-response","5","117859","0.0-1.0-3.0","0","0","38558","","null","","","null","0","NaN","","","","","","","","","","","","","","",""
"","S2","","html-keyboard-response","6","118116","0.0-1.0-4.0","0","0","38558","","null","","","null","0","","NaN","","","","","","","","","","","","","",""
"","response","","html-keyboard-response","7","120121","0.0-1.0-5.0","0","0","38558","","null","","","null","0","","","1","0","training","adjacent","FG","6","7","N.jpg","O.jpg","NaN","1","0","",""
"","too_slow_prompt","","html-keyboard-response","8","121128","0.0-1.0-7.0-0.0","1","0","38558","","null","","","null","","","","","","","","","","","","","","","","",""
"","time_out","","html-keyboard-response","9","123135","0.0-1.0-8.0-0.0","0","0","38558","","null","","","null","0","","","","","","","","","","","","","","","",""
"","ITI","","html-keyboard-response","10","124142","0.0-1.0-9.0","0","0","38558","","null","","","null","0","","","","","","","","","","","","","","","NaN",""
"","S1","","html-keyboard-response","11","124398","0.0-1.0-11.0","0","0","38558","","null","","","null","1","","","","","","","","","","","","","","","",""
"","ISI","","html-keyboard-response","12","126403","0.0-1.0-12.0","0","0","38558","","1590","","","68","1","d","","","","","","","","","","","","","","",""
"","S2","","html-keyboard-response","13","126660","0.0-1.0-13.0","0","0","38558","","null","","","null","1","","NaN","","","","","","","","","","","","","",""
"","response","","html-keyboard-response","14","127272","0.0-1.0-14.0","0","0","38558","","610","","","68","1","","","1","1","training","adjacent","FE","6","5","N.jpg","Q.jpg","1","0","0","",""
"","feedback","","html-keyboard-response","15","128280","0.0-1.0-15.0-0.0","0","0","38558","","null","","","null","1","","","","","","","","","","","","","","","",""
"","time_out","","html-keyboard-response","16","130286","0.0-1.0-17.0-0.0","0","0","38558","","null","","","null","1","","","","","","","","","","","","","","","",""
"","ITI","","html-keyboard-response","17","131294","0.0-1.0-18.0","0","0","38558","","null","","","null","1","","","","","","","","","","","","","","","NaN",""
"","S1","","html-keyboard-response","18","131550","0.0-1.0-20.0","0","0","38558","","null","","","null","2","","","","","","","","","","","","","","","",""
"","ISI","","html-keyboard-response","19","133557","0.0-1.0-21.0","0","0","38558","","null","","","null","2","NaN","","","","","","","","","","","","","","",""
"","S2","","html-keyboard-response","20","133811","0.0-1.0-22.0","0","0","38558","","null","","","null","2","","NaN","","","","","","","","","","","","","",""
"","response","","html-keyboard-response","21","135816","0.0-1.0-23.0","0","0","38558","","null","","","null","2","","","1","2","training","adjacent","BA","2","1","M.jpg","L.jpg","NaN","0","0","",""
"","too_slow_prompt","","html-keyboard-response","22","136819","0.0-1.0-25.0-0.0","1","0","38558","","null","","","null","","","","","","","","","","","","","","","","",""
"","time_out","","html-keyboard-response","23","138824","0.0-1.0-26.0-0.0","0","0","38558","","null","","","null","2","","","","","","","","","","","","","","","",""
"","ITI","","html-keyboard-response","24","139831","0.0-1.0-27.0","0","0","38558","","null","","","null","2","","","","","","","","","","","","","","","NaN",""
"","S1","","html-keyboard-response","25","140088","0.0-1.0-29.0","0","0","38558","","null","","","null","3","","","","","","","","","","","","","","","",""
"","ISI","","html-keyboard-response","26","142094","0.0-1.0-30.0","0","0","38558","","1874","","","75","3","k","","","","","","","","","","","","","","",""
"","S2","","html-keyboard-response","27","142350","0.0-1.0-31.0","0","0","38558","","null","","","null","3","","NaN","","","","","","","","","","","","","",""
"","response","","html-keyboard-response","28","142729","0.0-1.0-32.0","0","0","38558","","376","","","75","3","","","1","3","training","adjacent","CD","3","4","R.jpg","P.jpg","0","1","0","",""
"","feedback","","html-keyboard-response","29","143736","0.0-1.0-33.0-0.0","0","0","38558","","null","","","null","3","","","","","","","","","","","","","","","",""
"","time_out","","html-keyboard-response","30","145742","0.0-1.0-35.0-0.0","0","0","38558","","null","","","null","3","","","","","","","","","","","","","","","",""
"","ITI","","html-keyboard-response","31","146749","0.0-1.0-36.0","0","0","38558","","null","","","null","3","","","","","","","","","","","","","","","NaN",""
"","S1","","html-keyboard-response","32","147005","0.0-1.0-38.0","0","0","38558","","null","","","null","4","","","","","","","","","","","","","","","",""
"","ISI","","html-keyboard-response","33","149011","0.0-1.0-39.0","0","0","38558","","null","","","null","4","NaN","","","","","","","","","","","","","","",""
"","S2","","html-keyboard-response","34","149265","0.0-1.0-40.0","0","0","38558","","242","","","68","4","","d","","","","","","","","","","","","","",""
"","response","","html-keyboard-response","35","150108","0.0-1.0-41.0","0","0","38558","","840","","","68","4","","","1","4","training","adjacent","CD","3","4","R.jpg","P.jpg","1","1","1","",""
"","feedback","","html-keyboard-response","36","151116","0.0-1.0-42.0-0.0","0","0","38558","","null","","","null","4","","","","","","","","","","","","","","","",""
"","ITI","","html-keyboard-response","37","152123","0.0-1.0-45.0","0","0","38558","","null","","","null","4","","","","","","","","","","","","","","","NaN",""
"","S1","","html-keyboard-response","38","152381","0.0-1.0-47.0","0","0","38558","","null","","","null","5","","","","","","","","","","","","","","","",""
"","ISI","","html-keyboard-response","39","154386","0.0-1.0-48.0","0","0","38558","","null","","","null","5","NaN","","","","","","","","","","","","","","",""
"","S2","","html-keyboard-response","40","154642","0.0-1.0-49.0","0","0","38558","","null","","","null","5","","NaN","","","","","","","","","","","","","",""
"","response","","html-keyboard-response","41","154698","0.0-1.0-50.0","0","0","38558","","53","","","68","5","","","1","5","training","adjacent","CD","3","4","R.jpg","P.jpg","1","1","1","",""
"","feedback","","html-keyboard-response","42","155704","0.0-1.0-51.0-0.0","0","0","38558","","null","","","null","5","","","","","","","","","","","","","","","",""
"","ITI","","html-keyboard-response","43","156710","0.0-1.0-54.0","0","0","38558","","null","","","null","5","","","","","","","","","","","","","","","NaN",""
"","S1","","html-keyboard-response","44","156966","0.0-1.0-56.0","0","0","38558","","null","","","null","6","","","","","","","","","","","","","","","",""
"","ISI","","html-keyboard-response","45","158973","0.0-1.0-57.0","0","0","38558","","null","","","null","6","NaN","","","","","","","","","","","","","","",""
"","S2","","html-keyboard-response","46","159229","0.0-1.0-58.0","0","0","38558","","null","","","null","6","","NaN","","","","","","","","","","","","","",""
"","response","","html-keyboard-response","47","159378","0.0-1.0-59.0","0","0","38558","","146","","","75","6","","","1","6","training","adjacent","EF","5","6","Q.jpg","N.jpg","0","1","0","",""
"","feedback","","html-keyboard-response","48","160385","0.0-1.0-60.0-0.0","0","0","38558","","null","","","null","6","","","","","","","","","","","","","","","",""
"","time_out","","html-keyboard-response","49","162392","0.0-1.0-62.0-0.0","0","0","38558","","null","","","null","6","","","","","","","","","","","","","","","",""
"","ITI","","html-keyboard-response","50","163399","0.0-1.0-63.0","0","0","38558","","null","","","null","6","","","","","","","","","","","","","","","NaN",""
"","S1","","html-keyboard-response","51","163657","0.0-1.0-65.0","0","0","38558","","null","","","null","7","","","","","","","","","","","","","","","",""
"","ISI","","html-keyboard-response","52","165665","0.0-1.0-66.0","0","0","38558","","null","","","null","7","NaN","","","","","","","","","","","","","","",""
"","S2","","html-keyboard-response","53","165922","0.0-1.0-67.0","0","0","38558","","null","","","null","7","","NaN","","","","","","","","","","","","","",""
"","response","","html-keyboard-response","54","165970","0.0-1.0-68.0","0","0","38558","","46","","","68","7","","","1","7","training","adjacent","DE","4","5","P.jpg","Q.jpg","1","1","1","",""
"","feedback","","html-keyboard-response","55","166975","0.0-1.0-69.0-0.0","0","0","38558","","null","","","null","7","","","","","","","","","","","","","","","",""
"","ITI","","html-keyboard-response","56","167981","0.0-1.0-72.0","0","0","38558","","null","","","null","7","","","","","","","","","","","","","","","NaN",""
"","S1","","html-keyboard-response","57","168238","0.0-1.0-74.0","0","0","38558","","null","","","null","8","","","","","","","","","","","","","","","",""
"","ISI","","html-keyboard-response","58","170246","0.0-1.0-75.0","0","0","38558","","null","","","null","8","NaN","","","","","","","","","","","","","","",""
"","S2","","html-keyboard-response","59","170503","0.0-1.0-76.0","0","0","38558","","154","","","68","8","","d","","","","","","","","","","","","","",""
"","response","","html-keyboard-response","60","170964","0.0-1.0-77.0","0","0","38558","","458","","","68","8","","","1","8","training","adjacent","BA","2","1","M.jpg","L.jpg","1","0","0","",""
"","feedback","","html-keyboard-response","61","171969","0.0-1.0-78.0-0.0","0","0","38558","","null","","","null","8","","","","","","","","","","","","","","","",""
"","time_out","","html-keyboard-response","62","173975","0.0-1.0-80.0-0.0","0","0","38558","","null","","","null","8","","","","","","","","","","","","","","","",""
"","ITI","","html-keyboard-response","63","174978","0.0-1.0-81.0","0","0","38558","","null","","","null","8","","","","","","","","","","","","","","","NaN",""
"","S1","","html-keyboard-response","64","175233","0.0-1.0-83.0","0","0","38558","","null","","","null","9","","","","","","","","","","","","","","","",""
"","ISI","","html-keyboard-response","65","177238","0.0-1.0-84.0","0","0","38558","","null","","","null","9","NaN","","","","","","","","","","","","","","",""
"","S2","","html-keyboard-response","66","177495","0.0-1.0-85.0","0","0","38558","","null","","","null","9","","NaN","","","","","","","","","","","","","",""
"","response","","html-keyboard-response","67","178140","0.0-1.0-86.0","0","0","38558","","644","","","68","9","","","1","9","training","adjacent","FE","6","5","N.jpg","Q.jpg","1","0","0","",""
"","feedback","","html-keyboard-response","68","179148","0.0-1.0-87.0-0.0","0","0","38558","","null","","","null","9","","","","","","","","","","","","","","","",""
"","time_out","","html-keyboard-response","69","181153","0.0-1.0-89.0-0.0","0","0","38558","","null","","","null","9","","","","","","","","","","","","","","","",""
"","ITI","","html-keyboard-response","70","182159","0.0-1.0-90.0","0","0","38558","","null","","","null","9","","","","","","","","","","","","","","","NaN",""
"","S1","","html-keyboard-response","71","182417","0.0-1.0-92.0","0","0","38558","","null","","","null","10","","","","","","","","","","","","","","","",""
"","ISI","","html-keyboard-response","72","184422","0.0-1.0-93.0","0","0","38558","","null","","","null","10","NaN","","","","","","","","","","","","","","",""
"","S2","","html-keyboard-response","73","184678","0.0-1.0-94.0","0","0","38558","","null","","","null","10","","NaN","","","","","","","","","","","","","",""
"","response","","html-keyboard-response","74","184936","0.0-1.0-95.0","0","0","38558","","255","","","75","10","","","1","10","training","adjacent","BC","2","3","M.jpg","R.jpg","0","1","0","",""
"","feedback","","html-keyboard-response","75","185941","0.0-1.0-96.0-0.0","0","0","38558","","null","","","null","10","","","","","","","","","","","","","","","",""
"","time_out","","html-keyboard-response","76","187947","0.0-1.0-98.0-0.0","0","0","38558","","null","","","null","10","","","","","","","","","","","","","","","",""
"","ITI","","html-keyboard-response","77","188955","0.0-1.0-99.0","0","0","38558","","null","","","null","10","","","","","","","","","","","","","","","NaN",""
"","S1","","html-keyboard-response","78","189212","0.0-1.0-101.0","0","0","38558","","null","","","null","11","","","","","","","","","","","","","","","",""
"","ISI","","html-keyboard-response","79","191216","0.0-1.0-102.0","0","0","38558","","null","","","null","11","NaN","","","","","","","","","","","","","","",""
"","S2","","html-keyboard-response","80","191472","0.0-1.0-103.0","0","0","38558","","null","","","null","11","","NaN","","","","","","","","","","","","","",""
"","response","","html-keyboard-response","81","191709","0.0-1.0-104.0","0","0","38558","","234","","","75","11","","","1","11","training","adjacent","GF","7","6","O.jpg","N.jpg","0","0","1","",""
"","feedback","","html-keyboard-response","82","192715","0.0-1.0-105.0-0.0","0","0","38558","","null","","","null","11","","","","","","","","","","","","","","","",""
"","ITI","","html-keyboard-response","83","193722","0.0-1.0-108.0","0","0","38558","","null","","","null","11","","","","","","","","","","","","","","","NaN",""
"","S1","","html-keyboard-response","84","193979","0.0-1.0-110.0","0","0","38558","","null","","","null","12","","","","","","","","","","","","","","","",""
"","ISI","","html-keyboard-response","85","195985","0.0-1.0-111.0","0","0","38558","","null","","","null","12","NaN","","","","","","","","","","","","","","",""
"","S2","","html-keyboard-response","86","196240","0.0-1.0-112.0","0","0","38558","","null","","","null","12","","NaN","","","","","","","","","","","","","",""
"","response","","html-keyboard-response","87","196478","0.0-1.0-113.0","0","0","38558","","235","","","68","12","","","1","12","training","adjacent","DC","4","3","P.jpg","R.jpg","1","0","0","",""
"","feedback","","html-keyboard-response","88","197483","0.0-1.0-114.0-0.0","0","0","38558","","null","","","null","12","","","","","","","","","","","","","","","",""
"","time_out","","html-keyboard-response","89","199487","0.0-1.0-116.0-0.0","0","0","38558","","null","","","null","12","","","","","","","","","","","","","","","",""
"","ITI","","html-keyboard-response","90","200491","0.0-1.0-117.0","0","0","38558","","null","","","null","12","","","","","","","","","","","","","","","NaN",""
"","S1","","html-keyboard-response","91","200747","0.0-1.0-119.0","0","0","38558","","null","","","null","13","","","","","","","","","","","","","","","",""
"","ISI","","html-keyboard-response","92","202751","0.0-1.0-120.0","0","0","38558","","null","","","null","13","NaN","","","","","","","","","","","","","","",""
"","S2","","html-keyboard-response","93","203007","0.0-1.0-121.0","0","0","38558","","null","","","null","13","","NaN","","","","","","","","","","","","","",""
"","response","","html-keyboard-response","94","203924","0.0-1.0-122.0","0","0","38558","","916","","","75","13","","","1","13","training","adjacent","BA","2","1","M.jpg","L.jpg","0","0","1","",""
"","feedback","","html-keyboard-response","95","204932","0.0-1.0-123.0-0.0","0","0","38558","","null","","","null","13","","","","","","","","","","","","","","","",""
"","ITI","","html-keyboard-response","96","205936","0.0-1.0-126.0","0","0","38558","","null","","","null","13","","","","","","","","","","","","","","","NaN",""
"","S1","","html-keyboard-response","97","206193","0.0-1.0-128.0","0","0","38558","","null","","","null","14","","","","","","","","","","","","","","","",""
"","ISI","","html-keyboard-response","98","208197","0.0-1.0-129.0","0","0","38558","","null","","","null","14","NaN","","","","","","","","","","","","","","",""
"","S2","","html-keyboard-response","99","208453","0.0-1.0-130.0","0","0","38558","","null","","","null","14","","NaN","","","","","","","","","","","","","",""
"","response","","html-keyboard-response","100","208785","0.0-1.0-131.0","0","0","38558","","329","","","75","14","","","1","14","training","adjacent","CB","3","2","R.jpg","M.jpg","0","0","1","",""
"","feedback","","html-keyboard-response","101","209791","0.0-1.0-132.0-0.0","0","0","38558","","null","","","null","14","","","","","","","","","","","","","","","",""
"","ITI","","html-keyboard-response","102","210797","0.0-1.0-135.0","0","0","38558","","null","","","null","14","","","","","","","","","","","","","","","NaN",""
"","S1","","html-keyboard-response","103","211054","0.0-1.0-137.0","0","0","38558","","null","","","null","15","","","","","","","","","","","","","","","",""
"","ISI","","html-keyboard-response","104","213061","0.0-1.0-138.0","0","0","38558","","null","","","null","15","NaN","","","","","","","","","","","","","","",""
"","S2","","html-keyboard-response","105","213317","0.0-1.0-139.0","0","0","38558","","null","","","null","15","","NaN","","","","","","","","","","","","","",""
"","response","","html-keyboard-response","106","213688","0.0-1.0-140.0","0","0","38558","","370","","","75","15","","","1","15","training","adjacent","EF","5","6","Q.jpg","N.jpg","0","1","0","",""
"","feedback","","html-keyboard-response","107","214693","0.0-1.0-141.0-0.0","0","0","38558","","null","","","null","15","","","","","","","","","","","","","","","",""
"","time_out","","html-keyboard-response","108","216698","0.0-1.0-143.0-0.0","0","0","38558","","null","","","null","15","","","","","","","","","","","","","","","",""
"","ITI","","html-keyboard-response","109","217704","0.0-1.0-144.0","0","0","38558","","null","","","null","15","","","","","","","","","","","","","","","NaN",""
"","S1","","html-keyboard-response","110","217962","0.0-1.0-146.0","0","0","38558","","null","","","null","16","","","","","","","","","","","","","","","",""
"","ISI","","html-keyboard-response","111","219967","0.0-1.0-147.0","0","0","38558","","null","","","null","16","NaN","","","","","","","","","","","","","","",""
"","S2","","html-keyboard-response","112","220224","0.0-1.0-148.0","0","0","38558","","null","","","null","16","","NaN","","","","","","","","","","","","","",""
"","response","","html-keyboard-response","113","220416","0.0-1.0-149.0","0","0","38558","","190","","","68","16","","","1","16","training","adjacent","CD","3","4","R.jpg","P.jpg","1","1","1","",""
"","feedback","","html-keyboard-response","114","221423","0.0-1.0-150.0-0.0","0","0","38558","","null","","","null","16","","","","","","","","","","","","","","","",""
"","ITI","","html-keyboard-response","115","222431","0.0-1.0-153.0","0","0","38558","","null","","","null","16","","","","","","","","","","","","","","","NaN",""
"","S1","","html-keyboard-response","116","222687","0.0-1.0-155.0","0","0","38558","","null","","","null","17","","","","","","","","","","","","","","","",""
"","ISI","","html-keyboard-response","117","224692","0.0-1.0-156.0","0","0","38558","","null","","","null","17","NaN","","","","","","","","","","","","","","",""
"","S2","","html-keyboard-response","118","224948","0.0-1.0-157.0","0","0","38558","","null","","","null","17","","NaN","","","","","","","","","","","","","",""
"","response","","html-keyboard-response","119","225142","0.0-1.0-158.0","0","0","38558","","191","","","75","17","","","1","17","training","adjacent","ED","5","4","Q.jpg","P.jpg","0","0","1","",""
"","feedback","","html-keyboard-response","120","226148","0.0-1.0-159.0-0.0","0","0","38558","","null","","","null","17","","","","","","","","","","","","","","","",""
"","ITI","","html-keyboard-response","121","227155","0.0-1.0-162.0","0","0","38558","","null","","","null","17","","","","","","","","","","","","","","","NaN",""
"","S1","","html-keyboard-response","122","227412","0.0-1.0-164.0","0","0","38558","","null","","","null","18","","","","","","","","","","","","","","","",""
"","ISI","","html-keyboard-response","123","229417","0.0-1.0-165.0","0","0","38558","","null","","","null","18","NaN","","","","","","","","","","","","","","",""
"","S2","","html-keyboard-response","124","229673","0.0-1.0-166.0","0","0","38558","","null","","","null","18","","NaN","","","","","","","","","","","","","",""
"","response","","html-keyboard-response","125","229775","0.0-1.0-167.0","0","0","38558","","99","","","75","18","","","1","18","training","adjacent","FG","6","7","N.jpg","O.jpg","0","1","0","",""
"","feedback","","html-keyboard-response","126","230783","0.0-1.0-168.0-0.0","0","0","38558","","null","","","null","18","","","","","","","","","","","","","","","",""
"","time_out","","html-keyboard-response","127","232788","0.0-1.0-170.0-0.0","0","0","38558","","null","","","null","18","","","","","","","","","","","","","","","",""
"","ITI","","html-keyboard-response","128","233794","0.0-1.0-171.0","0","0","38558","","null","","","null","18","","","","","","","","","","","","","","","NaN",""
"","S1","","html-keyboard-response","129","234052","0.0-1.0-173.0","0","0","38558","","null","","","null","19","","","","","","","","","","","","","","","",""
"","ISI","","html-keyboard-response","130","236057","0.0-1.0-174.0","0","0","38558","","null","","","null","19","NaN","","","","","","","","","","","","","","",""
"","S2","","html-keyboard-response","131","236313","0.0-1.0-175.0","0","0","38558","","null","","","null","19","","NaN","","","","","","","","","","","","","",""
"","response","","html-keyboard-response","132","236391","0.0-1.0-176.0","0","0","38558","","76","","","68","19","","","1","19","training","adjacent","GF","7","6","O.jpg","N.jpg","1","0","0","",""
"","feedback","","html-keyboard-response","133","237396","0.0-1.0-177.0-0.0","0","0","38558","","null","","","null","19","","","","","","","","","","","","","","","",""
"","time_out","","html-keyboard-response","134","239401","0.0-1.0-179.0-0.0","0","0","38558","","null","","","null","19","","","","","","","","","","","","","","","",""
"","ITI","","html-keyboard-response","135","240409","0.0-1.0-180.0","0","0","38558","","null","","","null","19","","","","","","","","","","","","","","","NaN",""
"","S1","","html-keyboard-response","136","240664","0.0-1.0-182.0","0","0","38558","","null","","","null","20","","","","","","","","","","","","","","","",""
"","ISI","","html-keyboard-response","137","242670","0.0-1.0-183.0","0","0","38558","","null","","","null","20","NaN","","","","","","","","","","","","","","",""
"","S2","","html-keyboard-response","138","242926","0.0-1.0-184.0","0","0","38558","","null","","","null","20","","NaN","","","","","","","","","","","","","",""
"","response","","html-keyboard-response","139","243162","0.0-1.0-185.0","0","0","38558","","234","","","75","20","","","1","20","training","adjacent","DC","4","3","P.jpg","R.jpg","0","0","1","",""
"","feedback","","html-keyboard-response","140","244168","0.0-1.0-186.0-0.0","0","0","38558","","null","","","null","20","","","","","","","","","","","","","","","",""
"","ITI","","html-keyboard-response","141","245175","0.0-1.0-189.0","0","0","38558","","null","","","null","20","","","","","","","","","","","","","","","NaN",""
"","S1","","html-keyboard-response","142","245433","0.0-1.0-191.0","0","0","38558","","null","","","null","21","","","","","","","","","","","","","","","",""
"","ISI","","html-keyboard-response","143","247438","0.0-1.0-192.0","0","0","38558","","null","","","null","21","NaN","","","","","","","","","","","","","","",""
"","S2","","html-keyboard-response","144","247694","0.0-1.0-193.0","0","0","38558","","null","","","null","21","","NaN","","","","","","","","","","","","","",""
"","response","","html-keyboard-response","145","248022","0.0-1.0-194.0","0","0","38558","","325","","","75","21","","","1","21","training","adjacent","FE","6","5","N.jpg","Q.jpg","0","0","1","",""
"","feedback","","html-keyboard-response","146","249027","0.0-1.0-195.0-0.0","0","0","38558","","null","","","null","21","","","","","","","","","","","","","","","",""
"","ITI","","html-keyboard-response","147","250035","0.0-1.0-198.0","0","0","38558","","null","","","null","21","","","","","","","","","","","","","","","NaN",""
"","S1","","html-keyboard-response","148","250290","0.0-1.0-200.0","0","0","38558","","null","","","null","22","","","","","","","","","","","","","","","",""
"","ISI","","html-keyboard-response","149","252296","0.0-1.0-201.0","0","0","38558","","null","","","null","22","NaN","","","","","","","","","","","","","","",""
"","S2","","html-keyboard-response","150","252552","0.0-1.0-202.0","0","0","38558","","null","","","null","22","","NaN","","","","","","","","","","","","","",""
"","response","","html-keyboard-response","151","253016","0.0-1.0-203.0","0","0","38558","","461","","","75","22","","","1","22","training","adjacent","ED","5","4","Q.jpg","P.jpg","0","0","1","",""
"","feedback","","html-keyboard-response","152","254024","0.0-1.0-204.0-0.0","0","0","38558","","null","","","null","22","","","","","","","","","","","","","","","",""
"","ITI","","html-keyboard-response","153","255032","0.0-1.0-207.0","0","0","38558","","null","","","null","22","","","","","","","","","","","","","","","NaN",""
"","S1","","html-keyboard-response","154","255288","0.0-1.0-209.0","0","0","38558","","null","","","null","23","","","","","","","","","","","","","","","",""
"","ISI","","html-keyboard-response","155","257294","0.0-1.0-210.0","0","0","38558","","null","","","null","23","NaN","","","","","","","","","","","","","","",""
"","S2","","html-keyboard-response","156","257549","0.0-1.0-211.0","0","0","38558","","null","","","null","23","","NaN","","","","","","","","","","","","","",""
"","response","","html-keyboard-response","157","257966","0.0-1.0-212.0","0","0","38558","","414","","","75","23","","","1","23","training","adjacent","FG","6","7","N.jpg","O.jpg","0","1","0","",""
"","feedback","","html-keyboard-response","158","258973","0.0-1.0-213.0-0.0","0","0","38558","","null","","","null","23","","","","","","","","","","","","","","","",""
"","time_out","","html-keyboard-response","159","260979","0.0-1.0-215.0-0.0","0","0","38558","","null","","","null","23","","","","","","","","","","","","","","","",""
"","ITI","","html-keyboard-response","160","261985","0.0-1.0-216.0","0","0","38558","","null","","","null","23","","","","","","","","","","","","","","","NaN",""
"","S1","","html-keyboard-response","161","262243","0.0-1.0-218.0","0","0","38558","","null","","","null","24","","","","","","","","","","","","","","","",""
"","ISI","","html-keyboard-response","162","264248","0.0-1.0-219.0","0","0","38558","","null","","","null","24","NaN","","","","","","","","","","","","","","",""
"","S2","","html-keyboard-response","163","264504","0.0-1.0-220.0","0","0","38558","","null","","","null","24","","NaN","","","","","","","","","","","","","",""
"","response","","html-keyboard-response","164","265030","0.0-1.0-221.0","0","0","38558","","524","","","75","24","","","1","24","training","adjacent","CB","3","2","R.jpg","M.jpg","0","0","1","",""
"","feedback","","html-keyboard-response","165","266038","0.0-1.0-222.0-0.0","0","0","38558","","null","","","null","24","","","","","","","","","","","","","","","",""
"","ITI","","html-keyboard-response","166","267042","0.0-1.0-225.0","0","0","38558","","null","","","null","24","","","","","","","","","","","","","","","NaN",""
"","S1","","html-keyboard-response","167","267298","0.0-1.0-227.0","0","0","38558","","null","","","null","25","","","","","","","","","","","","","","","",""
"","ISI","","html-keyboard-response","168","269303","0.0-1.0-228.0","0","0","38558","","null","","","null","25","NaN","","","","","","","","","","","","","","",""
"","S2","","html-keyboard-response","169","269559","0.0-1.0-229.0","0","0","38558","","null","","","null","25","","NaN","","","","","","","","","","","","","",""
"","response","","html-keyboard-response","170","269642","0.0-1.0-230.0","0","0","38558","","80","","","68","25","","","1","25","training","adjacent","AB","1","2","L.jpg","M.jpg","1","1","1","",""
"","feedback","","html-keyboard-response","171","270646","0.0-1.0-231.0-0.0","0","0","38558","","null","","","null","25","","","","","","","","","","","","","","","",""
"","ITI","","html-keyboard-response","172","271654","0.0-1.0-234.0","0","0","38558","","null","","","null","25","","","","","","","","","","","","","","","NaN",""
"","S1","","html-keyboard-response","173","271911","0.0-1.0-236.0","0","0","38558","","null","","","null","26","","","","","","","","","","","","","","","",""
"","ISI","","html-keyboard-response","174","273916","0.0-1.0-237.0","0","0","38558","","null","","","null","26","NaN","","","","","","","","","","","","","","",""
"","S2","","html-keyboard-response","175","274172","0.0-1.0-238.0","0","0","38558","","null","","","null","26","","NaN","","","","","","","","","","","","","",""
"","response","","html-keyboard-response","176","274502","0.0-1.0-239.0","0","0","38558","","327","","","75","26","","","1","26","training","adjacent","DE","4","5","P.jpg","Q.jpg","0","1","0","",""
"","feedback","","html-keyboard-response","177","275506","0.0-1.0-240.0-0.0","0","0","38558","","null","","","null","26","","","","","","","","","","","","","","","",""
"","time_out","","html-keyboard-response","178","277511","0.0-1.0-242.0-0.0","0","0","38558","","null","","","null","26","","","","","","","","","","","","","","","",""
"","ITI","","html-keyboard-response","179","278517","0.0-1.0-243.0","0","0","38558","","null","","","null","26","","","","","","","","","","","","","","","NaN",""
"","S1","","html-keyboard-response","180","278775","0.0-1.0-245.0","0","0","38558","","null","","","null","27","","","","","","","","","","","","","","","",""
"","ISI","","html-keyboard-response","181","280782","0.0-1.0-246.0","0","0","38558","","null","","","null","27","NaN","","","","","","","","","","","","","","",""
"","S2","","html-keyboard-response","182","281036","0.0-1.0-247.0","0","0","38558","","null","","","null","27","","NaN","","","","","","","","","","","","","",""
"","response","","html-keyboard-response","183","281139","0.0-1.0-248.0","0","0","38558","","101","","","68","27","","","1","27","training","adjacent","AB","1","2","L.jpg","M.jpg","1","1","1","",""
"","feedback","","html-keyboard-response","184","282145","0.0-1.0-249.0-0.0","0","0","38558","","null","","","null","27","","","","","","","","","","","","","","","",""
"","ITI","","html-keyboard-response","185","283152","0.0-1.0-252.0","0","0","38558","","null","","","null","27","","","","","","","","","","","","","","","NaN",""
"","S1","","html-keyboard-response","186","283409","0.0-1.0-254.0","0","0","38558","","null","","","null","28","","","","","","","","","","","","","","","",""
"","ISI","","html-keyboard-response","187","285415","0.0-1.0-255.0","0","0","38558","","null","","","null","28","NaN","","","","","","","","","","","","","","",""
"","S2","","html-keyboard-response","188","285671","0.0-1.0-256.0","0","0","38558","","null","","","null","28","","NaN","","","","","","","","","","","","","",""
"","response","","html-keyboard-response","189","285954","0.0-1.0-257.0","0","0","38558","","281","","","68","28","","","1","28","training","adjacent","FG","6","7","N.jpg","O.jpg","1","1","1","",""
"","feedback","","html-keyboard-response","190","286961","0.0-1.0-258.0-0.0","0","0","38558","","null","","","null","28","","","","","","","","","","","","","","","",""
"","ITI","","html-keyboard-response","191","287968","0.0-1.0-261.0","0","0","38558","","null","","","null","28","","","","","","","","","","","","","","","NaN",""
"","S1","","html-keyboard-response","192","288225","0.0-1.0-263.0","0","0","38558","","null","","","null","29","","","","","","","","","","","","","","","",""
"","ISI","","html-keyboard-response","193","290230","0.0-1.0-264.0","0","0","38558","","null","","","null","29","NaN","","","","","","","","","","","","","","",""
"","S2","","html-keyboard-response","194","290486","0.0-1.0-265.0","0","0","38558","","null","","","null","29","","NaN","","","","","","","","","","","","","",""
"","response","","html-keyboard-response","195","290723","0.0-1.0-266.0","0","0","38558","","235","","","75","29","","","1","29","training","adjacent","CB","3","2","R.jpg","M.jpg","0","0","1","",""
"","feedback","","html-keyboard-response","196","291729","0.0-1.0-267.0-0.0","0","0","38558","","null","","","null","29","","","","","","","","","","","","","","","",""
"","ITI","","html-keyboard-response","197","292735","0.0-1.0-270.0","0","0","38558","","null","","","null","29","","","","","","","","","","","","","","","NaN",""
"","S1","","html-keyboard-response","198","292993","0.0-1.0-272.0","0","0","38558","","null","","","null","30","","","","","","","","","","","","","","","",""
"","ISI","","html-keyboard-response","199","294998","0.0-1.0-273.0","0","0","38558","","null","","","null","30","NaN","","","","","","","","","","","","","","",""
"","S2","","html-keyboard-response","200","295254","0.0-1.0-274.0","0","0","38558","","null","","","null","30","","NaN","","","","","","","","","","","","","",""
"","response","","html-keyboard-response","201","295493","0.0-1.0-275.0","0","0","38558","","236","","","75","30","","","1","30","training","adjacent","DE","4","5","P.jpg","Q.jpg","0","1","0","",""
"","feedback","","html-keyboard-response","202","296501","0.0-1.0-276.0-0.0","0","0","38558","","null","","","null","30","","","","","","","","","","","","","","","",""
"","time_out","","html-keyboard-response","203","298507","0.0-1.0-278.0-0.0","0","0","38558","","null","","","null","30","","","","","","","","","","","","","","","",""
"","ITI","","html-keyboard-response","204","299514","0.0-1.0-279.0","0","0","38558","","null","","","null","30","","","","","","","","","","","","","","","NaN",""
"","S1","","html-keyboard-response","205","299771","0.0-1.0-281.0","0","0","38558","","null","","","null","31","","","","","","","","","","","","","","","",""
"","ISI","","html-keyboard-response","206","301776","0.0-1.0-282.0","0","0","38558","","null","","","null","31","NaN","","","","","","","","","","","","","","",""
"","S2","","html-keyboard-response","207","302033","0.0-1.0-283.0","0","0","38558","","null","","","null","31","","NaN","","","","","","","","","","","","","",""
"","response","","html-keyboard-response","208","302107","0.0-1.0-284.0","0","0","38558","","73","","","68","31","","","1","31","training","adjacent","BC","2","3","M.jpg","R.jpg","1","1","1","",""
"","feedback","","html-keyboard-response","209","303115","0.0-1.0-285.0-0.0","0","0","38558","","null","","","null","31","","","","","","","","","","","","","","","",""
"","ITI","","html-keyboard-response","210","304122","0.0-1.0-288.0","0","0","38558","","null","","","null","31","","","","","","","","","","","","","","","NaN",""
"","S1","","html-keyboard-response","211","304379","0.0-1.0-290.0","0","0","38558","","null","","","null","32","","","","","","","","","","","","","","","",""
"","ISI","","html-keyboard-response","212","306386","0.0-1.0-291.0","0","0","38558","","null","","","null","32","NaN","","","","","","","","","","","","","","",""
"","S2","","html-keyboard-response","213","306643","0.0-1.0-292.0","0","0","38558","","null","","","null","32","","NaN","","","","","","","","","","","","","",""
"","response","","html-keyboard-response","214","306742","0.0-1.0-293.0","0","0","38558","","98","","","75","32","","","1","32","training","adjacent","FE","6","5","N.jpg","Q.jpg","0","0","1","",""
"","feedback","","html-keyboard-response","215","307750","0.0-1.0-294.0-0.0","0","0","38558","","null","","","null","32","","","","","","","","","","","","","","","",""
"","ITI","","html-keyboard-response","216","308756","0.0-1.0-297.0","0","0","38558","","null","","","null","32","","","","","","","","","","","","","","","NaN",""
"","S1","","html-keyboard-response","217","309013","0.0-1.0-299.0","0","0","38558","","null","","","null","33","","","","","","","","","","","","","","","",""
"","ISI","","html-keyboard-response","218","311019","0.0-1.0-300.0","0","0","38558","","null","","","null","33","NaN","","","","","","","","","","","","","","",""
"","S2","","html-keyboard-response","219","311275","0.0-1.0-301.0","0","0","38558","","null","","","null","33","","NaN","","","","","","","","","","","","","",""
"","response","","html-keyboard-response","220","311489","0.0-1.0-302.0","0","0","38558","","212","","","75","33","","","1","33","training","adjacent","BA","2","1","M.jpg","L.jpg","0","0","1","",""
"","feedback","","html-keyboard-response","221","312496","0.0-1.0-303.0-0.0","0","0","38558","","null","","","null","33","","","","","","","","","","","","","","","",""
"","ITI","","html-keyboard-response","222","313504","0.0-1.0-306.0","0","0","38558","","null","","","null","33","","","","","","","","","","","","","","","NaN",""
"","S1","","html-keyboard-response","223","313760","0.0-1.0-308.0","0","0","38558","","null","","","null","34","","","","","","","","","","","","","","","",""
"","ISI","","html-keyboard-response","224","315765","0.0-1.0-309.0","0","0","38558","","null","","","null","34","NaN","","","","","","","","","","","","","","",""
"","S2","","html-keyboard-response","225","316021","0.0-1.0-310.0","0","0","38558","","null","","","null","34","","NaN","","","","","","","","","","","","","",""
"","response","","html-keyboard-response","226","316236","0.0-1.0-311.0","0","0","38558","","213","","","75","34","","","1","34","training","adjacent","CB","3","2","R.jpg","M.jpg","0","0","1","",""
"","feedback","","html-keyboard-response","227","317242","0.0-1.0-312.0-0.0","0","0","38558","","null","","","null","34","","","","","","","","","","","","","","","",""
"","ITI","","html-keyboard-response","228","318249","0.0-1.0-315.0","0","0","38558","","null","","","null","34","","","","","","","","","","","","","","","NaN",""
"","S1","","html-keyboard-response","229","318506","0.0-1.0-317.0","0","0","38558","","null","","","null","35","","","","","","","","","","","","","","","",""
"","ISI","","html-keyboard-response","230","320511","0.0-1.0-318.0","0","0","38558","","null","","","null","35","NaN","","","","","","","","","","","","","","",""
"","S2","","html-keyboard-response","231","320767","0.0-1.0-319.0","0","0","38558","","null","","","null","35","","NaN","","","","","","","","","","","","","",""
"","response","","html-keyboard-response","232","320962","0.0-1.0-320.0","0","0","38558","","192","","","68","35","","","1","35","training","adjacent","ED","5","4","Q.jpg","P.jpg","1","0","0","",""
"","feedback","","html-keyboard-response","233","321970","0.0-1.0-321.0-0.0","0","0","38558","","null","","","null","35","","","","","","","","","","","","","","","",""
"","time_out","","html-keyboard-response","234","323977","0.0-1.0-323.0-0.0","0","0","38558","","null","","","null","35","","","","","","","","","","","","","","","",""
"","ITI","","html-keyboard-response","235","324981","0.0-1.0-324.0","0","0","38558","","null","","","null","35","","","","","","","","","","","","","","","NaN",""
"","S1","","html-keyboard-response","236","325236","0.0-1.0-326.0","0","0","38558","","null","","","null","36","","","","","","","","","","","","","","","",""
"","ISI","","html-keyboard-response","237","327241","0.0-1.0-327.0","0","0","38558","","null","","","null","36","NaN","","","","","","","","","","","","","","",""
"","S2","","html-keyboard-response","238","327498","0.0-1.0-328.0","0","0","38558","","null","","","null","36","","NaN","","","","","","","","","","","","","",""
"","response","","html-keyboard-response","239","327598","0.0-1.0-329.0","0","0","38558","","97","","","68","36","","","1","36","training","adjacent","GF","7","6","O.jpg","N.jpg","1","0","0","",""
"","feedback","","html-keyboard-response","240","328606","0.0-1.0-330.0-0.0","0","0","38558","","null","","","null","36","","","","","","","","","","","","","","","",""
"","time_out","","html-keyboard-response","241","330612","0.0-1.0-332.0-0.0","0","0","38558","","null","","","null","36","","","","","","","","","","","","","","","",""
"","ITI","","html-keyboard-response","242","331619","0.0-1.0-333.0","0","0","38558","","null","","","null","36","","","","","","","","","","","","","","","NaN",""
"","S1","","html-keyboard-response","243","331876","0.0-1.0-335.0","0","0","38558","","null","","","null","37","","","","","","","","","","","","","","","",""
"","ISI","","html-keyboard-response","244","333882","0.0-1.0-336.0","0","0","38558","","null","","","null","37","NaN","","","","","","","","","","","","","","",""
"","S2","","html-keyboard-response","245","334137","0.0-1.0-337.0","0","0","38558","","null","","","null","37","","NaN","","","","","","","","","","","","","",""
"","response","","html-keyboard-response","246","334213","0.0-1.0-338.0","0","0","38558","","73","","","75","37","","","1","37","training","adjacent","ED","5","4","Q.jpg","P.jpg","0","0","1","",""
"","feedback","","html-keyboard-response","247","335219","0.0-1.0-339.0-0.0","0","0","38558","","null","","","null","37","","","","","","","","","","","","","","","",""
"","ITI","","html-keyboard-response","248","336223","0.0-1.0-342.0","0","0","38558","","null","","","null","37","","","","","","","","","","","","","","","NaN",""
"","S1","","html-keyboard-response","249","336479","0.0-1.0-344.0","0","0","38558","","null","","","null","38","","","","","","","","","","","","","","","",""
"","ISI","","html-keyboard-response","250","338484","0.0-1.0-345.0","0","0","38558","","null","","","null","38","NaN","","","","","","","","","","","","","","",""
"","S2","","html-keyboard-response","251","338740","0.0-1.0-346.0","0","0","38558","","null","","","null","38","","NaN","","","","","","","","","","","","","",""
"","response","","html-keyboard-response","252","338758","0.0-1.0-347.0","0","0","38558","","14","","","75","38","","","1","38","training","adjacent","AB","1","2","L.jpg","M.jpg","0","1","0","",""
"","feedback","","html-keyboard-response","253","339764","0.0-1.0-348.0-0.0","0","0","38558","","null","","","null","38","","","","","","","","","","","","","","","",""
"","time_out","","html-keyboard-response","254","341769","0.0-1.0-350.0-0.0","0","0","38558","","null","","","null","38","","","","","","","","","","","","","","","",""
"","ITI","","html-keyboard-response","255","342776","0.0-1.0-351.0","0","0","38558","","null","","","null","38","","","","","","","","","","","","","","","NaN",""
"","S1","","html-keyboard-response","256","343033","0.0-1.0-353.0","0","0","38558","","null","","","null","39","","","","","","","","","","","","","","","",""
"","ISI","","html-keyboard-response","257","345038","0.0-1.0-354.0","0","0","38558","","null","","","null","39","NaN","","","","","","","","","","","","","","",""
"","S2","","html-keyboard-response","258","345295","0.0-1.0-355.0","0","0","38558","","null","","","null","39","","NaN","","","","","","","","","","","","","",""
"","response","","html-keyboard-response","259","345304","0.0-1.0-356.0","0","0","38558","","8","","","68","39","","","1","39","training","adjacent","DC","4","3","P.jpg","R.jpg","1","0","0","",""
"","feedback","","html-keyboard-response","260","346312","0.0-1.0-357.0-0.0","0","0","38558","","null","","","null","39","","","","","","","","","","","","","","","",""
"","time_out","","html-keyboard-response","261","348317","0.0-1.0-359.0-0.0","0","0","38558","","null","","","null","39","","","","","","","","","","","","","","","",""
"","ITI","","html-keyboard-response","262","349321","0.0-1.0-360.0","0","0","38558","","null","","","null","39","","","","","","","","","","","","","","","NaN",""
"","S1","","html-keyboard-response","263","349577","0.0-1.0-362.0","0","0","38558","","null","","","null","40","","","","","","","","","","","","","","","",""
"","ISI","","html-keyboard-response","264","351582","0.0-1.0-363.0","0","0","38558","","null","","","null","40","NaN","","","","","","","","","","","","","","",""
"","S2","","html-keyboard-response","265","351838","0.0-1.0-364.0","0","0","38558","","null","","","null","40","","NaN","","","","","","","","","","","","","",""
"","response","","html-keyboard-response","266","351874","0.0-1.0-365.0","0","0","38558","","34","","","75","40","","","1","40","training","adjacent","DE","4","5","P.jpg","Q.jpg","0","1","0","",""
"","feedback","","html-keyboard-response","267","352878","0.0-1.0-366.0-0.0","0","0","38558","","null","","","null","40","","","","","","","","","","","","","","","",""
"","time_out","","html-keyboard-response","268","354886","0.0-1.0-368.0-0.0","0","0","38558","","null","","","null","40","","","","","","","","","","","","","","","",""
"","ITI","","html-keyboard-response","269","355891","0.0-1.0-369.0","0","0","38558","","null","","","null","40","","","","","","","","","","","","","","","NaN",""
"","S1","","html-keyboard-response","270","356147","0.0-1.0-371.0","0","0","38558","","null","","","null","41","","","","","","","","","","","","","","","",""
"","ISI","","html-keyboard-response","271","358153","0.0-1.0-372.0","0","0","38558","","null","","","null","41","NaN","","","","","","","","","","","","","","",""
"","S2","","html-keyboard-response","272","358410","0.0-1.0-373.0","0","0","38558","","null","","","null","41","","NaN","","","","","","","","","","","","","",""
"","response","","html-keyboard-response","273","358511","0.0-1.0-374.0","0","0","38558","","98","","","68","41","","","1","41","training","adjacent","EF","5","6","Q.jpg","N.jpg","1","1","1","",""
"","feedback","","html-keyboard-response","274","359518","0.0-1.0-375.0-0.0","0","0","38558","","null","","","null","41","","","","","","","","","","","","","","","",""
"","ITI","","html-keyboard-response","275","360526","0.0-1.0-378.0","0","0","38558","","null","","","null","41","","","","","","","","","","","","","","","NaN",""
"","S1","","html-keyboard-response","276","360783","0.0-1.0-380.0","0","0","38558","","null","","","null","42","","","","","","","","","","","","","","","",""
"","ISI","","html-keyboard-response","277","362786","0.0-1.0-381.0","0","0","38558","","1865","","","68","42","d","","","","","","","","","","","","","","",""
"","S2","","html-keyboard-response","278","363042","0.0-1.0-382.0","0","0","38558","","null","","","null","42","","NaN","","","","","","","","","","","","","",""
"","response","","html-keyboard-response","279","363256","0.0-1.0-383.0","0","0","38558","","212","","","68","42","","","1","42","training","adjacent","EF","5","6","Q.jpg","N.jpg","1","1","1","",""
"","feedback","","html-keyboard-response","280","364263","0.0-1.0-384.0-0.0","0","0","38558","","null","","","null","42","","","","","","","","","","","","","","","",""
"","ITI","","html-keyboard-response","281","365270","0.0-1.0-387.0","0","0","38558","","null","","","null","42","","","","","","","","","","","","","","","NaN",""
"","S1","","html-keyboard-response","282","365527","0.0-1.0-389.0","0","0","38558","","null","","","null","43","","","","","","","","","","","","","","","",""
"","ISI","","html-keyboard-response","283","367534","0.0-1.0-390.0","0","0","38558","","null","","","null","43","NaN","","","","","","","","","","","","","","",""
"","S2","","html-keyboard-response","284","367789","0.0-1.0-391.0","0","0","38558","","null","","","null","43","","NaN","","","","","","","","","","","","","",""
"","response","","html-keyboard-response","285","367848","0.0-1.0-392.0","0","0","38558","","55","","","75","43","","","1","43","training","adjacent","BC","2","3","M.jpg","R.jpg","0","1","0","",""
"","feedback","","html-keyboard-response","286","368855","0.0-1.0-393.0-0.0","0","0","38558","","null","","","null","43","","","","","","","","","","","","","","","",""
"","time_out","","html-keyboard-response","287","370862","0.0-1.0-395.0-0.0","0","0","38558","","null","","","null","43","","","","","","","","","","","","","","","",""
"","ITI","","html-keyboard-response","288","371869","0.0-1.0-396.0","0","0","38558","","null","","","null","43","","","","","","","","","","","","","","","NaN",""
"","S1","","html-keyboard-response","289","372125","0.0-1.0-398.0","0","0","38558","","null","","","null","44","","","","","","","","","","","","","","","",""
"","ISI","","html-keyboard-response","290","374128","0.0-1.0-399.0","0","0","38558","","1996","","","68","44","d","","","","","","","","","","","","","","",""
"","S2","","html-keyboard-response","291","374385","0.0-1.0-400.0","0","0","38558","","null","","","null","44","","NaN","","","","","","","","","","","","","",""
"","response","","html-keyboard-response","292","374597","0.0-1.0-401.0","0","0","38558","","210","","","68","44","","","1","44","training","adjacent","AB","1","2","L.jpg","M.jpg","1","1","1","",""
"","feedback","","html-keyboard-response","293","375602","0.0-1.0-402.0-0.0","0","0","38558","","null","","","null","44","","","","","","","","","","","","","","","",""
"","ITI","","html-keyboard-response","294","376609","0.0-1.0-405.0","0","0","38558","","null","","","null","44","","","","","","","","","","","","","","","NaN",""
"","S1","","html-keyboard-response","295","376866","0.0-1.0-407.0","0","0","38558","","null","","","null","45","","","","","","","","","","","","","","","",""
"","ISI","","html-keyboard-response","296","378872","0.0-1.0-408.0","0","0","38558","","null","","","null","45","NaN","","","","","","","","","","","","","","",""
"","S2","","html-keyboard-response","297","379128","0.0-1.0-409.0","0","0","38558","","null","","","null","45","","NaN","","","","","","","","","","","","","",""
"","response","","html-keyboard-response","298","379299","0.0-1.0-410.0","0","0","38558","","170","","","68","45","","","1","45","training","adjacent","DC","4","3","P.jpg","R.jpg","1","0","0","",""
"","feedback","","html-keyboard-response","299","380306","0.0-1.0-411.0-0.0","0","0","38558","","null","","","null","45","","","","","","","","","","","","","","","",""
"","time_out","","html-keyboard-response","300","382311","0.0-1.0-413.0-0.0","0","0","38558","","null","","","null","45","","","","","","","","","","","","","","","",""
"","ITI","","html-keyboard-response","301","383318","0.0-1.0-414.0","0","0","38558","","null","","","null","45","","","","","","","","","","","","","","","NaN",""
"","S1","","html-keyboard-response","302","383575","0.0-1.0-416.0","0","0","38558","","null","","","null","46","","","","","","","","","","","","","","","",""
"","ISI","","html-keyboard-response","303","385580","0.0-1.0-417.0","0","0","38558","","null","","","null","46","NaN","","","","","","","","","","","","","","",""
"","S2","","html-keyboard-response","304","385837","0.0-1.0-418.0","0","0","38558","","null","","","null","46","","NaN","","","","","","","","","","","","","",""
"","response","","html-keyboard-response","305","385914","0.0-1.0-419.0","0","0","38558","","75","","","68","46","","","1","46","training","adjacent","BC","2","3","M.jpg","R.jpg","1","1","1","",""
"","feedback","","html-keyboard-response","306","386919","0.0-1.0-420.0-0.0","0","0","38558","","null","","","null","46","","","","","","","","","","","","","","","",""
"","ITI","","html-keyboard-response","307","387926","0.0-1.0-423.0","0","0","38558","","null","","","null","46","","","","","","","","","","","","","","","NaN",""
"","S1","","html-keyboard-response","308","388183","0.0-1.0-425.0","0","0","38558","","null","","","null","47","","","","","","","","","","","","","","","",""
"","ISI","","html-keyboard-response","309","390188","0.0-1.0-426.0","0","0","38558","","null","","","null","47","NaN","","","","","","","","","","","","","","",""
"","S2","","html-keyboard-response","310","390444","0.0-1.0-427.0","0","0","38558","","null","","","null","47","","NaN","","","","","","","","","","","","","",""
"","response","","html-keyboard-response","311","390594","0.0-1.0-428.0","0","0","38558","","147","","","68","47","","","1","47","training","adjacent","GF","7","6","O.jpg","N.jpg","1","0","0","",""
"","feedback","","html-keyboard-response","312","391602","0.0-1.0-429.0-0.0","0","0","38558","","null","","","null","47","","","","","","","","","","","","","","","",""
"","time_out","","html-keyboard-response","313","393607","0.0-1.0-431.0-0.0","0","0","38558","","null","","","null","47","","","","","","","","","","","","","","","",""
"","ITI","","html-keyboard-response","314","394614","0.0-1.0-432.0","0","0","38558","","null","","","null","47","","","","","","","","","","","","","","","NaN",""
"","block_over","","html-keyboard-response","315","435953","0.0-1.0-433.0-0.0","0","0","38558","","41335","","","32","47","","","","","","","","","","","","","","","",""
"","S1","","html-keyboard-response","316","436207","0.0-1.0-434.0","0","0","38558","","null","","","null","48","","","","","","","","","","","","","","","",""
"","ISI","","html-keyboard-response","317","438212","0.0-1.0-435.0","0","0","38558","","null","","","null","48","NaN","","","","","","","","","","","","","","",""
"","S2","","html-keyboard-response","318","438468","0.0-1.0-436.0","0","0","38558","","null","","","null","48","","NaN","","","","","","","","","","","","","",""
"","response","","html-keyboard-response","319","438580","0.0-1.0-437.0","0","0","38558","","111","","","75","48","","","2","48","training","adjacent","ED","5","4","Q.jpg","P.jpg","0","0","1","",""
"","feedback","","html-keyboard-response","320","439588","0.0-1.0-438.0-0.0","0","0","38558","","null","","","null","48","","","","","","","","","","","","","","","",""
"","ITI","","html-keyboard-response","321","440595","0.0-1.0-441.0","0","0","38558","","null","","","null","48","","","","","","","","","","","","","","","NaN",""
"","S1","","html-keyboard-response","322","440852","0.0-1.0-443.0","0","0","38558","","null","","","null","49","","","","","","","","","","","","","","","",""
"","ISI","","html-keyboard-response","323","442858","0.0-1.0-444.0","0","0","38558","","null","","","null","49","NaN","","","","","","","","","","","","","","",""
"","S2","","html-keyboard-response","324","443114","0.0-1.0-445.0","0","0","38558","","null","","","null","49","","NaN","","","","","","","","","","","","","",""
"","response","","html-keyboard-response","325","443240","0.0-1.0-446.0","0","0","38558","","123","","","68","49","","","2","49","training","adjacent","BA","2","1","M.jpg","L.jpg","1","0","0","",""
"","feedback","","html-keyboard-response","326","444244","0.0-1.0-447.0-0.0","0","0","38558","","null","","","null","49","","","","","","","","","","","","","","","",""
"","time_out","","html-keyboard-response","327","446250","0.0-1.0-449.0-0.0","0","0","38558","","null","","","null","49","","","","","","","","","","","","","","","",""
"","ITI","","html-keyboard-response","328","447256","0.0-1.0-450.0","0","0","38558","","null","","","null","49","","","","","","","","","","","","","","","NaN",""
"","S1","","html-keyboard-response","329","447514","0.0-1.0-452.0","0","0","38558","","null","","","null","50","","","","","","","","","","","","","","","",""
"","ISI","","html-keyboard-response","330","449519","0.0-1.0-453.0","0","0","38558","","null","","","null","50","NaN","","","","","","","","","","","","","","",""
"","S2","","html-keyboard-response","331","449775","0.0-1.0-454.0","0","0","38558","","null","","","null","50","","NaN","","","","","","","","","","","","","",""
"","response","","html-keyboard-response","332","449810","0.0-1.0-455.0","0","0","38558","","33","","","75","50","","","2","50","training","adjacent","DC","4","3","P.jpg","R.jpg","0","0","1","",""
"","feedback","","html-keyboard-response","333","450815","0.0-1.0-456.0-0.0","0","0","38558","","null","","","null","50","","","","","","","","","","","","","","","",""
"","ITI","","html-keyboard-response","334","451821","0.0-1.0-459.0","0","0","38558","","null","","","null","50","","","","","","","","","","","","","","","NaN",""
"","S1","","html-keyboard-response","335","452079","0.0-1.0-461.0","0","0","38558","","null","","","null","51","","","","","","","","","","","","","","","",""
"","ISI","","html-keyboard-response","336","454084","0.0-1.0-462.0","0","0","38558","","null","","","null","51","NaN","","","","","","","","","","","","","","",""
"","S2","","html-keyboard-response","337","454340","0.0-1.0-463.0","0","0","38558","","null","","","null","51","","NaN","","","","","","","","","","","","","",""
"","response","","html-keyboard-response","338","454399","0.0-1.0-464.0","0","0","38558","","57","","","75","51","","","2","51","training","adjacent","BC","2","3","M.jpg","R.jpg","0","1","0","",""
"","feedback","","html-keyboard-response","339","455406","0.0-1.0-465.0-0.0","0","0","38558","","null","","","null","51","","","","","","","","","","","","","","","",""
"","time_out","","html-keyboard-response","340","457411","0.0-1.0-467.0-0.0","0","0","38558","","null","","","null","51","","","","","","","","","","","","","","","",""
"","ITI","","html-keyboard-response","341","458418","0.0-1.0-468.0","0","0","38558","","null","","","null","51","","","","","","","","","","","","","","","NaN",""
"","S1","","html-keyboard-response","342","458676","0.0-1.0-470.0","0","0","38558","","null","","","null","52","","","","","","","","","","","","","","","",""
"","ISI","","html-keyboard-response","343","460682","0.0-1.0-471.0","0","0","38558","","null","","","null","52","NaN","","","","","","","","","","","","","","",""
"","S2","","html-keyboard-response","344","460936","0.0-1.0-472.0","0","0","38558","","null","","","null","52","","NaN","","","","","","","","","","","","","",""
"","response","","html-keyboard-response","345","461057","0.0-1.0-473.0","0","0","38558","","119","","","68","52","","","2","52","training","adjacent","FG","6","7","N.jpg","O.jpg","1","1","1","",""
"","feedback","","html-keyboard-response","346","462062","0.0-1.0-474.0-0.0","0","0","38558","","null","","","null","52","","","","","","","","","","","","","","","",""
"","ITI","","html-keyboard-response","347","463069","0.0-1.0-477.0","0","0","38558","","null","","","null","52","","","","","","","","","","","","","","","NaN",""
"","S1","","html-keyboard-response","348","463326","0.0-1.0-479.0","0","0","38558","","null","","","null","53","","","","","","","","","","","","","","","",""
"","ISI","","html-keyboard-response","349","465331","0.0-1.0-480.0","0","0","38558","","null","","","null","53","NaN","","","","","","","","","","","","","","",""
"","S2","","html-keyboard-response","350","465587","0.0-1.0-481.0","0","0","38558","","null","","","null","53","","NaN","","","","","","","","","","","","","",""
"","response","","html-keyboard-response","351","465760","0.0-1.0-482.0","0","0","38558","","171","","","75","53","","","2","53","training","adjacent","DC","4","3","P.jpg","R.jpg","0","0","1","",""
"","feedback","","html-keyboard-response","352","466766","0.0-1.0-483.0-0.0","0","0","38558","","null","","","null","53","","","","","","","","","","","","","","","",""
"","ITI","","html-keyboard-response","353","467791","0.0-1.0-486.0","0","0","38558","","null","","","null","53","","","","","","","","","","","","","","","NaN",""
"","S1","","html-keyboard-response","354","468047","0.0-1.0-488.0","0","0","38558","","null","","","null","54","","","","","","","","","","","","","","","",""
"","ISI","","html-keyboard-response","355","470051","0.0-1.0-489.0","0","0","38558","","null","","","null","54","NaN","","","","","","","","","","","","","","",""
"","S2","","html-keyboard-response","356","470307","0.0-1.0-490.0","0","0","38558","","null","","","null","54","","NaN","","","","","","","","","","","","","",""
"","response","","html-keyboard-response","357","470352","0.0-1.0-491.0","0","0","38558","","42","","","68","54","","","2","54","training","adjacent","FG","6","7","N.jpg","O.jpg","1","1","1","",""
"","feedback","","html-keyboard-response","358","471360","0.0-1.0-492.0-0.0","0","0","38558","","null","","","null","54","","","","","","","","","","","","","","","",""
"","ITI","","html-keyboard-response","359","472365","0.0-1.0-495.0","0","0","38558","","null","","","null","54","","","","","","","","","","","","","","","NaN",""
"","S1","","html-keyboard-response","360","472622","0.0-1.0-497.0","0","0","38558","","null","","","null","55","","","","","","","","","","","","","","","",""
"","ISI","","html-keyboard-response","361","474627","0.0-1.0-498.0","0","0","38558","","null","","","null","55","NaN","","","","","","","","","","","","","","",""
"","S2","","html-keyboard-response","362","474883","0.0-1.0-499.0","0","0","38558","","null","","","null","55","","NaN","","","","","","","","","","","","","",""
"","response","","html-keyboard-response","363","475075","0.0-1.0-500.0","0","0","38558","","189","","","68","55","","","2","55","training","adjacent","FG","6","7","N.jpg","O.jpg","1","1","1","",""
"","feedback","","html-keyboard-response","364","476083","0.0-1.0-501.0-0.0","0","0","38558","","null","","","null","55","","","","","","","","","","","","","","","",""
"","ITI","","html-keyboard-response","365","477091","0.0-1.0-504.0","0","0","38558","","null","","","null","55","","","","","","","","","","","","","","","NaN",""
"","S1","","html-keyboard-response","366","477347","0.0-1.0-506.0","0","0","38558","","null","","","null","56","","","","","","","","","","","","","","","",""
"","ISI","","html-keyboard-response","367","479352","0.0-1.0-507.0","0","0","38558","","null","","","null","56","NaN","","","","","","","","","","","","","","",""
"","S2","","html-keyboard-response","368","479608","0.0-1.0-508.0","0","0","38558","","null","","","null","56","","NaN","","","","","","","","","","","","","",""
"","response","","html-keyboard-response","369","481613","0.0-1.0-509.0","0","0","38558","","null","","","null","56","","","2","56","training","adjacent","DE","4","5","P.jpg","Q.jpg","NaN","1","0","",""
"","too_slow_prompt","","html-keyboard-response","370","482621","0.0-1.0-511.0-0.0","1","0","38558","","null","","","null","","","","","","","","","","","","","","","","",""
"","time_out","","html-keyboard-response","371","484626","0.0-1.0-512.0-0.0","0","0","38558","","null","","","null","56","","","","","","","","","","","","","","","",""
"","ITI","","html-keyboard-response","372","485634","0.0-1.0-513.0","0","0","38558","","null","","","null","56","","","","","","","","","","","","","","","NaN",""
"","S1","","html-keyboard-response","373","485891","0.0-1.0-515.0","0","0","38558","","null","","","null","57","","","","","","","","","","","","","","","",""
"","ISI","","html-keyboard-response","374","487894","0.0-1.0-516.0","0","0","38558","","453","","","75","57","k","","","","","","","","","","","","","","",""
"","S2","","html-keyboard-response","375","488152","0.0-1.0-517.0","0","0","38558","","null","","","null","57","","NaN","","","","","","","","","","","","","",""
"","response","","html-keyboard-response","376","488191","0.0-1.0-518.0","0","0","38558","","37","","","68","57","","","2","57","training","adjacent","AB","1","2","L.jpg","M.jpg","1","1","1","",""
"","feedback","","html-keyboard-response","377","489196","0.0-1.0-519.0-0.0","0","0","38558","","null","","","null","57","","","","","","","","","","","","","","","",""
"","ITI","","html-keyboard-response","378","490203","0.0-1.0-522.0","0","0","38558","","null","","","null","57","","","","","","","","","","","","","","","NaN",""
"","S1","","html-keyboard-response","379","490460","0.0-1.0-524.0","0","0","38558","","null","","","null","58","","","","","","","","","","","","","","","",""
"","ISI","","html-keyboard-response","380","492466","0.0-1.0-525.0","0","0","38558","","null","","","null","58","NaN","","","","","","","","","","","","","","",""
"","S2","","html-keyboard-response","381","492722","0.0-1.0-526.0","0","0","38558","","null","","","null","58","","NaN","","","","","","","","","","","","","",""
"","response","","html-keyboard-response","382","492826","0.0-1.0-527.0","0","0","38558","","101","","","75","58","","","2","58","training","adjacent","BA","2","1","M.jpg","L.jpg","0","0","1","",""
"","feedback","","html-keyboard-response","383","493832","0.0-1.0-528.0-0.0","0","0","38558","","null","","","null","58","","","","","","","","","","","","","","","",""
"","ITI","","html-keyboard-response","384","494839","0.0-1.0-531.0","0","0","38558","","null","","","null","58","","","","","","","","","","","","","","","NaN",""
"","S1","","html-keyboard-response","385","495094","0.0-1.0-533.0","0","0","38558","","null","","","null","59","","","","","","","","","","","","","","","",""
"","ISI","","html-keyboard-response","386","497101","0.0-1.0-534.0","0","0","38558","","null","","","null","59","NaN","","","","","","","","","","","","","","",""
"","S2","","html-keyboard-response","387","497357","0.0-1.0-535.0","0","0","38558","","null","","","null","59","","NaN","","","","","","","","","","","","","",""
"","response","","html-keyboard-response","388","498161","0.0-1.0-536.0","0","0","38558","","802","","","68","59","","","2","59","training","adjacent","AB","1","2","L.jpg","M.jpg","1","1","1","",""
"","feedback","","html-keyboard-response","389","499168","0.0-1.0-537.0-0.0","0","0","38558","","null","","","null","59","","","","","","","","","","","","","","","",""
"","ITI","","html-keyboard-response","390","500173","0.0-1.0-540.0","0","0","38558","","null","","","null","59","","","","","","","","","","","","","","","NaN",""
"","S1","","html-keyboard-response","391","500428","0.0-1.0-542.0","0","0","38558","","null","","","null","60","","","","","","","","","","","","","","","",""
"","ISI","","html-keyboard-response","392","502434","0.0-1.0-543.0","0","0","38558","","null","","","null","60","NaN","","","","","","","","","","","","","","",""
"","S2","","html-keyboard-response","393","502689","0.0-1.0-544.0","0","0","38558","","null","","","null","60","","NaN","","","","","","","","","","","","","",""
"","response","","html-keyboard-response","394","502748","0.0-1.0-545.0","0","0","38558","","56","","","75","60","","","2","60","training","adjacent","BC","2","3","M.jpg","R.jpg","0","1","0","",""
"","feedback","","html-keyboard-response","395","503755","0.0-1.0-546.0-0.0","0","0","38558","","null","","","null","60","","","","","","","","","","","","","","","",""
"","time_out","","html-keyboard-response","396","505762","0.0-1.0-548.0-0.0","0","0","38558","","null","","","null","60","","","","","","","","","","","","","","","",""
"","ITI","","html-keyboard-response","397","506768","0.0-1.0-549.0","0","0","38558","","null","","","null","60","","","","","","","","","","","","","","","NaN",""
"","S1","","html-keyboard-response","398","507026","0.0-1.0-551.0","0","0","38558","","null","","","null","61","","","","","","","","","","","","","","","",""
"","ISI","","html-keyboard-response","399","509031","0.0-1.0-552.0","0","0","38558","","null","","","null","61","NaN","","","","","","","","","","","","","","",""
"","S2","","html-keyboard-response","400","509287","0.0-1.0-553.0","0","0","38558","","null","","","null","61","","NaN","","","","","","","","","","","","","",""
"","response","","html-keyboard-response","401","509340","0.0-1.0-554.0","0","0","38558","","52","","","75","61","","","2","61","training","adjacent","AB","1","2","L.jpg","M.jpg","0","1","0","",""
"","feedback","","html-keyboard-response","402","510348","0.0-1.0-555.0-0.0","0","0","38558","","null","","","null","61","","","","","","","","","","","","","","","",""
"","time_out","","html-keyboard-response","403","512353","0.0-1.0-557.0-0.0","0","0","38558","","null","","","null","61","","","","","","","","","","","","","","","",""
"","ITI","","html-keyboard-response","404","513360","0.0-1.0-558.0","0","0","38558","","null","","","null","61","","","","","","","","","","","","","","","NaN",""
"","S1","","html-keyboard-response","405","513617","0.0-1.0-560.0","0","0","38558","","null","","","null","62","","","","","","","","","","","","","","","",""
"","ISI","","html-keyboard-response","406","515623","0.0-1.0-561.0","0","0","38558","","1728","","","68","62","d","","","","","","","","","","","","","","",""
"","S2","","html-keyboard-response","407","515877","0.0-1.0-562.0","0","0","38558","","238","","","68","62","","d","","","","","","","","","","","","","",""
"","response","","html-keyboard-response","408","516494","0.0-1.0-563.0","0","0","38558","","614","","","68","62","","","2","62","training","adjacent","CD","3","4","R.jpg","P.jpg","1","1","1","",""
"","feedback","","html-keyboard-response","409","517500","0.0-1.0-564.0-0.0","0","0","38558","","null","","","null","62","","","","","","","","","","","","","","","",""
"","ITI","","html-keyboard-response","410","518508","0.0-1.0-567.0","0","0","38558","","null","","","null","62","","","","","","","","","","","","","","","NaN",""
"","S1","","html-keyboard-response","411","518764","0.0-1.0-569.0","0","0","38558","","null","","","null","63","","","","","","","","","","","","","","","",""
"","ISI","","html-keyboard-response","412","520769","0.0-1.0-570.0","0","0","38558","","null","","","null","63","NaN","","","","","","","","","","","","","","",""
"","S2","","html-keyboard-response","413","521025","0.0-1.0-571.0","0","0","38558","","null","","","null","63","","NaN","","","","","","","","","","","","","",""
"","response","","html-keyboard-response","414","521399","0.0-1.0-572.0","0","0","38558","","373","","","75","63","","","2","63","training","adjacent","EF","5","6","Q.jpg","N.jpg","0","1","0","",""
"","feedback","","html-keyboard-response","415","522407","0.0-1.0-573.0-0.0","0","0","38558","","null","","","null","63","","","","","","","","","","","","","","","",""
"","time_out","","html-keyboard-response","416","524413","0.0-1.0-575.0-0.0","0","0","38558","","null","","","null","63","","","","","","","","","","","","","","","",""
"","ITI","","html-keyboard-response","417","525419","0.0-1.0-576.0","0","0","38558","","null","","","null","63","","","","","","","","","","","","","","","NaN",""
"","S1","","html-keyboard-response","418","525675","0.0-1.0-578.0","0","0","38558","","null","","","null","64","","","","","","","","","","","","","","","",""
"","ISI","","html-keyboard-response","419","527683","0.0-1.0-579.0","0","0","38558","","null","","","null","64","NaN","","","","","","","","","","","","","","",""
"","S2","","html-keyboard-response","420","527941","0.0-1.0-580.0","0","0","38558","","null","","","null","64","","NaN","","","","","","","","","","","","","",""
"","response","","html-keyboard-response","421","527947","0.0-1.0-581.0","0","0","38558","","4","","","68","64","","","2","64","training","adjacent","CD","3","4","R.jpg","P.jpg","1","1","1","",""
"","feedback","","html-keyboard-response","422","528955","0.0-1.0-582.0-0.0","0","0","38558","","null","","","null","64","","","","","","","","","","","","","","","",""
"","ITI","","html-keyboard-response","423","529958","0.0-1.0-585.0","0","0","38558","","null","","","null","64","","","","","","","","","","","","","","","NaN",""
"","S1","","html-keyboard-response","424","530214","0.0-1.0-587.0","0","0","38558","","null","","","null","65","","","","","","","","","","","","","","","",""
"","ISI","","html-keyboard-response","425","532219","0.0-1.0-588.0","0","0","38558","","null","","","null","65","NaN","","","","","","","","","","","","","","",""
"","S2","","html-keyboard-response","426","532475","0.0-1.0-589.0","0","0","38558","","null","","","null","65","","NaN","","","","","","","","","","","","","",""
"","response","","html-keyboard-response","427","533144","0.0-1.0-590.0","0","0","38558","","666","","","68","65","","","2","65","training","adjacent","GF","7","6","O.jpg","N.jpg","1","0","0","",""
"","feedback","","html-keyboard-response","428","534149","0.0-1.0-591.0-0.0","0","0","38558","","null","","","null","65","","","","","","","","","","","","","","","",""
"","time_out","","html-keyboard-response","429","536155","0.0-1.0-593.0-0.0","0","0","38558","","null","","","null","65","","","","","","","","","","","","","","","",""
"","ITI","","html-keyboard-response","430","537163","0.0-1.0-594.0","0","0","38558","","450","","","68","65","","","","","","","","","","","","","","","d",""
"","S1","","html-keyboard-response","431","537419","0.0-1.0-596.0","0","0","38558","","null","","","null","66","","","","","","","","","","","","","","","",""
"","ISI","","html-keyboard-response","432","539424","0.0-1.0-597.0","0","0","38558","","40","","","68","66","d","","","","","","","","","","","","","","",""
"","S2","","html-keyboard-response","433","539680","0.0-1.0-598.0","0","0","38558","","null","","","null","66","","NaN","","","","","","","","","","","","","",""
"","response","","html-keyboard-response","434","539736","0.0-1.0-599.0","0","0","38558","","53","","","75","66","","","2","66","training","adjacent","BC","2","3","M.jpg","R.jpg","0","1","0","",""
"","feedback","","html-keyboard-response","435","540741","0.0-1.0-600.0-0.0","0","0","38558","","null","","","null","66","","","","","","","","","","","","","","","",""
"","time_out","","html-keyboard-response","436","542747","0.0-1.0-602.0-0.0","0","0","38558","","null","","","null","66","","","","","","","","","","","","","","","",""
"","ITI","","html-keyboard-response","437","543754","0.0-1.0-603.0","0","0","38558","","null","","","null","66","","","","","","","","","","","","","","","NaN",""
"","S1","","html-keyboard-response","438","544011","0.0-1.0-605.0","0","0","38558","","null","","","null","67","","","","","","","","","","","","","","","",""
"","ISI","","html-keyboard-response","439","546016","0.0-1.0-606.0","0","0","38558","","null","","","null","67","NaN","","","","","","","","","","","","","","",""
"","S2","","html-keyboard-response","440","546271","0.0-1.0-607.0","0","0","38558","","null","","","null","67","","NaN","","","","","","","","","","","","","",""
"","response","","html-keyboard-response","441","546733","0.0-1.0-608.0","0","0","38558","","459","","","68","67","","","2","67","training","adjacent","GF","7","6","O.jpg","N.jpg","1","0","0","",""
"","feedback","","html-keyboard-response","442","547739","0.0-1.0-609.0-0.0","0","0","38558","","null","","","null","67","","","","","","","","","","","","","","","",""
"","time_out","","html-keyboard-response","443","549744","0.0-1.0-611.0-0.0","0","0","38558","","null","","","null","67","","","","","","","","","","","","","","","",""
"","ITI","","html-keyboard-response","444","550750","0.0-1.0-612.0","0","0","38558","","null","","","null","67","","","","","","","","","","","","","","","NaN",""
"","S1","","html-keyboard-response","445","551007","0.0-1.0-614.0","0","0","38558","","null","","","null","68","","","","","","","","","","","","","","","",""
"","ISI","","html-keyboard-response","446","553013","0.0-1.0-615.0","0","0","38558","","null","","","null","68","NaN","","","","","","","","","","","","","","",""
"","S2","","html-keyboard-response","447","553269","0.0-1.0-616.0","0","0","38558","","null","","","null","68","","NaN","","","","","","","","","","","","","",""
"","response","","html-keyboard-response","448","553280","0.0-1.0-617.0","0","0","38558","","9","","","75","68","","","2","68","training","adjacent","EF","5","6","Q.jpg","N.jpg","0","1","0","",""
"","feedback","","html-keyboard-response","449","554287","0.0-1.0-618.0-0.0","0","0","38558","","null","","","null","68","","","","","","","","","","","","","","","",""
"","time_out","","html-keyboard-response","450","556293","0.0-1.0-620.0-0.0","0","0","38558","","null","","","null","68","","","","","","","","","","","","","","","",""
"","ITI","","html-keyboard-response","451","557301","0.0-1.0-621.0","0","0","38558","","null","","","null","68","","","","","","","","","","","","","","","NaN",""
"","S1","","html-keyboard-response","452","557556","0.0-1.0-623.0","0","0","38558","","null","","","null","69","","","","","","","","","","","","","","","",""
"","ISI","","html-keyboard-response","453","559562","0.0-1.0-624.0","0","0","38558","","1480","","","68","69","d","","","","","","","","","","","","","","",""
"","S2","","html-keyboard-response","454","559818","0.0-1.0-625.0","0","0","38558","","149","","","68","69","","d","","","","","","","","","","","","","",""
"","response","","html-keyboard-response","455","560434","0.0-1.0-626.0","0","0","38558","","614","","","68","69","","","2","69","training","adjacent","FG","6","7","N.jpg","O.jpg","1","1","1","",""
"","feedback","","html-keyboard-response","456","561439","0.0-1.0-627.0-0.0","0","0","38558","","null","","","null","69","","","","","","","","","","","","","","","",""
"","ITI","","html-keyboard-response","457","562446","0.0-1.0-630.0","0","0","38558","","null","","","null","69","","","","","","","","","","","","","","","NaN",""
"","S1","","html-keyboard-response","458","562703","0.0-1.0-632.0","0","0","38558","","null","","","null","70","","","","","","","","","","","","","","","",""
"","ISI","","html-keyboard-response","459","564708","0.0-1.0-633.0","0","0","38558","","null","","","null","70","NaN","","","","","","","","","","","","","","",""
"","S2","","html-keyboard-response","460","564964","0.0-1.0-634.0","0","0","38558","","null","","","null","70","","NaN","","","","","","","","","","","","","",""
"","response","","html-keyboard-response","461","565451","0.0-1.0-635.0","0","0","38558","","485","","","68","70","","","2","70","training","adjacent","CB","3","2","R.jpg","M.jpg","1","0","0","",""
"","feedback","","html-keyboard-response","462","566457","0.0-1.0-636.0-0.0","0","0","38558","","null","","","null","70","","","","","","","","","","","","","","","",""
"","time_out","","html-keyboard-response","463","568463","0.0-1.0-638.0-0.0","0","0","38558","","null","","","null","70","","","","","","","","","","","","","","","",""
"","ITI","","html-keyboard-response","464","569469","0.0-1.0-639.0","0","0","38558","","null","","","null","70","","","","","","","","","","","","","","","NaN",""
"","S1","","html-keyboard-response","465","569727","0.0-1.0-641.0","0","0","38558","","null","","","null","71","","","","","","","","","","","","","","","",""
"","ISI","","html-keyboard-response","466","571731","0.0-1.0-642.0","0","0","38558","","null","","","null","71","NaN","","","","","","","","","","","","","","",""
"","S2","","html-keyboard-response","467","571985","0.0-1.0-643.0","0","0","38558","","243","","","75","71","","k","","","","","","","","","","","","","",""
"","response","","html-keyboard-response","468","572560","0.0-1.0-644.0","0","0","38558","","573","","","75","71","","","2","71","training","adjacent","FE","6","5","N.jpg","Q.jpg","0","0","1","",""
"","feedback","","html-keyboard-response","469","573566","0.0-1.0-645.0-0.0","0","0","38558","","null","","","null","71","","","","","","","","","","","","","","","",""
"","ITI","","html-keyboard-response","470","574574","0.0-1.0-648.0","0","0","38558","","null","","","null","71","","","","","","","","","","","","","","","NaN",""
"","S1","","html-keyboard-response","471","574830","0.0-1.0-650.0","0","0","38558","","null","","","null","72","","","","","","","","","","","","","","","",""
"","ISI","","html-keyboard-response","472","576836","0.0-1.0-651.0","0","0","38558","","null","","","null","72","NaN","","","","","","","","","","","","","","",""
"","S2","","html-keyboard-response","473","577092","0.0-1.0-652.0","0","0","38558","","null","","","null","72","","NaN","","","","","","","","","","","","","",""
"","response","","html-keyboard-response","474","577150","0.0-1.0-653.0","0","0","38558","","57","","","68","72","","","2","72","training","adjacent","FE","6","5","N.jpg","Q.jpg","1","0","0","",""
"","feedback","","html-keyboard-response","475","578158","0.0-1.0-654.0-0.0","0","0","38558","","null","","","null","72","","","","","","","","","","","","","","","",""
"","time_out","","html-keyboard-response","476","580163","0.0-1.0-656.0-0.0","0","0","38558","","null","","","null","72","","","","","","","","","","","","","","","",""
"","ITI","","html-keyboard-response","477","581170","0.0-1.0-657.0","0","0","38558","","null","","","null","72","","","","","","","","","","","","","","","NaN",""
"","S1","","html-keyboard-response","478","581428","0.0-1.0-659.0","0","0","38558","","null","","","null","73","","","","","","","","","","","","","","","",""
"","ISI","","html-keyboard-response","479","583433","0.0-1.0-660.0","0","0","38558","","null","","","null","73","NaN","","","","","","","","","","","","","","",""
"","S2","","html-keyboard-response","480","583689","0.0-1.0-661.0","0","0","38558","","null","","","null","73","","NaN","","","","","","","","","","","","","",""
"","response","","html-keyboard-response","481","583855","0.0-1.0-662.0","0","0","38558","","164","","","75","73","","","2","73","training","adjacent","DE","4","5","P.jpg","Q.jpg","0","1","0","",""
"","feedback","","html-keyboard-response","482","584862","0.0-1.0-663.0-0.0","0","0","38558","","null","","","null","73","","","","","","","","","","","","","","","",""
"","time_out","","html-keyboard-response","483","586869","0.0-1.0-665.0-0.0","0","0","38558","","null","","","null","73","","","","","","","","","","","","","","","",""
"","ITI","","html-keyboard-response","484","587875","0.0-1.0-666.0","0","0","38558","","null","","","null","73","","","","","","","","","","","","","","","NaN",""
"","S1","","html-keyboard-response","485","588131","0.0-1.0-668.0","0","0","38558","","null","","","null","74","","","","","","","","","","","","","","","",""
"","ISI","","html-keyboard-response","486","590136","0.0-1.0-669.0","0","0","38558","","null","","","null","74","NaN","","","","","","","","","","","","","","",""
"","S2","","html-keyboard-response","487","590391","0.0-1.0-670.0","0","0","38558","","240","","","68","74","","d","","","","","","","","","","","","","",""
"","response","","html-keyboard-response","488","590919","0.0-1.0-671.0","0","0","38558","","525","","","68","74","","","2","74","training","adjacent","CB","3","2","R.jpg","M.jpg","1","0","0","",""
"","feedback","","html-keyboard-response","489","591927","0.0-1.0-672.0-0.0","0","0","38558","","null","","","null","74","","","","","","","","","","","","","","","",""
"","time_out","","html-keyboard-response","490","593933","0.0-1.0-674.0-0.0","0","0","38558","","null","","","null","74","","","","","","","","","","","","","","","",""
"","ITI","","html-keyboard-response","491","594940","0.0-1.0-675.0","0","0","38558","","null","","","null","74","","","","","","","","","","","","","","","NaN",""
"","S1","","html-keyboard-response","492","595198","0.0-1.0-677.0","0","0","38558","","null","","","null","75","","","","","","","","","","","","","","","",""
"","ISI","","html-keyboard-response","493","597203","0.0-1.0-678.0","0","0","38558","","1637","","","75","75","k","","","","","","","","","","","","","","",""
"","S2","","html-keyboard-response","494","597458","0.0-1.0-679.0","0","0","38558","","125","","","75","75","","k","","","","","","","","","","","","","",""
"","response","","html-keyboard-response","495","597893","0.0-1.0-680.0","0","0","38558","","433","","","75","75","","","2","75","training","adjacent","DE","4","5","P.jpg","Q.jpg","0","1","0","",""
"","feedback","","html-keyboard-response","496","598899","0.0-1.0-681.0-0.0","0","0","38558","","null","","","null","75","","","","","","","","","","","","","","","",""
"","time_out","","html-keyboard-response","497","600904","0.0-1.0-683.0-0.0","0","0","38558","","null","","","null","75","","","","","","","","","","","","","","","",""
"","ITI","","html-keyboard-response","498","601910","0.0-1.0-684.0","0","0","38558","","null","","","null","75","","","","","","","","","","","","","","","NaN",""
"","S1","","html-keyboard-response","499","602167","0.0-1.0-686.0","0","0","38558","","null","","","null","76","","","","","","","","","","","","","","","",""
"","ISI","","html-keyboard-response","500","604173","0.0-1.0-687.0","0","0","38558","","null","","","null","76","NaN","","","","","","","","","","","","","","",""
"","S2","","html-keyboard-response","501","604429","0.0-1.0-688.0","0","0","38558","","null","","","null","76","","NaN","","","","","","","","","","","","","",""
"","response","","html-keyboard-response","502","604441","0.0-1.0-689.0","0","0","38558","","9","","","75","76","","","2","76","training","adjacent","FE","6","5","N.jpg","Q.jpg","0","0","1","",""
"","feedback","","html-keyboard-response","503","605448","0.0-1.0-690.0-0.0","0","0","38558","","null","","","null","76","","","","","","","","","","","","","","","",""
"","ITI","","html-keyboard-response","504","606453","0.0-1.0-693.0","0","0","38558","","null","","","null","76","","","","","","","","","","","","","","","NaN",""
"","S1","","html-keyboard-response","505","606709","0.0-1.0-695.0","0","0","38558","","null","","","null","77","","","","","","","","","","","","","","","",""
"","ISI","","html-keyboard-response","506","608716","0.0-1.0-696.0","0","0","38558","","null","","","null","77","NaN","","","","","","","","","","","","","","",""
"","S2","","html-keyboard-response","507","608973","0.0-1.0-697.0","0","0","38558","","null","","","null","77","","NaN","","","","","","","","","","","","","",""
"","response","","html-keyboard-response","508","609008","0.0-1.0-698.0","0","0","38558","","32","","","68","77","","","2","77","training","adjacent","CD","3","4","R.jpg","P.jpg","1","1","1","",""
"","feedback","","html-keyboard-response","509","610013","0.0-1.0-699.0-0.0","0","0","38558","","null","","","null","77","","","","","","","","","","","","","","","",""
"","ITI","","html-keyboard-response","510","611021","0.0-1.0-702.0","0","0","38558","","null","","","null","77","","","","","","","","","","","","","","","NaN",""
"","S1","","html-keyboard-response","511","611276","0.0-1.0-704.0","0","0","38558","","null","","","null","78","","","","","","","","","","","","","","","",""
"","ISI","","html-keyboard-response","512","613282","0.0-1.0-705.0","0","0","38558","","null","","","null","78","NaN","","","","","","","","","","","","","","",""
"","S2","","html-keyboard-response","513","613538","0.0-1.0-706.0","0","0","38558","","null","","","null","78","","NaN","","","","","","","","","","","","","",""
"","response","","html-keyboard-response","514","613890","0.0-1.0-707.0","0","0","38558","","349","","","75","78","","","2","78","training","adjacent","BA","2","1","M.jpg","L.jpg","0","0","1","",""
"","feedback","","html-keyboard-response","515","614898","0.0-1.0-708.0-0.0","0","0","38558","","null","","","null","78","","","","","","","","","","","","","","","",""
"","ITI","","html-keyboard-response","516","615905","0.0-1.0-711.0","0","0","38558","","null","","","null","78","","","","","","","","","","","","","","","NaN",""
"","S1","","html-keyboard-response","517","616162","0.0-1.0-713.0","0","0","38558","","null","","","null","79","","","","","","","","","","","","","","","",""
"","ISI","","html-keyboard-response","518","618167","0.0-1.0-714.0","0","0","38558","","null","","","null","79","NaN","","","","","","","","","","","","","","",""
"","S2","","html-keyboard-response","519","618423","0.0-1.0-715.0","0","0","38558","","40","","","75","79","","k","","","","","","","","","","","","","",""
"","response","","html-keyboard-response","520","618795","0.0-1.0-716.0","0","0","38558","","369","","","75","79","","","2","79","training","adjacent","CD","3","4","R.jpg","P.jpg","0","1","0","",""
"","feedback","","html-keyboard-response","521","619799","0.0-1.0-717.0-0.0","0","0","38558","","null","","","null","79","","","","","","","","","","","","","","","",""
"","time_out","","html-keyboard-response","522","621804","0.0-1.0-719.0-0.0","0","0","38558","","null","","","null","79","","","","","","","","","","","","","","","",""
"","ITI","","html-keyboard-response","523","622810","0.0-1.0-720.0","0","0","38558","","null","","","null","79","","","","","","","","","","","","","","","NaN",""
"","S1","","html-keyboard-response","524","623068","0.0-1.0-722.0","0","0","38558","","null","","","null","80","","","","","","","","","","","","","","","",""
"","ISI","","html-keyboard-response","525","625073","0.0-1.0-723.0","0","0","38558","","null","","","null","80","NaN","","","","","","","","","","","","","","",""
"","S2","","html-keyboard-response","526","625329","0.0-1.0-724.0","0","0","38558","","null","","","null","80","","NaN","","","","","","","","","","","","","",""
"","response","","html-keyboard-response","527","625367","0.0-1.0-725.0","0","0","38558","","35","","","68","80","","","2","80","training","adjacent","DE","4","5","P.jpg","Q.jpg","1","1","1","",""
"","feedback","","html-keyboard-response","528","626375","0.0-1.0-726.0-0.0","0","0","38558","","null","","","null","80","","","","","","","","","","","","","","","",""
"","ITI","","html-keyboard-response","529","627382","0.0-1.0-729.0","0","0","38558","","null","","","null","80","","","","","","","","","","","","","","","NaN",""
"","S1","","html-keyboard-response","530","627638","0.0-1.0-731.0","0","0","38558","","null","","","null","81","","","","","","","","","","","","","","","",""
"","ISI","","html-keyboard-response","531","629644","0.0-1.0-732.0","0","0","38558","","null","","","null","81","NaN","","","","","","","","","","","","","","",""
"","S2","","html-keyboard-response","532","629899","0.0-1.0-733.0","0","0","38558","","null","","","null","81","","NaN","","","","","","","","","","","","","",""
"","response","","html-keyboard-response","533","631844","0.0-1.0-734.0","0","0","38558","","1943","","","75","81","","","2","81","training","adjacent","ED","5","4","Q.jpg","P.jpg","0","0","1","",""
"","feedback","","html-keyboard-response","534","632849","0.0-1.0-735.0-0.0","0","0","38558","","null","","","null","81","","","","","","","","","","","","","","","",""
"","ITI","","html-keyboard-response","535","633857","0.0-1.0-738.0","0","0","38558","","null","","","null","81","","","","","","","","","","","","","","","NaN",""
"","S1","","html-keyboard-response","536","634113","0.0-1.0-740.0","0","0","38558","","null","","","null","82","","","","","","","","","","","","","","","",""
"","ISI","","html-keyboard-response","537","636118","0.0-1.0-741.0","0","0","38558","","null","","","null","82","NaN","","","","","","","","","","","","","","",""
"","S2","","html-keyboard-response","538","636374","0.0-1.0-742.0","0","0","38558","","null","","","null","82","","NaN","","","","","","","","","","","","","",""
"","response","","html-keyboard-response","539","636413","0.0-1.0-743.0","0","0","38558","","36","","","68","82","","","2","82","training","adjacent","GF","7","6","O.jpg","N.jpg","1","0","0","",""
"","feedback","","html-keyboard-response","540","637419","0.0-1.0-744.0-0.0","0","0","38558","","null","","","null","82","","","","","","","","","","","","","","","",""
"","time_out","","html-keyboard-response","541","639425","0.0-1.0-746.0-0.0","0","0","38558","","null","","","null","82","","","","","","","","","","","","","","","",""
"","ITI","","html-keyboard-response","542","640431","0.0-1.0-747.0","0","0","38558","","null","","","null","82","","","","","","","","","","","","","","","NaN",""
"","S1","","html-keyboard-response","543","640688","0.0-1.0-749.0","0","0","38558","","null","","","null","83","","","","","","","","","","","","","","","",""
"","ISI","","html-keyboard-response","544","642694","0.0-1.0-750.0","0","0","38558","","535","","","75","83","k","","","","","","","","","","","","","","",""
"","S2","","html-keyboard-response","545","642950","0.0-1.0-751.0","0","0","38558","","null","","","null","83","","NaN","","","","","","","","","","","","","",""
"","response","","html-keyboard-response","546","643160","0.0-1.0-752.0","0","0","38558","","209","","","75","83","","","2","83","training","adjacent","ED","5","4","Q.jpg","P.jpg","0","0","1","",""
"","feedback","","html-keyboard-response","547","644165","0.0-1.0-753.0-0.0","0","0","38558","","null","","","null","83","","","","","","","","","","","","","","","",""
"","ITI","","html-keyboard-response","548","645172","0.0-1.0-756.0","0","0","38558","","null","","","null","83","","","","","","","","","","","","","","","NaN",""
"","S1","","html-keyboard-response","549","645430","0.0-1.0-758.0","0","0","38558","","null","","","null","84","","","","","","","","","","","","","","","",""
"","ISI","","html-keyboard-response","550","647435","0.0-1.0-759.0","0","0","38558","","null","","","null","84","NaN","","","","","","","","","","","","","","",""
"","S2","","html-keyboard-response","551","647691","0.0-1.0-760.0","0","0","38558","","null","","","null","84","","NaN","","","","","","","","","","","","","",""
"","response","","html-keyboard-response","552","647773","0.0-1.0-761.0","0","0","38558","","80","","","68","84","","","2","84","training","adjacent","BC","2","3","M.jpg","R.jpg","1","1","1","",""
"","feedback","","html-keyboard-response","553","648780","0.0-1.0-762.0-0.0","0","0","38558","","null","","","null","84","","","","","","","","","","","","","","","",""
"","ITI","","html-keyboard-response","554","649787","0.0-1.0-765.0","0","0","38558","","null","","","null","84","","","","","","","","","","","","","","","NaN",""
"","S1","","html-keyboard-response","555","650043","0.0-1.0-767.0","0","0","38558","","null","","","null","85","","","","","","","","","","","","","","","",""
"","ISI","","html-keyboard-response","556","652048","0.0-1.0-768.0","0","0","38558","","null","","","null","85","NaN","","","","","","","","","","","","","","",""
"","S2","","html-keyboard-response","557","652304","0.0-1.0-769.0","0","0","38558","","null","","","null","85","","NaN","","","","","","","","","","","","","",""
"","response","","html-keyboard-response","558","652362","0.0-1.0-770.0","0","0","38558","","56","","","75","85","","","2","85","training","adjacent","DC","4","3","P.jpg","R.jpg","0","0","1","",""
"","feedback","","html-keyboard-response","559","653371","0.0-1.0-771.0-0.0","0","0","38558","","null","","","null","85","","","","","","","","","","","","","","","",""
"","ITI","","html-keyboard-response","560","654378","0.0-1.0-774.0","0","0","38558","","null","","","null","85","","","","","","","","","","","","","","","NaN",""
"","S1","","html-keyboard-response","561","654634","0.0-1.0-776.0","0","0","38558","","null","","","null","86","","","","","","","","","","","","","","","",""
"","ISI","","html-keyboard-response","562","656640","0.0-1.0-777.0","0","0","38558","","null","","","null","86","NaN","","","","","","","","","","","","","","",""
"","S2","","html-keyboard-response","563","656896","0.0-1.0-778.0","0","0","38558","","null","","","null","86","","NaN","","","","","","","","","","","","","",""
"","response","","html-keyboard-response","564","657267","0.0-1.0-779.0","0","0","38558","","369","","","75","86","","","2","86","training","adjacent","AB","1","2","L.jpg","M.jpg","0","1","0","",""
"","feedback","","html-keyboard-response","565","658274","0.0-1.0-780.0-0.0","0","0","38558","","null","","","null","86","","","","","","","","","","","","","","","",""
"","time_out","","html-keyboard-response","566","660281","0.0-1.0-782.0-0.0","0","0","38558","","null","","","null","86","","","","","","","","","","","","","","","",""
"","ITI","","html-keyboard-response","567","661288","0.0-1.0-783.0","0","0","38558","","null","","","null","86","","","","","","","","","","","","","","","NaN",""
"","S1","","html-keyboard-response","568","661545","0.0-1.0-785.0","0","0","38558","","null","","","null","87","","","","","","","","","","","","","","","",""
"","ISI","","html-keyboard-response","569","663551","0.0-1.0-786.0","0","0","38558","","1974","","","68","87","d","","","","","","","","","","","","","","",""
"","S2","","html-keyboard-response","570","663808","0.0-1.0-787.0","0","0","38558","","null","","","null","87","","NaN","","","","","","","","","","","","","",""
"","response","","html-keyboard-response","571","664039","0.0-1.0-788.0","0","0","38558","","229","","","68","87","","","2","87","training","adjacent","EF","5","6","Q.jpg","N.jpg","1","1","1","",""
"","feedback","","html-keyboard-response","572","665044","0.0-1.0-789.0-0.0","0","0","38558","","null","","","null","87","","","","","","","","","","","","","","","",""
"","ITI","","html-keyboard-response","573","666051","0.0-1.0-792.0","0","0","38558","","null","","","null","87","","","","","","","","","","","","","","","NaN",""
"","S1","","html-keyboard-response","574","666306","0.0-1.0-794.0","0","0","38558","","null","","","null","88","","","","","","","","","","","","","","","",""
"","ISI","","html-keyboard-response","575","668312","0.0-1.0-795.0","0","0","38558","","null","","","null","88","NaN","","","","","","","","","","","","","","",""
"","S2","","html-keyboard-response","576","668568","0.0-1.0-796.0","0","0","38558","","null","","","null","88","","NaN","","","","","","","","","","","","","",""
"","response","","html-keyboard-response","577","669573","0.0-1.0-797.0","0","0","38558","","1003","","","75","88","","","2","88","training","adjacent","CB","3","2","R.jpg","M.jpg","0","0","1","",""
"","feedback","","html-keyboard-response","578","670577","0.0-1.0-798.0-0.0","0","0","38558","","null","","","null","88","","","","","","","","","","","","","","","",""
"","ITI","","html-keyboard-response","579","671583","0.0-1.0-801.0","0","0","38558","","null","","","null","88","","","","","","","","","","","","","","","NaN",""
"","S1","","html-keyboard-response","580","671839","0.0-1.0-803.0","0","0","38558","","null","","","null","89","","","","","","","","","","","","","","","",""
"","ISI","","html-keyboard-response","581","673844","0.0-1.0-804.0","0","0","38558","","null","","","null","89","NaN","","","","","","","","","","","","","","",""
"","S2","","html-keyboard-response","582","674100","0.0-1.0-805.0","0","0","38558","","null","","","null","89","","NaN","","","","","","","","","","","","","",""
"","response","","html-keyboard-response","583","674322","0.0-1.0-806.0","0","0","38558","","220","","","75","89","","","2","89","training","adjacent","EF","5","6","Q.jpg","N.jpg","0","1","0","",""
"","feedback","","html-keyboard-response","584","675327","0.0-1.0-807.0-0.0","0","0","38558","","null","","","null","89","","","","","","","","","","","","","","","",""
