"success","ttype","start_time","trial_type","trial_index","time_elapsed","internal_node_id","warning","missed_checkup","PID","view_history","rt","responses","repeat_instructions","key_press","index","keypress_isi","keypress_S2","block","trial_num","phase","group_type","pair_type","S1_stim","S2_stim","S1_img","S2_img","S1_chosen","S1_higher","accuracy","keypress_iti","total_bonus_tally"
"true","full_screen","d03072023hr1755","fullscreen","0","7292","0.0-0.0","0","0","30433","","","","","","","","","","","","","","","","","","","","","",""
"","instructions","","instructions","1","379898","0.0-1.0-0.0-0.0","0","0","30433","[{""page_index"":0,""viewing_time"":2167},{""page_index"":1,""viewing_time"":15312},{""page_index"":2,""viewing_time"":353579},{""page_index"":3,""viewing_time"":1544}]","372603","","","","","","","","","","","","","","","","","","","",""
"","comprehension_check","","survey-multi-choice","2","404522","0.0-1.0-0.0-1.0","0","0","30433","","24620","{""Q0"":""True"",""Q1"":""K"",""Q2"":""Only when the screen 'MAKE A CHOICE' is shown"",""Q3"":""Green mark"",""Q4"":""either D or K""}","1","","","","","","","","","","","","","","","","","",""
"","missed_instruction_checkup","","html-keyboard-response","3","406455","0.0-1.0-0.0-2.0-0.0","0","1","30433","","1929","","","32","","","","","","","","","","","","","","","","",""
"","instructions","","instructions","4","439767","0.0-1.0-0.1-0.1","0","0","30433","[{""page_index"":0,""viewing_time"":2616},{""page_index"":1,""viewing_time"":22486},{""page_index"":2,""viewing_time"":7031},{""page_index"":3,""viewing_time"":1176}]","33310","","","","","","","","","","","","","","","","","","","",""
"","comprehension_check","","survey-multi-choice","5","454471","0.0-1.0-0.1-1.1","0","0","30433","","14701","{""Q0"":""True"",""Q1"":""K"",""Q2"":""Once the second image appears and while the screen 'MAKE A CHOICE' is shown"",""Q3"":""Green mark"",""Q4"":""either D or K""}","0","","","","","","","","","","","","","","","","","",""
"","start_exp","","html-keyboard-response","6","455740","0.0-1.0-1.0","0","0","30433","","1266","","","32","","","","","","","","","","","","","","","","",""
"","S1","","html-keyboard-response","7","455994","0.0-1.0-2.0","0","0","30433","","null","","","null","0","","","","","","","","","","","","","","","",""
"","ISI","","html-keyboard-response","8","456997","0.0-1.0-3.0","0","0","30433","","null","","","null","0","NaN","","","","","","","","","","","","","","",""
"","S2","","html-keyboard-response","9","457250","0.0-1.0-4.0","0","0","30433","","null","","","null","0","","NaN","","","","","","","","","","","","","",""
"","response","","html-keyboard-response","10","458180","0.0-1.0-5.0-0.0","0","0","30433","","926","","","75","0","","","1","0","training","adjacent","BA","2","1","P.jpg","M.jpg","1","0","0","",""
"","feedback","","html-keyboard-response","11","459183","0.0-1.0-6.0-0.0","0","0","30433","","null","","","null","0","","","","","","","","","","","","","","","",""
"","time_out","","html-keyboard-response","12","461187","0.0-1.0-8.0-0.0","0","0","30433","","null","","","null","0","","","","","","","","","","","","","","","",""
"","ITI","","html-keyboard-response","13","462190","0.0-1.0-9.0","0","0","30433","","567","","","32","0","","","","","","","","","","","","","","","space",""
"","S1","","html-keyboard-response","14","462445","0.0-1.0-11.0","0","0","30433","","null","","","null","1","","","","","","","","","","","","","","","",""
"","ISI","","html-keyboard-response","15","463447","0.0-1.0-12.0","0","0","30433","","null","","","null","1","NaN","","","","","","","","","","","","","","",""
"","S2","","html-keyboard-response","16","463700","0.0-1.0-13.0","0","0","30433","","null","","","null","1","","NaN","","","","","","","","","","","","","",""
"","response","","html-keyboard-response","17","463780","0.0-1.0-14.0-0.0","0","0","30433","","77","","","75","1","","","1","1","training","adjacent","CD","3","4","N.jpg","L.jpg","1","1","1","",""
"","feedback","","html-keyboard-response","18","464783","0.0-1.0-15.0-0.0","0","0","30433","","null","","","null","1","","","","","","","","","","","","","","","",""
"","ITI","","html-keyboard-response","19","465786","0.0-1.0-18.0","0","0","30433","","null","","","null","1","","","","","","","","","","","","","","","NaN",""
"","S1","","html-keyboard-response","20","466038","0.0-1.0-20.0","0","0","30433","","null","","","null","2","","","","","","","","","","","","","","","",""
"","ISI","","html-keyboard-response","21","467041","0.0-1.0-21.0","0","0","30433","","null","","","null","2","NaN","","","","","","","","","","","","","","",""
"","S2","","html-keyboard-response","22","467295","0.0-1.0-22.0","0","0","30433","","null","","","null","2","","NaN","","","","","","","","","","","","","",""
"","response","","html-keyboard-response","23","467532","0.0-1.0-23.0-0.0","0","0","30433","","235","","","68","2","","","1","2","training","adjacent","AB","1","2","M.jpg","P.jpg","0","1","0","",""
"","feedback","","html-keyboard-response","24","468535","0.0-1.0-24.0-0.0","0","0","30433","","null","","","null","2","","","","","","","","","","","","","","","",""
"","time_out","","html-keyboard-response","25","470538","0.0-1.0-26.0-0.0","0","0","30433","","null","","","null","2","","","","","","","","","","","","","","","",""
"","ITI","","html-keyboard-response","26","471541","0.0-1.0-27.0","0","0","30433","","null","","","null","2","","","","","","","","","","","","","","","NaN",""
"","S1","","html-keyboard-response","27","471794","0.0-1.0-29.0","0","0","30433","","null","","","null","3","","","","","","","","","","","","","","","",""
"","ISI","","html-keyboard-response","28","472797","0.0-1.0-30.0","0","0","30433","","null","","","null","3","NaN","","","","","","","","","","","","","","",""
"","S2","","html-keyboard-response","29","473034","0.0-1.0-31.0","0","0","30433","","235","","","75","3","","k","1","3","training","adjacent","CD","3","4","N.jpg","L.jpg","1","1","1","",""
"","feedback","","html-keyboard-response","30","474039","0.0-1.0-33.0-0.0","0","0","30433","","null","","","null","3","","","","","","","","","","","","","","","",""
"","ITI","","html-keyboard-response","31","475041","0.0-1.0-36.0","0","0","30433","","null","","","null","3","","","","","","","","","","","","","","","NaN",""
"","S1","","html-keyboard-response","32","475295","0.0-1.0-38.0","0","0","30433","","null","","","null","4","","","","","","","","","","","","","","","",""
"","ISI","","html-keyboard-response","33","476298","0.0-1.0-39.0","0","0","30433","","null","","","null","4","NaN","","","","","","","","","","","","","","",""
"","S2","","html-keyboard-response","34","476551","0.0-1.0-40.0","0","0","30433","","null","","","null","4","","NaN","","","","","","","","","","","","","",""
"","response","","html-keyboard-response","35","476899","0.0-1.0-41.0-0.0","0","0","30433","","345","","","75","4","","","1","4","training","adjacent","FE","6","5","O.jpg","R.jpg","1","0","0","",""
"","feedback","","html-keyboard-response","36","477901","0.0-1.0-42.0-0.0","0","0","30433","","null","","","null","4","","","","","","","","","","","","","","","",""
"","time_out","","html-keyboard-response","37","479903","0.0-1.0-44.0-0.0","0","0","30433","","null","","","null","4","","","","","","","","","","","","","","","",""
"","ITI","","html-keyboard-response","38","480906","0.0-1.0-45.0","0","0","30433","","null","","","null","4","","","","","","","","","","","","","","","NaN",""
"","S1","","html-keyboard-response","39","481158","0.0-1.0-47.0","0","0","30433","","null","","","null","5","","","","","","","","","","","","","","","",""
"","ISI","","html-keyboard-response","40","482160","0.0-1.0-48.0","0","0","30433","","null","","","null","5","NaN","","","","","","","","","","","","","","",""
"","S2","","html-keyboard-response","41","482413","0.0-1.0-49.0","0","0","30433","","null","","","null","5","","NaN","","","","","","","","","","","","","",""
"","response","","html-keyboard-response","42","482626","0.0-1.0-50.0-0.0","0","0","30433","","212","","","68","5","","","1","5","training","adjacent","GF","7","6","Q.jpg","O.jpg","0","0","1","",""
"","feedback","","html-keyboard-response","43","483630","0.0-1.0-51.0-0.0","0","0","30433","","null","","","null","5","","","","","","","","","","","","","","","",""
"","ITI","","html-keyboard-response","44","484633","0.0-1.0-54.0","0","0","30433","","null","","","null","5","","","","","","","","","","","","","","","NaN",""
"","S1","","html-keyboard-response","45","484886","0.0-1.0-56.0","0","0","30433","","null","","","null","6","","","","","","","","","","","","","","","",""
"","ISI","","html-keyboard-response","46","485888","0.0-1.0-57.0","0","0","30433","","null","","","null","6","NaN","","","","","","","","","","","","","","",""
"","S2","","html-keyboard-response","47","486142","0.0-1.0-58.0","0","0","30433","","null","","","null","6","","NaN","","","","","","","","","","","","","",""
"","response","","html-keyboard-response","48","486348","0.0-1.0-59.0-0.0","0","0","30433","","203","","","68","6","","","1","6","training","adjacent","FG","6","7","O.jpg","Q.jpg","0","1","0","",""
"","feedback","","html-keyboard-response","49","487351","0.0-1.0-60.0-0.0","0","0","30433","","null","","","null","6","","","","","","","","","","","","","","","",""
"","time_out","","html-keyboard-response","50","489355","0.0-1.0-62.0-0.0","0","0","30433","","null","","","null","6","","","","","","","","","","","","","","","",""
"","ITI","","html-keyboard-response","51","490358","0.0-1.0-63.0","0","0","30433","","999","","","32","6","","","","","","","","","","","","","","","space",""
"","S1","","html-keyboard-response","52","490609","0.0-1.0-65.0","0","0","30433","","null","","","null","7","","","","","","","","","","","","","","","",""
"","ISI","","html-keyboard-response","53","491612","0.0-1.0-66.0","0","0","30433","","null","","","null","7","NaN","","","","","","","","","","","","","","",""
"","S2","","html-keyboard-response","54","491842","0.0-1.0-67.0","0","0","30433","","227","","","75","7","","k","1","7","training","adjacent","BC","2","3","P.jpg","N.jpg","1","1","1","",""
"","feedback","","html-keyboard-response","55","492845","0.0-1.0-69.0-0.0","0","0","30433","","null","","","null","7","","","","","","","","","","","","","","","",""
"","ITI","","html-keyboard-response","56","493854","0.0-1.0-72.0","0","0","30433","","null","","","null","7","","","","","","","","","","","","","","","NaN",""
"","S1","","html-keyboard-response","57","494107","0.0-1.0-74.0","0","0","30433","","null","","","null","8","","","","","","","","","","","","","","","",""
"","ISI","","html-keyboard-response","58","495110","0.0-1.0-75.0","0","0","30433","","null","","","null","8","NaN","","","","","","","","","","","","","","",""
"","S2","","html-keyboard-response","59","495371","0.0-1.0-76.0","0","0","30433","","null","","","null","8","","NaN","","","","","","","","","","","","","",""
"","response","","html-keyboard-response","60","495593","0.0-1.0-77.0-0.0","0","0","30433","","219","","","75","8","","","1","8","training","adjacent","BA","2","1","P.jpg","M.jpg","1","0","0","",""
"","feedback","","html-keyboard-response","61","496597","0.0-1.0-78.0-0.0","0","0","30433","","null","","","null","8","","","","","","","","","","","","","","","",""
"","time_out","","html-keyboard-response","62","498601","0.0-1.0-80.0-0.0","0","0","30433","","null","","","null","8","","","","","","","","","","","","","","","",""
"","ITI","","html-keyboard-response","63","499604","0.0-1.0-81.0","0","0","30433","","null","","","null","8","","","","","","","","","","","","","","","NaN",""
"","S1","","html-keyboard-response","64","499857","0.0-1.0-83.0","0","0","30433","","null","","","null","9","","","","","","","","","","","","","","","",""
"","ISI","","html-keyboard-response","65","500859","0.0-1.0-84.0","0","0","30433","","599","","","68","9","d","","","","","","","","","","","","","","",""
"","S2","","html-keyboard-response","66","501112","0.0-1.0-85.0","0","0","30433","","null","","","null","9","","NaN","","","","","","","","","","","","","",""
"","response","","html-keyboard-response","67","501425","0.0-1.0-86.0-0.0","0","0","30433","","312","","","75","9","","","1","9","training","adjacent","CD","3","4","N.jpg","L.jpg","1","1","1","",""
"","feedback","","html-keyboard-response","68","502430","0.0-1.0-87.0-0.0","0","0","30433","","null","","","null","9","","","","","","","","","","","","","","","",""
"","ITI","","html-keyboard-response","69","503434","0.0-1.0-90.0","0","0","30433","","null","","","null","9","","","","","","","","","","","","","","","NaN",""
"","S1","","html-keyboard-response","70","503687","0.0-1.0-92.0","0","0","30433","","null","","","null","10","","","","","","","","","","","","","","","",""
"","ISI","","html-keyboard-response","71","504699","0.0-1.0-93.0","0","0","30433","","null","","","null","10","NaN","","","","","","","","","","","","","","",""
"","S2","","html-keyboard-response","72","504952","0.0-1.0-94.0","0","0","30433","","null","","","null","10","","NaN","","","","","","","","","","","","","",""
"","response","","html-keyboard-response","73","506321","0.0-1.0-95.0-0.0","0","0","30433","","1367","","","68","10","","","1","10","training","adjacent","CB","3","2","N.jpg","P.jpg","0","0","1","",""
"","feedback","","html-keyboard-response","74","507325","0.0-1.0-96.0-0.0","0","0","30433","","null","","","null","10","","","","","","","","","","","","","","","",""
"","ITI","","html-keyboard-response","75","508327","0.0-1.0-99.0","0","0","30433","","null","","","null","10","","","","","","","","","","","","","","","NaN",""
"","S1","","html-keyboard-response","76","508580","0.0-1.0-101.0","0","0","30433","","null","","","null","11","","","","","","","","","","","","","","","",""
"","ISI","","html-keyboard-response","77","509583","0.0-1.0-102.0","0","0","30433","","899","","","68","11","d","","","","","","","","","","","","","","",""
"","S2","","html-keyboard-response","78","509836","0.0-1.0-103.0","0","0","30433","","null","","","null","11","","NaN","","","","","","","","","","","","","",""
"","response","","html-keyboard-response","79","510209","0.0-1.0-104.0-0.0","0","0","30433","","371","","","75","11","","","1","11","training","adjacent","DE","4","5","L.jpg","R.jpg","1","1","1","",""
"","feedback","","html-keyboard-response","80","511213","0.0-1.0-105.0-0.0","0","0","30433","","null","","","null","11","","","","","","","","","","","","","","","",""
"","ITI","","html-keyboard-response","81","512215","0.0-1.0-108.0","0","0","30433","","null","","","null","11","","","","","","","","","","","","","","","NaN",""
"","S1","","html-keyboard-response","82","512468","0.0-1.0-110.0","0","0","30433","","null","","","null","12","","","","","","","","","","","","","","","",""
"","ISI","","html-keyboard-response","83","513471","0.0-1.0-111.0","0","0","30433","","null","","","null","12","NaN","","","","","","","","","","","","","","",""
"","S2","","html-keyboard-response","84","513724","0.0-1.0-112.0","0","0","30433","","null","","","null","12","","NaN","","","","","","","","","","","","","",""
"","response","","html-keyboard-response","85","514434","0.0-1.0-113.0-0.0","0","0","30433","","707","","","75","12","","","1","12","training","adjacent","EF","5","6","R.jpg","O.jpg","1","1","1","",""
"","feedback","","html-keyboard-response","86","515437","0.0-1.0-114.0-0.0","0","0","30433","","null","","","null","12","","","","","","","","","","","","","","","",""
"","ITI","","html-keyboard-response","87","516440","0.0-1.0-117.0","0","0","30433","","null","","","null","12","","","","","","","","","","","","","","","NaN",""
"","S1","","html-keyboard-response","88","516693","0.0-1.0-119.0","0","0","30433","","null","","","null","13","","","","","","","","","","","","","","","",""
"","ISI","","html-keyboard-response","89","517696","0.0-1.0-120.0","0","0","30433","","null","","","null","13","NaN","","","","","","","","","","","","","","",""
"","S2","","html-keyboard-response","90","517948","0.0-1.0-121.0","0","0","30433","","null","","","null","13","","NaN","","","","","","","","","","","","","",""
"","response","","html-keyboard-response","91","518209","0.0-1.0-122.0-0.0","0","0","30433","","259","","","75","13","","","1","13","training","adjacent","DC","4","3","L.jpg","N.jpg","1","0","0","",""
"","feedback","","html-keyboard-response","92","519214","0.0-1.0-123.0-0.0","0","0","30433","","null","","","null","13","","","","","","","","","","","","","","","",""
"","time_out","","html-keyboard-response","93","521217","0.0-1.0-125.0-0.0","0","0","30433","","null","","","null","13","","","","","","","","","","","","","","","",""
"","ITI","","html-keyboard-response","94","522220","0.0-1.0-126.0","0","0","30433","","223","","","32","13","","","","","","","","","","","","","","","space",""
"","S1","","html-keyboard-response","95","522472","0.0-1.0-128.0","0","0","30433","","null","","","null","14","","","","","","","","","","","","","","","",""
"","ISI","","html-keyboard-response","96","523475","0.0-1.0-129.0","0","0","30433","","null","","","null","14","NaN","","","","","","","","","","","","","","",""
"","S2","","html-keyboard-response","97","523728","0.0-1.0-130.0","0","0","30433","","null","","","null","14","","NaN","","","","","","","","","","","","","",""
"","response","","html-keyboard-response","98","523833","0.0-1.0-131.0-0.0","0","0","30433","","103","","","75","14","","","1","14","training","adjacent","CB","3","2","N.jpg","P.jpg","1","0","0","",""
"","feedback","","html-keyboard-response","99","524837","0.0-1.0-132.0-0.0","0","0","30433","","null","","","null","14","","","","","","","","","","","","","","","",""
"","time_out","","html-keyboard-response","100","526840","0.0-1.0-134.0-0.0","0","0","30433","","null","","","null","14","","","","","","","","","","","","","","","",""
"","ITI","","html-keyboard-response","101","527843","0.0-1.0-135.0","0","0","30433","","727","","","68","14","","","","","","","","","","","","","","","d",""
"","S1","","html-keyboard-response","102","528097","0.0-1.0-137.0","0","0","30433","","null","","","null","15","","","","","","","","","","","","","","","",""
"","ISI","","html-keyboard-response","103","529100","0.0-1.0-138.0","0","0","30433","","null","","","null","15","NaN","","","","","","","","","","","","","","",""
"","S2","","html-keyboard-response","104","529353","0.0-1.0-139.0","0","0","30433","","null","","","null","15","","NaN","","","","","","","","","","","","","",""
"","response","","html-keyboard-response","105","529529","0.0-1.0-140.0-0.0","0","0","30433","","174","","","68","15","","","1","15","training","adjacent","AB","1","2","M.jpg","P.jpg","0","1","0","",""
"","feedback","","html-keyboard-response","106","530532","0.0-1.0-141.0-0.0","0","0","30433","","null","","","null","15","","","","","","","","","","","","","","","",""
"","time_out","","html-keyboard-response","107","532535","0.0-1.0-143.0-0.0","0","0","30433","","null","","","null","15","","","","","","","","","","","","","","","",""
"","ITI","","html-keyboard-response","108","533538","0.0-1.0-144.0","0","0","30433","","null","","","null","15","","","","","","","","","","","","","","","NaN",""
"","S1","","html-keyboard-response","109","533792","0.0-1.0-146.0","0","0","30433","","null","","","null","16","","","","","","","","","","","","","","","",""
"","ISI","","html-keyboard-response","110","534795","0.0-1.0-147.0","0","0","30433","","null","","","null","16","NaN","","","","","","","","","","","","","","",""
"","S2","","html-keyboard-response","111","535048","0.0-1.0-148.0","0","0","30433","","null","","","null","16","","NaN","","","","","","","","","","","","","",""
"","response","","html-keyboard-response","112","536073","0.0-1.0-149.0-0.0","0","0","30433","","1023","","","75","16","","","1","16","training","adjacent","DC","4","3","L.jpg","N.jpg","1","0","0","",""
"","feedback","","html-keyboard-response","113","537077","0.0-1.0-150.0-0.0","0","0","30433","","null","","","null","16","","","","","","","","","","","","","","","",""
"","time_out","","html-keyboard-response","114","539080","0.0-1.0-152.0-0.0","0","0","30433","","null","","","null","16","","","","","","","","","","","","","","","",""
"","ITI","","html-keyboard-response","115","540083","0.0-1.0-153.0","0","0","30433","","583","","","68","16","","","","","","","","","","","","","","","d",""
"","S1","","html-keyboard-response","116","540336","0.0-1.0-155.0","0","0","30433","","null","","","null","17","","","","","","","","","","","","","","","",""
"","ISI","","html-keyboard-response","117","541338","0.0-1.0-156.0","0","0","30433","","56","","","68","17","d","","","","","","","","","","","","","","",""
"","S2","","html-keyboard-response","118","541597","0.0-1.0-157.0","0","0","30433","","null","","","null","17","","NaN","","","","","","","","","","","","","",""
"","response","","html-keyboard-response","119","541809","0.0-1.0-158.0-0.0","0","0","30433","","210","","","75","17","","","1","17","training","adjacent","BC","2","3","P.jpg","N.jpg","1","1","1","",""
"","feedback","","html-keyboard-response","120","542813","0.0-1.0-159.0-0.0","0","0","30433","","null","","","null","17","","","","","","","","","","","","","","","",""
"","ITI","","html-keyboard-response","121","543815","0.0-1.0-162.0","0","0","30433","","null","","","null","17","","","","","","","","","","","","","","","NaN",""
"","S1","","html-keyboard-response","122","544068","0.0-1.0-164.0","0","0","30433","","null","","","null","18","","","","","","","","","","","","","","","",""
"","ISI","","html-keyboard-response","123","545071","0.0-1.0-165.0","0","0","30433","","null","","","null","18","NaN","","","","","","","","","","","","","","",""
"","S2","","html-keyboard-response","124","545324","0.0-1.0-166.0","0","0","30433","","null","","","null","18","","NaN","","","","","","","","","","","","","",""
"","response","","html-keyboard-response","125","546897","0.0-1.0-167.0-0.0","0","0","30433","","1571","","","68","18","","","1","18","training","adjacent","GF","7","6","Q.jpg","O.jpg","0","0","1","",""
"","feedback","","html-keyboard-response","126","547900","0.0-1.0-168.0-0.0","0","0","30433","","null","","","null","18","","","","","","","","","","","","","","","",""
"","ITI","","html-keyboard-response","127","548903","0.0-1.0-171.0","0","0","30433","","null","","","null","18","","","","","","","","","","","","","","","NaN",""
"","S1","","html-keyboard-response","128","549156","0.0-1.0-173.0","0","0","30433","","null","","","null","19","","","","","","","","","","","","","","","",""
"","ISI","","html-keyboard-response","129","550158","0.0-1.0-174.0","0","0","30433","","null","","","null","19","NaN","","","","","","","","","","","","","","",""
"","S2","","html-keyboard-response","130","550411","0.0-1.0-175.0","0","0","30433","","null","","","null","19","","NaN","","","","","","","","","","","","","",""
"","response","","html-keyboard-response","131","550529","0.0-1.0-176.0-0.0","0","0","30433","","116","","","75","19","","","1","19","training","adjacent","BA","2","1","P.jpg","M.jpg","1","0","0","",""
"","feedback","","html-keyboard-response","132","551530","0.0-1.0-177.0-0.0","0","0","30433","","null","","","null","19","","","","","","","","","","","","","","","",""
"","time_out","","html-keyboard-response","133","553533","0.0-1.0-179.0-0.0","0","0","30433","","null","","","null","19","","","","","","","","","","","","","","","",""
"","ITI","","html-keyboard-response","134","554535","0.0-1.0-180.0","0","0","30433","","281","","","32","19","","","","","","","","","","","","","","","space",""
"","S1","","html-keyboard-response","135","554789","0.0-1.0-182.0","0","0","30433","","null","","","null","20","","","","","","","","","","","","","","","",""
"","ISI","","html-keyboard-response","136","555792","0.0-1.0-183.0","0","0","30433","","193","","","68","20","d","","","","","","","","","","","","","","",""
"","S2","","html-keyboard-response","137","556045","0.0-1.0-184.0","0","0","30433","","null","","","null","20","","NaN","","","","","","","","","","","","","",""
"","response","","html-keyboard-response","138","556328","0.0-1.0-185.0-0.0","0","0","30433","","280","","","68","20","","","1","20","training","adjacent","DC","4","3","L.jpg","N.jpg","0","0","1","",""
"","feedback","","html-keyboard-response","139","557332","0.0-1.0-186.0-0.0","0","0","30433","","null","","","null","20","","","","","","","","","","","","","","","",""
"","ITI","","html-keyboard-response","140","558334","0.0-1.0-189.0","0","0","30433","","null","","","null","20","","","","","","","","","","","","","","","NaN",""
"","S1","","html-keyboard-response","141","558588","0.0-1.0-191.0","0","0","30433","","null","","","null","21","","","","","","","","","","","","","","","",""
"","ISI","","html-keyboard-response","142","559591","0.0-1.0-192.0","0","0","30433","","null","","","null","21","NaN","","","","","","","","","","","","","","",""
"","S2","","html-keyboard-response","143","559800","0.0-1.0-193.0","0","0","30433","","206","","","75","21","","k","1","21","training","adjacent","GF","7","6","Q.jpg","O.jpg","1","0","0","",""
"","feedback","","html-keyboard-response","144","560802","0.0-1.0-195.0-0.0","0","0","30433","","null","","","null","21","","","","","","","","","","","","","","","",""
"","time_out","","html-keyboard-response","145","562806","0.0-1.0-197.0-0.0","0","0","30433","","null","","","null","21","","","","","","","","","","","","","","","",""
"","ITI","","html-keyboard-response","146","563809","0.0-1.0-198.0","0","0","30433","","null","","","null","21","","","","","","","","","","","","","","","NaN",""
"","S1","","html-keyboard-response","147","564063","0.0-1.0-200.0","0","0","30433","","null","","","null","22","","","","","","","","","","","","","","","",""
"","ISI","","html-keyboard-response","148","565065","0.0-1.0-201.0","0","0","30433","","null","","","null","22","NaN","","","","","","","","","","","","","","",""
"","S2","","html-keyboard-response","149","565144","0.0-1.0-202.0","0","0","30433","","76","","","68","22","","d","1","22","training","adjacent","FG","6","7","O.jpg","Q.jpg","0","1","0","",""
"","feedback","","html-keyboard-response","150","566147","0.0-1.0-204.0-0.0","0","0","30433","","null","","","null","22","","","","","","","","","","","","","","","",""
"","time_out","","html-keyboard-response","151","568150","0.0-1.0-206.0-0.0","0","0","30433","","null","","","null","22","","","","","","","","","","","","","","","",""
"","ITI","","html-keyboard-response","152","569153","0.0-1.0-207.0","0","0","30433","","null","","","null","22","","","","","","","","","","","","","","","NaN",""
"","S1","","html-keyboard-response","153","569406","0.0-1.0-209.0","0","0","30433","","null","","","null","23","","","","","","","","","","","","","","","",""
"","ISI","","html-keyboard-response","154","570408","0.0-1.0-210.0","0","0","30433","","null","","","null","23","NaN","","","","","","","","","","","","","","",""
"","S2","","html-keyboard-response","155","570575","0.0-1.0-211.0","0","0","30433","","165","","","75","23","","k","1","23","training","adjacent","FE","6","5","O.jpg","R.jpg","1","0","0","",""
"","feedback","","html-keyboard-response","156","571578","0.0-1.0-213.0-0.0","0","0","30433","","null","","","null","23","","","","","","","","","","","","","","","",""
"","time_out","","html-keyboard-response","157","573582","0.0-1.0-215.0-0.0","0","0","30433","","null","","","null","23","","","","","","","","","","","","","","","",""
"","ITI","","html-keyboard-response","158","574584","0.0-1.0-216.0","0","0","30433","","null","","","null","23","","","","","","","","","","","","","","","NaN",""
"","S1","","html-keyboard-response","159","574837","0.0-1.0-218.0","0","0","30433","","null","","","null","24","","","","","","","","","","","","","","","",""
"","ISI","","html-keyboard-response","160","575840","0.0-1.0-219.0","0","0","30433","","null","","","null","24","NaN","","","","","","","","","","","","","","",""
"","S2","","html-keyboard-response","161","576080","0.0-1.0-220.0","0","0","30433","","237","","","75","24","","k","1","24","training","adjacent","AB","1","2","M.jpg","P.jpg","1","1","1","",""
"","feedback","","html-keyboard-response","162","577083","0.0-1.0-222.0-0.0","0","0","30433","","null","","","null","24","","","","","","","","","","","","","","","",""
"","ITI","","html-keyboard-response","163","578085","0.0-1.0-225.0","0","0","30433","","null","","","null","24","","","","","","","","","","","","","","","NaN",""
"","S1","","html-keyboard-response","164","578338","0.0-1.0-227.0","0","0","30433","","null","","","null","25","","","","","","","","","","","","","","","",""
"","ISI","","html-keyboard-response","165","579341","0.0-1.0-228.0","0","0","30433","","null","","","null","25","NaN","","","","","","","","","","","","","","",""
"","S2","","html-keyboard-response","166","579595","0.0-1.0-229.0","0","0","30433","","null","","","null","25","","NaN","","","","","","","","","","","","","",""
"","response","","html-keyboard-response","167","581348","0.0-1.0-230.0-0.0","0","0","30433","","null","","","null","25","","","1","25","training","adjacent","BC","2","3","P.jpg","N.jpg","NaN","1","0","",""
"","too_slow_prompt","","html-keyboard-response","168","582350","0.0-1.0-232.0-0.0","1","0","30433","","null","","","null","","","","","","","","","","","","","","","","",""
"","time_out","","html-keyboard-response","169","584353","0.0-1.0-233.0-0.0","0","0","30433","","null","","","null","25","","","","","","","","","","","","","","","",""
"","ITI","","html-keyboard-response","170","585356","0.0-1.0-234.0","0","0","30433","","795","","","32","25","","","","","","","","","","","","","","","space",""
"","S1","","html-keyboard-response","171","585609","0.0-1.0-236.0","0","0","30433","","null","","","null","26","","","","","","","","","","","","","","","",""
"","ISI","","html-keyboard-response","172","586611","0.0-1.0-237.0","0","0","30433","","973","","","75","26","k","","","","","","","","","","","","","","",""
"","S2","","html-keyboard-response","173","586864","0.0-1.0-238.0","0","0","30433","","null","","","null","26","","NaN","","","","","","","","","","","","","",""
"","response","","html-keyboard-response","174","587071","0.0-1.0-239.0-0.0","0","0","30433","","205","","","75","26","","","1","26","training","adjacent","DE","4","5","L.jpg","R.jpg","1","1","1","",""
"","feedback","","html-keyboard-response","175","588074","0.0-1.0-240.0-0.0","0","0","30433","","null","","","null","26","","","","","","","","","","","","","","","",""
"","ITI","","html-keyboard-response","176","589077","0.0-1.0-243.0","0","0","30433","","null","","","null","26","","","","","","","","","","","","","","","NaN",""
"","S1","","html-keyboard-response","177","589330","0.0-1.0-245.0","0","0","30433","","null","","","null","27","","","","","","","","","","","","","","","",""
"","ISI","","html-keyboard-response","178","590333","0.0-1.0-246.0","0","0","30433","","null","","","null","27","NaN","","","","","","","","","","","","","","",""
"","S2","","html-keyboard-response","179","590585","0.0-1.0-247.0","0","0","30433","","null","","","null","27","","NaN","","","","","","","","","","","","","",""
"","response","","html-keyboard-response","180","590847","0.0-1.0-248.0-0.0","0","0","30433","","260","","","68","27","","","1","27","training","adjacent","FG","6","7","O.jpg","Q.jpg","0","1","0","",""
"","feedback","","html-keyboard-response","181","591850","0.0-1.0-249.0-0.0","0","0","30433","","null","","","null","27","","","","","","","","","","","","","","","",""
"","time_out","","html-keyboard-response","182","593868","0.0-1.0-251.0-0.0","0","0","30433","","null","","","null","27","","","","","","","","","","","","","","","",""
"","ITI","","html-keyboard-response","183","594870","0.0-1.0-252.0","0","0","30433","","489","","","32","27","","","","","","","","","","","","","","","space",""
"","S1","","html-keyboard-response","184","595124","0.0-1.0-254.0","0","0","30433","","null","","","null","28","","","","","","","","","","","","","","","",""
"","ISI","","html-keyboard-response","185","596126","0.0-1.0-255.0","0","0","30433","","null","","","null","28","NaN","","","","","","","","","","","","","","",""
"","S2","","html-keyboard-response","186","596231","0.0-1.0-256.0","0","0","30433","","103","","","75","28","","k","1","28","training","adjacent","GF","7","6","Q.jpg","O.jpg","1","0","0","",""
"","feedback","","html-keyboard-response","187","597234","0.0-1.0-258.0-0.0","0","0","30433","","null","","","null","28","","","","","","","","","","","","","","","",""
"","time_out","","html-keyboard-response","188","599238","0.0-1.0-260.0-0.0","0","0","30433","","null","","","null","28","","","","","","","","","","","","","","","",""
"","ITI","","html-keyboard-response","189","600240","0.0-1.0-261.0","0","0","30433","","null","","","null","28","","","","","","","","","","","","","","","NaN",""
"","S1","","html-keyboard-response","190","600494","0.0-1.0-263.0","0","0","30433","","null","","","null","29","","","","","","","","","","","","","","","",""
"","ISI","","html-keyboard-response","191","601497","0.0-1.0-264.0","0","0","30433","","null","","","null","29","NaN","","","","","","","","","","","","","","",""
"","S2","","html-keyboard-response","192","601749","0.0-1.0-265.0","0","0","30433","","null","","","null","29","","NaN","","","","","","","","","","","","","",""
"","response","","html-keyboard-response","193","601855","0.0-1.0-266.0-0.0","0","0","30433","","104","","","75","29","","","1","29","training","adjacent","AB","1","2","M.jpg","P.jpg","1","1","1","",""
"","feedback","","html-keyboard-response","194","602858","0.0-1.0-267.0-0.0","0","0","30433","","null","","","null","29","","","","","","","","","","","","","","","",""
"","ITI","","html-keyboard-response","195","603862","0.0-1.0-270.0","0","0","30433","","null","","","null","29","","","","","","","","","","","","","","","NaN",""
"","S1","","html-keyboard-response","196","604114","0.0-1.0-272.0","0","0","30433","","null","","","null","30","","","","","","","","","","","","","","","",""
"","ISI","","html-keyboard-response","197","605117","0.0-1.0-273.0","0","0","30433","","null","","","null","30","NaN","","","","","","","","","","","","","","",""
"","S2","","html-keyboard-response","198","605370","0.0-1.0-274.0","0","0","30433","","null","","","null","30","","NaN","","","","","","","","","","","","","",""
"","response","","html-keyboard-response","199","605375","0.0-1.0-275.0-0.0","0","0","30433","","2","","","68","30","","","1","30","training","adjacent","ED","5","4","R.jpg","L.jpg","0","0","1","",""
"","feedback","","html-keyboard-response","200","606379","0.0-1.0-276.0-0.0","0","0","30433","","null","","","null","30","","","","","","","","","","","","","","","",""
"","ITI","","html-keyboard-response","201","607381","0.0-1.0-279.0","0","0","30433","","null","","","null","30","","","","","","","","","","","","","","","NaN",""
"","S1","","html-keyboard-response","202","607634","0.0-1.0-281.0","0","0","30433","","null","","","null","31","","","","","","","","","","","","","","","",""
"","ISI","","html-keyboard-response","203","608637","0.0-1.0-282.0","0","0","30433","","null","","","null","31","NaN","","","","","","","","","","","","","","",""
"","S2","","html-keyboard-response","204","608863","0.0-1.0-283.0","0","0","30433","","224","","","68","31","","d","1","31","training","adjacent","ED","5","4","R.jpg","L.jpg","0","0","1","",""
"","feedback","","html-keyboard-response","205","609866","0.0-1.0-285.0-0.0","0","0","30433","","null","","","null","31","","","","","","","","","","","","","","","",""
"","ITI","","html-keyboard-response","206","610883","0.0-1.0-288.0","0","0","30433","","null","","","null","31","","","","","","","","","","","","","","","NaN",""
"","S1","","html-keyboard-response","207","611135","0.0-1.0-290.0","0","0","30433","","null","","","null","32","","","","","","","","","","","","","","","",""
"","ISI","","html-keyboard-response","208","612136","0.0-1.0-291.0","0","0","30433","","null","","","null","32","NaN","","","","","","","","","","","","","","",""
"","S2","","html-keyboard-response","209","612278","0.0-1.0-292.0","0","0","30433","","139","","","75","32","","k","1","32","training","adjacent","EF","5","6","R.jpg","O.jpg","1","1","1","",""
"","feedback","","html-keyboard-response","210","613281","0.0-1.0-294.0-0.0","0","0","30433","","null","","","null","32","","","","","","","","","","","","","","","",""
"","ITI","","html-keyboard-response","211","614283","0.0-1.0-297.0","0","0","30433","","null","","","null","32","","","","","","","","","","","","","","","NaN",""
"","S1","","html-keyboard-response","212","614537","0.0-1.0-299.0","0","0","30433","","null","","","null","33","","","","","","","","","","","","","","","",""
"","ISI","","html-keyboard-response","213","615539","0.0-1.0-300.0","0","0","30433","","null","","","null","33","NaN","","","","","","","","","","","","","","",""
"","S2","","html-keyboard-response","214","615793","0.0-1.0-301.0","0","0","30433","","null","","","null","33","","NaN","","","","","","","","","","","","","",""
"","response","","html-keyboard-response","215","615997","0.0-1.0-302.0-0.0","0","0","30433","","203","","","68","33","","","1","33","training","adjacent","EF","5","6","R.jpg","O.jpg","0","1","0","",""
"","feedback","","html-keyboard-response","216","617000","0.0-1.0-303.0-0.0","0","0","30433","","null","","","null","33","","","","","","","","","","","","","","","",""
"","time_out","","html-keyboard-response","217","619003","0.0-1.0-305.0-0.0","0","0","30433","","null","","","null","33","","","","","","","","","","","","","","","",""
"","ITI","","html-keyboard-response","218","620006","0.0-1.0-306.0","0","0","30433","","null","","","null","33","","","","","","","","","","","","","","","NaN",""
"","S1","","html-keyboard-response","219","620260","0.0-1.0-308.0","0","0","30433","","null","","","null","34","","","","","","","","","","","","","","","",""
"","ISI","","html-keyboard-response","220","621263","0.0-1.0-309.0","0","0","30433","","null","","","null","34","NaN","","","","","","","","","","","","","","",""
"","S2","","html-keyboard-response","221","621516","0.0-1.0-310.0","0","0","30433","","null","","","null","34","","NaN","","","","","","","","","","","","","",""
"","response","","html-keyboard-response","222","621525","0.0-1.0-311.0-0.0","0","0","30433","","6","","","75","34","","","1","34","training","adjacent","CD","3","4","N.jpg","L.jpg","1","1","1","",""
"","feedback","","html-keyboard-response","223","622528","0.0-1.0-312.0-0.0","0","0","30433","","null","","","null","34","","","","","","","","","","","","","","","",""
"","ITI","","html-keyboard-response","224","623531","0.0-1.0-315.0","0","0","30433","","null","","","null","34","","","","","","","","","","","","","","","NaN",""
"","S1","","html-keyboard-response","225","623785","0.0-1.0-317.0","0","0","30433","","null","","","null","35","","","","","","","","","","","","","","","",""
"","ISI","","html-keyboard-response","226","624788","0.0-1.0-318.0","0","0","30433","","null","","","null","35","NaN","","","","","","","","","","","","","","",""
"","S2","","html-keyboard-response","227","624805","0.0-1.0-319.0","0","0","30433","","15","","","75","35","","k","1","35","training","adjacent","CB","3","2","N.jpg","P.jpg","1","0","0","",""
"","feedback","","html-keyboard-response","228","625808","0.0-1.0-321.0-0.0","0","0","30433","","null","","","null","35","","","","","","","","","","","","","","","",""
"","time_out","","html-keyboard-response","229","627812","0.0-1.0-323.0-0.0","0","0","30433","","null","","","null","35","","","","","","","","","","","","","","","",""
"","ITI","","html-keyboard-response","230","628815","0.0-1.0-324.0","0","0","30433","","null","","","null","35","","","","","","","","","","","","","","","NaN",""
"","S1","","html-keyboard-response","231","629068","0.0-1.0-326.0","0","0","30433","","null","","","null","36","","","","","","","","","","","","","","","",""
"","ISI","","html-keyboard-response","232","630071","0.0-1.0-327.0","0","0","30433","","223","","","68","36","d","","","","","","","","","","","","","","",""
"","S2","","html-keyboard-response","233","630324","0.0-1.0-328.0","0","0","30433","","null","","","null","36","","NaN","","","","","","","","","","","","","",""
"","response","","html-keyboard-response","234","630445","0.0-1.0-329.0-0.0","0","0","30433","","119","","","68","36","","","1","36","training","adjacent","DE","4","5","L.jpg","R.jpg","0","1","0","",""
"","feedback","","html-keyboard-response","235","631448","0.0-1.0-330.0-0.0","0","0","30433","","null","","","null","36","","","","","","","","","","","","","","","",""
"","time_out","","html-keyboard-response","236","633452","0.0-1.0-332.0-0.0","0","0","30433","","null","","","null","36","","","","","","","","","","","","","","","",""
"","ITI","","html-keyboard-response","237","634455","0.0-1.0-333.0","0","0","30433","","null","","","null","36","","","","","","","","","","","","","","","NaN",""
"","S1","","html-keyboard-response","238","634708","0.0-1.0-335.0","0","0","30433","","null","","","null","37","","","","","","","","","","","","","","","",""
"","ISI","","html-keyboard-response","239","635710","0.0-1.0-336.0","0","0","30433","","984","","","75","37","k","","","","","","","","","","","","","","",""
"","S2","","html-keyboard-response","240","635963","0.0-1.0-337.0","0","0","30433","","null","","","null","37","","NaN","","","","","","","","","","","","","",""
"","response","","html-keyboard-response","241","636101","0.0-1.0-338.0-0.0","0","0","30433","","136","","","75","37","","","1","37","training","adjacent","CB","3","2","N.jpg","P.jpg","1","0","0","",""
"","feedback","","html-keyboard-response","242","637104","0.0-1.0-339.0-0.0","0","0","30433","","null","","","null","37","","","","","","","","","","","","","","","",""
"","time_out","","html-keyboard-response","243","639107","0.0-1.0-341.0-0.0","0","0","30433","","null","","","null","37","","","","","","","","","","","","","","","",""
"","ITI","","html-keyboard-response","244","640110","0.0-1.0-342.0","0","0","30433","","null","","","null","37","","","","","","","","","","","","","","","NaN",""
"","S1","","html-keyboard-response","245","640363","0.0-1.0-344.0","0","0","30433","","null","","","null","38","","","","","","","","","","","","","","","",""
"","ISI","","html-keyboard-response","246","641367","0.0-1.0-345.0","0","0","30433","","null","","","null","38","NaN","","","","","","","","","","","","","","",""
"","S2","","html-keyboard-response","247","641605","0.0-1.0-346.0","0","0","30433","","236","","","75","38","","k","1","38","training","adjacent","ED","5","4","R.jpg","L.jpg","1","0","0","",""
"","feedback","","html-keyboard-response","248","642609","0.0-1.0-348.0-0.0","0","0","30433","","null","","","null","38","","","","","","","","","","","","","","","",""
"","time_out","","html-keyboard-response","249","644612","0.0-1.0-350.0-0.0","0","0","30433","","null","","","null","38","","","","","","","","","","","","","","","",""
"","ITI","","html-keyboard-response","250","645615","0.0-1.0-351.0","0","0","30433","","null","","","null","38","","","","","","","","","","","","","","","NaN",""
"","S1","","html-keyboard-response","251","645868","0.0-1.0-353.0","0","0","30433","","null","","","null","39","","","","","","","","","","","","","","","",""
"","ISI","","html-keyboard-response","252","646871","0.0-1.0-354.0","0","0","30433","","null","","","null","39","NaN","","","","","","","","","","","","","","",""
"","S2","","html-keyboard-response","253","647124","0.0-1.0-355.0","0","0","30433","","null","","","null","39","","NaN","","","","","","","","","","","","","",""
"","response","","html-keyboard-response","254","647477","0.0-1.0-356.0-0.0","0","0","30433","","351","","","68","39","","","1","39","training","adjacent","EF","5","6","R.jpg","O.jpg","0","1","0","",""
"","feedback","","html-keyboard-response","255","648480","0.0-1.0-357.0-0.0","0","0","30433","","null","","","null","39","","","","","","","","","","","","","","","",""
"","time_out","","html-keyboard-response","256","650483","0.0-1.0-359.0-0.0","0","0","30433","","null","","","null","39","","","","","","","","","","","","","","","",""
"","ITI","","html-keyboard-response","257","651500","0.0-1.0-360.0","0","0","30433","","null","","","null","39","","","","","","","","","","","","","","","NaN",""
"","S1","","html-keyboard-response","258","651752","0.0-1.0-362.0","0","0","30433","","null","","","null","40","","","","","","","","","","","","","","","",""
"","ISI","","html-keyboard-response","259","652755","0.0-1.0-363.0","0","0","30433","","147","","","75","40","k","","","","","","","","","","","","","","",""
"","S2","","html-keyboard-response","260","653008","0.0-1.0-364.0","0","0","30433","","null","","","null","40","","NaN","","","","","","","","","","","","","",""
"","response","","html-keyboard-response","261","653069","0.0-1.0-365.0-0.0","0","0","30433","","58","","","75","40","","","1","40","training","adjacent","DC","4","3","L.jpg","N.jpg","1","0","0","",""
"","feedback","","html-keyboard-response","262","654073","0.0-1.0-366.0-0.0","0","0","30433","","null","","","null","40","","","","","","","","","","","","","","","",""
"","time_out","","html-keyboard-response","263","656076","0.0-1.0-368.0-0.0","0","0","30433","","null","","","null","40","","","","","","","","","","","","","","","",""
"","ITI","","html-keyboard-response","264","657079","0.0-1.0-369.0","0","0","30433","","null","","","null","40","","","","","","","","","","","","","","","NaN",""
"","S1","","html-keyboard-response","265","657332","0.0-1.0-371.0","0","0","30433","","null","","","null","41","","","","","","","","","","","","","","","",""
"","ISI","","html-keyboard-response","266","658335","0.0-1.0-372.0","0","0","30433","","null","","","null","41","NaN","","","","","","","","","","","","","","",""
"","S2","","html-keyboard-response","267","658596","0.0-1.0-373.0","0","0","30433","","null","","","null","41","","NaN","","","","","","","","","","","","","",""
"","response","","html-keyboard-response","268","658797","0.0-1.0-374.0-0.0","0","0","30433","","199","","","68","41","","","1","41","training","adjacent","FG","6","7","O.jpg","Q.jpg","0","1","0","",""
"","feedback","","html-keyboard-response","269","659801","0.0-1.0-375.0-0.0","0","0","30433","","null","","","null","41","","","","","","","","","","","","","","","",""
"","time_out","","html-keyboard-response","270","661804","0.0-1.0-377.0-0.0","0","0","30433","","null","","","null","41","","","","","","","","","","","","","","","",""
"","ITI","","html-keyboard-response","271","662806","0.0-1.0-378.0","0","0","30433","","null","","","null","41","","","","","","","","","","","","","","","NaN",""
"","S1","","html-keyboard-response","272","663060","0.0-1.0-380.0","0","0","30433","","null","","","null","42","","","","","","","","","","","","","","","",""
"","ISI","","html-keyboard-response","273","664063","0.0-1.0-381.0","0","0","30433","","null","","","null","42","NaN","","","","","","","","","","","","","","",""
"","S2","","html-keyboard-response","274","664316","0.0-1.0-382.0","0","0","30433","","null","","","null","42","","NaN","","","","","","","","","","","","","",""
"","response","","html-keyboard-response","275","664349","0.0-1.0-383.0-0.0","0","0","30433","","31","","","68","42","","","1","42","training","adjacent","FE","6","5","O.jpg","R.jpg","0","0","1","",""
"","feedback","","html-keyboard-response","276","665352","0.0-1.0-384.0-0.0","0","0","30433","","null","","","null","42","","","","","","","","","","","","","","","",""
"","ITI","","html-keyboard-response","277","666355","0.0-1.0-387.0","0","0","30433","","null","","","null","42","","","","","","","","","","","","","","","NaN",""
"","S1","","html-keyboard-response","278","666608","0.0-1.0-389.0","0","0","30433","","null","","","null","43","","","","","","","","","","","","","","","",""
"","ISI","","html-keyboard-response","279","667610","0.0-1.0-390.0","0","0","30433","","null","","","null","43","NaN","","","","","","","","","","","","","","",""
"","S2","","html-keyboard-response","280","667864","0.0-1.0-391.0","0","0","30433","","null","","","null","43","","NaN","","","","","","","","","","","","","",""
"","response","","html-keyboard-response","281","668125","0.0-1.0-392.0-0.0","0","0","30433","","259","","","75","43","","","1","43","training","adjacent","BC","2","3","P.jpg","N.jpg","1","1","1","",""
"","feedback","","html-keyboard-response","282","669130","0.0-1.0-393.0-0.0","0","0","30433","","null","","","null","43","","","","","","","","","","","","","","","",""
"","ITI","","html-keyboard-response","283","670133","0.0-1.0-396.0","0","0","30433","","null","","","null","43","","","","","","","","","","","","","","","NaN",""
"","S1","","html-keyboard-response","284","670386","0.0-1.0-398.0","0","0","30433","","null","","","null","44","","","","","","","","","","","","","","","",""
"","ISI","","html-keyboard-response","285","671389","0.0-1.0-399.0","0","0","30433","","null","","","null","44","NaN","","","","","","","","","","","","","","",""
"","S2","","html-keyboard-response","286","671643","0.0-1.0-400.0","0","0","30433","","null","","","null","44","","NaN","","","","","","","","","","","","","",""
"","response","","html-keyboard-response","287","671661","0.0-1.0-401.0-0.0","0","0","30433","","15","","","68","44","","","1","44","training","adjacent","FE","6","5","O.jpg","R.jpg","0","0","1","",""
"","feedback","","html-keyboard-response","288","672662","0.0-1.0-402.0-0.0","0","0","30433","","null","","","null","44","","","","","","","","","","","","","","","",""
"","ITI","","html-keyboard-response","289","673665","0.0-1.0-405.0","0","0","30433","","null","","","null","44","","","","","","","","","","","","","","","NaN",""
"","S1","","html-keyboard-response","290","673919","0.0-1.0-407.0","0","0","30433","","null","","","null","45","","","","","","","","","","","","","","","",""
"","ISI","","html-keyboard-response","291","674921","0.0-1.0-408.0","0","0","30433","","null","","","null","45","NaN","","","","","","","","","","","","","","",""
"","S2","","html-keyboard-response","292","675175","0.0-1.0-409.0","0","0","30433","","null","","","null","45","","NaN","","","","","","","","","","","","","",""
"","response","","html-keyboard-response","293","675795","0.0-1.0-410.0-0.0","0","0","30433","","618","","","75","45","","","1","45","training","adjacent","ED","5","4","R.jpg","L.jpg","1","0","0","",""
"","feedback","","html-keyboard-response","294","676799","0.0-1.0-411.0-0.0","0","0","30433","","null","","","null","45","","","","","","","","","","","","","","","",""
"","time_out","","html-keyboard-response","295","678801","0.0-1.0-413.0-0.0","0","0","30433","","null","","","null","45","","","","","","","","","","","","","","","",""
"","ITI","","html-keyboard-response","296","679804","0.0-1.0-414.0","0","0","30433","","null","","","null","45","","","","","","","","","","","","","","","NaN",""
"","S1","","html-keyboard-response","297","680058","0.0-1.0-416.0","0","0","30433","","null","","","null","46","","","","","","","","","","","","","","","",""
"","ISI","","html-keyboard-response","298","681060","0.0-1.0-417.0","0","0","30433","","296","","","68","46","d","","","","","","","","","","","","","","",""
"","S2","","html-keyboard-response","299","681314","0.0-1.0-418.0","0","0","30433","","null","","","null","46","","NaN","","","","","","","","","","","","","",""
"","response","","html-keyboard-response","300","681323","0.0-1.0-419.0-0.0","0","0","30433","","7","","","75","46","","","1","46","training","adjacent","DE","4","5","L.jpg","R.jpg","1","1","1","",""
"","feedback","","html-keyboard-response","301","682326","0.0-1.0-420.0-0.0","0","0","30433","","null","","","null","46","","","","","","","","","","","","","","","",""
"","ITI","","html-keyboard-response","302","683330","0.0-1.0-423.0","0","0","30433","","null","","","null","46","","","","","","","","","","","","","","","NaN",""
"","S1","","html-keyboard-response","303","683583","0.0-1.0-425.0","0","0","30433","","null","","","null","47","","","","","","","","","","","","","","","",""
"","ISI","","html-keyboard-response","304","684585","0.0-1.0-426.0","0","0","30433","","null","","","null","47","NaN","","","","","","","","","","","","","","",""
"","S2","","html-keyboard-response","305","684839","0.0-1.0-427.0","0","0","30433","","null","","","null","47","","NaN","","","","","","","","","","","","","",""
"","response","","html-keyboard-response","306","685091","0.0-1.0-428.0-0.0","0","0","30433","","250","","","68","47","","","1","47","training","adjacent","BA","2","1","P.jpg","M.jpg","0","0","1","",""
"","feedback","","html-keyboard-response","307","686096","0.0-1.0-429.0-0.0","0","0","30433","","null","","","null","47","","","","","","","","","","","","","","","",""
"","ITI","","html-keyboard-response","308","687100","0.0-1.0-432.0","0","0","30433","","null","","","null","47","","","","","","","","","","","","","","","NaN",""
"","block_over","","html-keyboard-response","309","692619","0.0-1.0-433.0-0.0","0","0","30433","","5515","","","32","47","","","","","","","","","","","","","","","",""
"","S1","","html-keyboard-response","310","692872","0.0-1.0-434.0","0","0","30433","","null","","","null","48","","","","","","","","","","","","","","","",""
"","ISI","","html-keyboard-response","311","693875","0.0-1.0-435.0","0","0","30433","","null","","","null","48","NaN","","","","","","","","","","","","","","",""
"","S2","","html-keyboard-response","312","694107","0.0-1.0-436.0","0","0","30433","","229","","","75","48","","k","2","48","training","adjacent","FG","6","7","O.jpg","Q.jpg","1","1","1","",""
"","feedback","","html-keyboard-response","313","695110","0.0-1.0-438.0-0.0","0","0","30433","","null","","","null","48","","","","","","","","","","","","","","","",""
"","ITI","","html-keyboard-response","314","696113","0.0-1.0-441.0","0","0","30433","","null","","","null","48","","","","","","","","","","","","","","","NaN",""
"","S1","","html-keyboard-response","315","696367","0.0-1.0-443.0","0","0","30433","","null","","","null","49","","","","","","","","","","","","","","","",""
"","ISI","","html-keyboard-response","316","697370","0.0-1.0-444.0","0","0","30433","","null","","","null","49","NaN","","","","","","","","","","","","","","",""
"","S2","","html-keyboard-response","317","697623","0.0-1.0-445.0","0","0","30433","","null","","","null","49","","NaN","","","","","","","","","","","","","",""
"","response","","html-keyboard-response","318","697659","0.0-1.0-446.0-0.0","0","0","30433","","35","","","75","49","","","2","49","training","adjacent","BA","2","1","P.jpg","M.jpg","1","0","0","",""
"","feedback","","html-keyboard-response","319","698664","0.0-1.0-447.0-0.0","0","0","30433","","null","","","null","49","","","","","","","","","","","","","","","",""
"","time_out","","html-keyboard-response","320","700666","0.0-1.0-449.0-0.0","0","0","30433","","null","","","null","49","","","","","","","","","","","","","","","",""
"","ITI","","html-keyboard-response","321","701669","0.0-1.0-450.0","0","0","30433","","null","","","null","49","","","","","","","","","","","","","","","NaN",""
"","S1","","html-keyboard-response","322","701922","0.0-1.0-452.0","0","0","30433","","null","","","null","50","","","","","","","","","","","","","","","",""
"","ISI","","html-keyboard-response","323","702924","0.0-1.0-453.0","0","0","30433","","24","","","68","50","d","","","","","","","","","","","","","","",""
"","S2","","html-keyboard-response","324","703178","0.0-1.0-454.0","0","0","30433","","null","","","null","50","","NaN","","","","","","","","","","","","","",""
"","response","","html-keyboard-response","325","703187","0.0-1.0-455.0-0.0","0","0","30433","","6","","","68","50","","","2","50","training","adjacent","EF","5","6","R.jpg","O.jpg","0","1","0","",""
"","feedback","","html-keyboard-response","326","704190","0.0-1.0-456.0-0.0","0","0","30433","","null","","","null","50","","","","","","","","","","","","","","","",""
"","time_out","","html-keyboard-response","327","706193","0.0-1.0-458.0-0.0","0","0","30433","","null","","","null","50","","","","","","","","","","","","","","","",""
"","ITI","","html-keyboard-response","328","707196","0.0-1.0-459.0","0","0","30433","","null","","","null","50","","","","","","","","","","","","","","","NaN",""
"","S1","","html-keyboard-response","329","707449","0.0-1.0-461.0","0","0","30433","","null","","","null","51","","","","","","","","","","","","","","","",""
"","ISI","","html-keyboard-response","330","708452","0.0-1.0-462.0","0","0","30433","","null","","","null","51","NaN","","","","","","","","","","","","","","",""
"","S2","","html-keyboard-response","331","708691","0.0-1.0-463.0","0","0","30433","","236","","","68","51","","d","2","51","training","adjacent","EF","5","6","R.jpg","O.jpg","0","1","0","",""
"","feedback","","html-keyboard-response","332","709695","0.0-1.0-465.0-0.0","0","0","30433","","null","","","null","51","","","","","","","","","","","","","","","",""
"","time_out","","html-keyboard-response","333","711698","0.0-1.0-467.0-0.0","0","0","30433","","null","","","null","51","","","","","","","","","","","","","","","",""
"","ITI","","html-keyboard-response","334","712701","0.0-1.0-468.0","0","0","30433","","null","","","null","51","","","","","","","","","","","","","","","NaN",""
"","S1","","html-keyboard-response","335","712955","0.0-1.0-470.0","0","0","30433","","null","","","null","52","","","","","","","","","","","","","","","",""
"","ISI","","html-keyboard-response","336","713958","0.0-1.0-471.0","0","0","30433","","22","","","75","52","k","","","","","","","","","","","","","","",""
"","S2","","html-keyboard-response","337","714211","0.0-1.0-472.0","0","0","30433","","null","","","null","52","","NaN","","","","","","","","","","","","","",""
"","response","","html-keyboard-response","338","714299","0.0-1.0-473.0-0.0","0","0","30433","","86","","","68","52","","","2","52","training","adjacent","DE","4","5","L.jpg","R.jpg","0","1","0","",""
"","feedback","","html-keyboard-response","339","715302","0.0-1.0-474.0-0.0","0","0","30433","","null","","","null","52","","","","","","","","","","","","","","","",""
"","time_out","","html-keyboard-response","340","717305","0.0-1.0-476.0-0.0","0","0","30433","","null","","","null","52","","","","","","","","","","","","","","","",""
"","ITI","","html-keyboard-response","341","718307","0.0-1.0-477.0","0","0","30433","","null","","","null","52","","","","","","","","","","","","","","","NaN",""
"","S1","","html-keyboard-response","342","718561","0.0-1.0-479.0","0","0","30433","","null","","","null","53","","","","","","","","","","","","","","","",""
"","ISI","","html-keyboard-response","343","719564","0.0-1.0-480.0","0","0","30433","","null","","","null","53","NaN","","","","","","","","","","","","","","",""
"","S2","","html-keyboard-response","344","719779","0.0-1.0-481.0","0","0","30433","","212","","","75","53","","k","2","53","training","adjacent","DC","4","3","L.jpg","N.jpg","1","0","0","",""
"","feedback","","html-keyboard-response","345","720782","0.0-1.0-483.0-0.0","0","0","30433","","null","","","null","53","","","","","","","","","","","","","","","",""
"","time_out","","html-keyboard-response","346","722785","0.0-1.0-485.0-0.0","0","0","30433","","null","","","null","53","","","","","","","","","","","","","","","",""
"","ITI","","html-keyboard-response","347","723788","0.0-1.0-486.0","0","0","30433","","null","","","null","53","","","","","","","","","","","","","","","NaN",""
"","S1","","html-keyboard-response","348","724041","0.0-1.0-488.0","0","0","30433","","null","","","null","54","","","","","","","","","","","","","","","",""
"","ISI","","html-keyboard-response","349","725045","0.0-1.0-489.0","0","0","30433","","null","","","null","54","NaN","","","","","","","","","","","","","","",""
"","S2","","html-keyboard-response","350","725298","0.0-1.0-490.0","0","0","30433","","null","","","null","54","","NaN","","","","","","","","","","","","","",""
"","response","","html-keyboard-response","351","725307","0.0-1.0-491.0-0.0","0","0","30433","","6","","","75","54","","","2","54","training","adjacent","GF","7","6","Q.jpg","O.jpg","1","0","0","",""
"","feedback","","html-keyboard-response","352","726310","0.0-1.0-492.0-0.0","0","0","30433","","null","","","null","54","","","","","","","","","","","","","","","",""
"","time_out","","html-keyboard-response","353","728313","0.0-1.0-494.0-0.0","0","0","30433","","null","","","null","54","","","","","","","","","","","","","","","",""
"","ITI","","html-keyboard-response","354","729315","0.0-1.0-495.0","0","0","30433","","null","","","null","54","","","","","","","","","","","","","","","NaN",""
"","S1","","html-keyboard-response","355","729568","0.0-1.0-497.0","0","0","30433","","null","","","null","55","","","","","","","","","","","","","","","",""
"","ISI","","html-keyboard-response","356","730571","0.0-1.0-498.0","0","0","30433","","null","","","null","55","NaN","","","","","","","","","","","","","","",""
"","S2","","html-keyboard-response","357","730795","0.0-1.0-499.0","0","0","30433","","221","","","75","55","","k","2","55","training","adjacent","CD","3","4","N.jpg","L.jpg","1","1","1","",""
"","feedback","","html-keyboard-response","358","731798","0.0-1.0-501.0-0.0","0","0","30433","","null","","","null","55","","","","","","","","","","","","","","","",""
"","ITI","","html-keyboard-response","359","732800","0.0-1.0-504.0","0","0","30433","","null","","","null","55","","","","","","","","","","","","","","","NaN",""
"","S1","","html-keyboard-response","360","733053","0.0-1.0-506.0","0","0","30433","","null","","","null","56","","","","","","","","","","","","","","","",""
"","ISI","","html-keyboard-response","361","734056","0.0-1.0-507.0","0","0","30433","","null","","","null","56","NaN","","","","","","","","","","","","","","",""
"","S2","","html-keyboard-response","362","734153","0.0-1.0-508.0","0","0","30433","","95","","","68","56","","d","2","56","training","adjacent","BA","2","1","P.jpg","M.jpg","0","0","1","",""
"","feedback","","html-keyboard-response","363","735156","0.0-1.0-510.0-0.0","0","0","30433","","null","","","null","56","","","","","","","","","","","","","","","",""
"","ITI","","html-keyboard-response","364","736160","0.0-1.0-513.0","0","0","30433","","null","","","null","56","","","","","","","","","","","","","","","NaN",""
"","S1","","html-keyboard-response","365","736413","0.0-1.0-515.0","0","0","30433","","null","","","null","57","","","","","","","","","","","","","","","",""
"","ISI","","html-keyboard-response","366","737417","0.0-1.0-516.0","0","0","30433","","null","","","null","57","NaN","","","","","","","","","","","","","","",""
"","S2","","html-keyboard-response","367","737657","0.0-1.0-517.0","0","0","30433","","238","","","68","57","","d","2","57","training","adjacent","CB","3","2","N.jpg","P.jpg","0","0","1","",""
"","feedback","","html-keyboard-response","368","738660","0.0-1.0-519.0-0.0","0","0","30433","","null","","","null","57","","","","","","","","","","","","","","","",""
"","ITI","","html-keyboard-response","369","739662","0.0-1.0-522.0","0","0","30433","","null","","","null","57","","","","","","","","","","","","","","","NaN",""
"","S1","","html-keyboard-response","370","739925","0.0-1.0-524.0","0","0","30433","","null","","","null","58","","","","","","","","","","","","","","","",""
"","ISI","","html-keyboard-response","371","740928","0.0-1.0-525.0","0","0","30433","","null","","","null","58","NaN","","","","","","","","","","","","","","",""
"","S2","","html-keyboard-response","372","741073","0.0-1.0-526.0","0","0","30433","","143","","","75","58","","k","2","58","training","adjacent","DE","4","5","L.jpg","R.jpg","1","1","1","",""
"","feedback","","html-keyboard-response","373","742076","0.0-1.0-528.0-0.0","0","0","30433","","null","","","null","58","","","","","","","","","","","","","","","",""
"","ITI","","html-keyboard-response","374","743079","0.0-1.0-531.0","0","0","30433","","null","","","null","58","","","","","","","","","","","","","","","NaN",""
"","S1","","html-keyboard-response","375","743334","0.0-1.0-533.0","0","0","30433","","null","","","null","59","","","","","","","","","","","","","","","",""
"","ISI","","html-keyboard-response","376","744336","0.0-1.0-534.0","0","0","30433","","null","","","null","59","NaN","","","","","","","","","","","","","","",""
"","S2","","html-keyboard-response","377","744590","0.0-1.0-535.0","0","0","30433","","null","","","null","59","","NaN","","","","","","","","","","","","","",""
"","response","","html-keyboard-response","378","744881","0.0-1.0-536.0-0.0","0","0","30433","","290","","","75","59","","","2","59","training","adjacent","ED","5","4","R.jpg","L.jpg","1","0","0","",""
"","feedback","","html-keyboard-response","379","745885","0.0-1.0-537.0-0.0","0","0","30433","","null","","","null","59","","","","","","","","","","","","","","","",""
"","time_out","","html-keyboard-response","380","747888","0.0-1.0-539.0-0.0","0","0","30433","","null","","","null","59","","","","","","","","","","","","","","","",""
"","ITI","","html-keyboard-response","381","748891","0.0-1.0-540.0","0","0","30433","","null","","","null","59","","","","","","","","","","","","","","","NaN",""
"","S1","","html-keyboard-response","382","749144","0.0-1.0-542.0","0","0","30433","","null","","","null","60","","","","","","","","","","","","","","","",""
"","ISI","","html-keyboard-response","383","750159","0.0-1.0-543.0","0","0","30433","","null","","","null","60","NaN","","","","","","","","","","","","","","",""
"","S2","","html-keyboard-response","384","750413","0.0-1.0-544.0","0","0","30433","","null","","","null","60","","NaN","","","","","","","","","","","","","",""
"","response","","html-keyboard-response","385","750433","0.0-1.0-545.0-0.0","0","0","30433","","17","","","68","60","","","2","60","training","adjacent","FE","6","5","O.jpg","R.jpg","0","0","1","",""
"","feedback","","html-keyboard-response","386","751436","0.0-1.0-546.0-0.0","0","0","30433","","null","","","null","60","","","","","","","","","","","","","","","",""
"","ITI","","html-keyboard-response","387","752439","0.0-1.0-549.0","0","0","30433","","null","","","null","60","","","","","","","","","","","","","","","NaN",""
"","S1","","html-keyboard-response","388","752693","0.0-1.0-551.0","0","0","30433","","null","","","null","61","","","","","","","","","","","","","","","",""
"","ISI","","html-keyboard-response","389","753696","0.0-1.0-552.0","0","0","30433","","null","","","null","61","NaN","","","","","","","","","","","","","","",""
"","S2","","html-keyboard-response","390","753950","0.0-1.0-553.0","0","0","30433","","null","","","null","61","","NaN","","","","","","","","","","","","","",""
"","response","","html-keyboard-response","391","754033","0.0-1.0-554.0-0.0","0","0","30433","","81","","","75","61","","","2","61","training","adjacent","ED","5","4","R.jpg","L.jpg","1","0","0","",""
"","feedback","","html-keyboard-response","392","755037","0.0-1.0-555.0-0.0","0","0","30433","","null","","","null","61","","","","","","","","","","","","","","","",""
"","time_out","","html-keyboard-response","393","757040","0.0-1.0-557.0-0.0","0","0","30433","","null","","","null","61","","","","","","","","","","","","","","","",""
"","ITI","","html-keyboard-response","394","758043","0.0-1.0-558.0","0","0","30433","","null","","","null","61","","","","","","","","","","","","","","","NaN",""
"","S1","","html-keyboard-response","395","758296","0.0-1.0-560.0","0","0","30433","","null","","","null","62","","","","","","","","","","","","","","","",""
"","ISI","","html-keyboard-response","396","759299","0.0-1.0-561.0","0","0","30433","","null","","","null","62","NaN","","","","","","","","","","","","","","",""
"","S2","","html-keyboard-response","397","759529","0.0-1.0-562.0","0","0","30433","","227","","","68","62","","d","2","62","training","adjacent","AB","1","2","M.jpg","P.jpg","0","1","0","",""
"","feedback","","html-keyboard-response","398","760533","0.0-1.0-564.0-0.0","0","0","30433","","null","","","null","62","","","","","","","","","","","","","","","",""
"","time_out","","html-keyboard-response","399","762537","0.0-1.0-566.0-0.0","0","0","30433","","null","","","null","62","","","","","","","","","","","","","","","",""
"","ITI","","html-keyboard-response","400","763540","0.0-1.0-567.0","0","0","30433","","null","","","null","62","","","","","","","","","","","","","","","NaN",""
"","S1","","html-keyboard-response","401","763793","0.0-1.0-569.0","0","0","30433","","null","","","null","63","","","","","","","","","","","","","","","",""
"","ISI","","html-keyboard-response","402","764796","0.0-1.0-570.0","0","0","30433","","null","","","null","63","NaN","","","","","","","","","","","","","","",""
"","S2","","html-keyboard-response","403","764921","0.0-1.0-571.0","0","0","30433","","123","","","75","63","","k","2","63","training","adjacent","DC","4","3","L.jpg","N.jpg","1","0","0","",""
"","feedback","","html-keyboard-response","404","765924","0.0-1.0-573.0-0.0","0","0","30433","","null","","","null","63","","","","","","","","","","","","","","","",""
"","time_out","","html-keyboard-response","405","767927","0.0-1.0-575.0-0.0","0","0","30433","","null","","","null","63","","","","","","","","","","","","","","","",""
"","ITI","","html-keyboard-response","406","768930","0.0-1.0-576.0","0","0","30433","","null","","","null","63","","","","","","","","","","","","","","","NaN",""
"","S1","","html-keyboard-response","407","769183","0.0-1.0-578.0","0","0","30433","","null","","","null","64","","","","","","","","","","","","","","","",""
"","ISI","","html-keyboard-response","408","770185","0.0-1.0-579.0","0","0","30433","","null","","","null","64","NaN","","","","","","","","","","","","","","",""
"","S2","","html-keyboard-response","409","770439","0.0-1.0-580.0","0","0","30433","","null","","","null","64","","NaN","","","","","","","","","","","","","",""
"","response","","html-keyboard-response","410","770441","0.0-1.0-581.0-0.0","0","0","30433","","0","","","68","64","","","2","64","training","adjacent","DC","4","3","L.jpg","N.jpg","0","0","1","",""
"","feedback","","html-keyboard-response","411","771444","0.0-1.0-582.0-0.0","0","0","30433","","null","","","null","64","","","","","","","","","","","","","","","",""
"","ITI","","html-keyboard-response","412","772447","0.0-1.0-585.0","0","0","30433","","null","","","null","64","","","","","","","","","","","","","","","NaN",""
"","S1","","html-keyboard-response","413","772701","0.0-1.0-587.0","0","0","30433","","null","","","null","65","","","","","","","","","","","","","","","",""
"","ISI","","html-keyboard-response","414","773703","0.0-1.0-588.0","0","0","30433","","null","","","null","65","NaN","","","","","","","","","","","","","","",""
"","S2","","html-keyboard-response","415","773957","0.0-1.0-589.0","0","0","30433","","null","","","null","65","","NaN","","","","","","","","","","","","","",""
"","response","","html-keyboard-response","416","774809","0.0-1.0-590.0-0.0","0","0","30433","","849","","","75","65","","","2","65","training","adjacent","GF","7","6","Q.jpg","O.jpg","1","0","0","",""
"","feedback","","html-keyboard-response","417","775813","0.0-1.0-591.0-0.0","0","0","30433","","null","","","null","65","","","","","","","","","","","","","","","",""
"","time_out","","html-keyboard-response","418","777816","0.0-1.0-593.0-0.0","0","0","30433","","null","","","null","65","","","","","","","","","","","","","","","",""
"","ITI","","html-keyboard-response","419","778819","0.0-1.0-594.0","0","0","30433","","null","","","null","65","","","","","","","","","","","","","","","NaN",""
"","S1","","html-keyboard-response","420","779073","0.0-1.0-596.0","0","0","30433","","null","","","null","66","","","","","","","","","","","","","","","",""
"","ISI","","html-keyboard-response","421","780076","0.0-1.0-597.0","0","0","30433","","null","","","null","66","NaN","","","","","","","","","","","","","","",""
"","S2","","html-keyboard-response","422","780297","0.0-1.0-598.0","0","0","30433","","218","","","75","66","","k","2","66","training","adjacent","CB","3","2","N.jpg","P.jpg","1","0","0","",""
"","feedback","","html-keyboard-response","423","781301","0.0-1.0-600.0-0.0","0","0","30433","","null","","","null","66","","","","","","","","","","","","","","","",""
"","time_out","","html-keyboard-response","424","783304","0.0-1.0-602.0-0.0","0","0","30433","","null","","","null","66","","","","","","","","","","","","","","","",""
"","ITI","","html-keyboard-response","425","784308","0.0-1.0-603.0","0","0","30433","","null","","","null","66","","","","","","","","","","","","","","","NaN",""
"","S1","","html-keyboard-response","426","784561","0.0-1.0-605.0","0","0","30433","","null","","","null","67","","","","","","","","","","","","","","","",""
"","ISI","","html-keyboard-response","427","785564","0.0-1.0-606.0","0","0","30433","","null","","","null","67","NaN","","","","","","","","","","","","","","",""
"","S2","","html-keyboard-response","428","785593","0.0-1.0-607.0","0","0","30433","","26","","","68","67","","d","2","67","training","adjacent","BA","2","1","P.jpg","M.jpg","0","0","1","",""
"","feedback","","html-keyboard-response","429","786596","0.0-1.0-609.0-0.0","0","0","30433","","null","","","null","67","","","","","","","","","","","","","","","",""
"","ITI","","html-keyboard-response","430","787599","0.0-1.0-612.0","0","0","30433","","null","","","null","67","","","","","","","","","","","","","","","NaN",""
"","S1","","html-keyboard-response","431","787852","0.0-1.0-614.0","0","0","30433","","null","","","null","68","","","","","","","","","","","","","","","",""
"","ISI","","html-keyboard-response","432","788855","0.0-1.0-615.0","0","0","30433","","null","","","null","68","NaN","","","","","","","","","","","","","","",""
"","S2","","html-keyboard-response","433","789108","0.0-1.0-616.0","0","0","30433","","null","","","null","68","","NaN","","","","","","","","","","","","","",""
"","response","","html-keyboard-response","434","789153","0.0-1.0-617.0-0.0","0","0","30433","","42","","","75","68","","","2","68","training","adjacent","DE","4","5","L.jpg","R.jpg","1","1","1","",""
"","feedback","","html-keyboard-response","435","790156","0.0-1.0-618.0-0.0","0","0","30433","","null","","","null","68","","","","","","","","","","","","","","","",""
"","ITI","","html-keyboard-response","436","791160","0.0-1.0-621.0","0","0","30433","","null","","","null","68","","","","","","","","","","","","","","","NaN",""
"","S1","","html-keyboard-response","437","791413","0.0-1.0-623.0","0","0","30433","","null","","","null","69","","","","","","","","","","","","","","","",""
"","ISI","","html-keyboard-response","438","792416","0.0-1.0-624.0","0","0","30433","","null","","","null","69","NaN","","","","","","","","","","","","","","",""
"","S2","","html-keyboard-response","439","792669","0.0-1.0-625.0","0","0","30433","","null","","","null","69","","NaN","","","","","","","","","","","","","",""
"","response","","html-keyboard-response","440","792705","0.0-1.0-626.0-0.0","0","0","30433","","33","","","75","69","","","2","69","training","adjacent","GF","7","6","Q.jpg","O.jpg","1","0","0","",""
"","feedback","","html-keyboard-response","441","793706","0.0-1.0-627.0-0.0","0","0","30433","","null","","","null","69","","","","","","","","","","","","","","","",""
"","time_out","","html-keyboard-response","442","795709","0.0-1.0-629.0-0.0","0","0","30433","","null","","","null","69","","","","","","","","","","","","","","","",""
"","ITI","","html-keyboard-response","443","796712","0.0-1.0-630.0","0","0","30433","","null","","","null","69","","","","","","","","","","","","","","","NaN",""
"","S1","","html-keyboard-response","444","796967","0.0-1.0-632.0","0","0","30433","","null","","","null","70","","","","","","","","","","","","","","","",""
"","ISI","","html-keyboard-response","445","797969","0.0-1.0-633.0","0","0","30433","","null","","","null","70","NaN","","","","","","","","","","","","","","",""
"","S2","","html-keyboard-response","446","798207","0.0-1.0-634.0","0","0","30433","","236","","","68","70","","d","2","70","training","adjacent","FG","6","7","O.jpg","Q.jpg","0","1","0","",""
"","feedback","","html-keyboard-response","447","799211","0.0-1.0-636.0-0.0","0","0","30433","","null","","","null","70","","","","","","","","","","","","","","","",""
"","time_out","","html-keyboard-response","448","801213","0.0-1.0-638.0-0.0","0","0","30433","","null","","","null","70","","","","","","","","","","","","","","","",""
"","ITI","","html-keyboard-response","449","802216","0.0-1.0-639.0","0","0","30433","","null","","","null","70","","","","","","","","","","","","","","","NaN",""
"","S1","","html-keyboard-response","450","802469","0.0-1.0-641.0","0","0","30433","","null","","","null","71","","","","","","","","","","","","","","","",""
"","ISI","","html-keyboard-response","451","803472","0.0-1.0-642.0","0","0","30433","","128","","","75","71","k","","","","","","","","","","","","","","",""
"","S2","","html-keyboard-response","452","803726","0.0-1.0-643.0","0","0","30433","","null","","","null","71","","NaN","","","","","","","","","","","","","",""
"","response","","html-keyboard-response","453","803991","0.0-1.0-644.0-0.0","0","0","30433","","264","","","75","71","","","2","71","training","adjacent","FE","6","5","O.jpg","R.jpg","1","0","0","",""
"","feedback","","html-keyboard-response","454","804996","0.0-1.0-645.0-0.0","0","0","30433","","null","","","null","71","","","","","","","","","","","","","","","",""
"","time_out","","html-keyboard-response","455","806999","0.0-1.0-647.0-0.0","0","0","30433","","null","","","null","71","","","","","","","","","","","","","","","",""
"","ITI","","html-keyboard-response","456","808002","0.0-1.0-648.0","0","0","30433","","null","","","null","71","","","","","","","","","","","","","","","NaN",""
"","S1","","html-keyboard-response","457","808255","0.0-1.0-650.0","0","0","30433","","null","","","null","72","","","","","","","","","","","","","","","",""
"","ISI","","html-keyboard-response","458","809258","0.0-1.0-651.0","0","0","30433","","null","","","null","72","NaN","","","","","","","","","","","","","","",""
"","S2","","html-keyboard-response","459","809511","0.0-1.0-652.0","0","0","30433","","null","","","null","72","","NaN","","","","","","","","","","","","","",""
"","response","","html-keyboard-response","460","809551","0.0-1.0-653.0-0.0","0","0","30433","","38","","","68","72","","","2","72","training","adjacent","BA","2","1","P.jpg","M.jpg","0","0","1","",""
"","feedback","","html-keyboard-response","461","810555","0.0-1.0-654.0-0.0","0","0","30433","","null","","","null","72","","","","","","","","","","","","","","","",""
"","ITI","","html-keyboard-response","462","811558","0.0-1.0-657.0","0","0","30433","","null","","","null","72","","","","","","","","","","","","","","","NaN",""
"","S1","","html-keyboard-response","463","811813","0.0-1.0-659.0","0","0","30433","","null","","","null","73","","","","","","","","","","","","","","","",""
"","ISI","","html-keyboard-response","464","812815","0.0-1.0-660.0","0","0","30433","","null","","","null","73","NaN","","","","","","","","","","","","","","",""
"","S2","","html-keyboard-response","465","813068","0.0-1.0-661.0","0","0","30433","","null","","","null","73","","NaN","","","","","","","","","","","","","",""
"","response","","html-keyboard-response","466","814295","0.0-1.0-662.0-0.0","0","0","30433","","1226","","","75","73","","","2","73","training","adjacent","FG","6","7","O.jpg","Q.jpg","1","1","1","",""
"","feedback","","html-keyboard-response","467","815300","0.0-1.0-663.0-0.0","0","0","30433","","null","","","null","73","","","","","","","","","","","","","","","",""
"","ITI","","html-keyboard-response","468","816303","0.0-1.0-666.0","0","0","30433","","null","","","null","73","","","","","","","","","","","","","","","NaN",""
"","S1","","html-keyboard-response","469","816556","0.0-1.0-668.0","0","0","30433","","null","","","null","74","","","","","","","","","","","","","","","",""
"","ISI","","html-keyboard-response","470","817559","0.0-1.0-669.0","0","0","30433","","null","","","null","74","NaN","","","","","","","","","","","","","","",""
"","S2","","html-keyboard-response","471","817813","0.0-1.0-670.0","0","0","30433","","null","","","null","74","","NaN","","","","","","","","","","","","","",""
"","response","","html-keyboard-response","472","818767","0.0-1.0-671.0-0.0","0","0","30433","","951","","","68","74","","","2","74","training","adjacent","GF","7","6","Q.jpg","O.jpg","0","0","1","",""
"","feedback","","html-keyboard-response","473","819770","0.0-1.0-672.0-0.0","0","0","30433","","null","","","null","74","","","","","","","","","","","","","","","",""
"","ITI","","html-keyboard-response","474","820773","0.0-1.0-675.0","0","0","30433","","null","","","null","74","","","","","","","","","","","","","","","NaN",""
"","S1","","html-keyboard-response","475","821026","0.0-1.0-677.0","0","0","30433","","null","","","null","75","","","","","","","","","","","","","","","",""
"","ISI","","html-keyboard-response","476","822029","0.0-1.0-678.0","0","0","30433","","null","","","null","75","NaN","","","","","","","","","","","","","","",""
"","S2","","html-keyboard-response","477","822247","0.0-1.0-679.0","0","0","30433","","216","","","75","75","","k","2","75","training","adjacent","CB","3","2","N.jpg","P.jpg","1","0","0","",""
"","feedback","","html-keyboard-response","478","823252","0.0-1.0-681.0-0.0","0","0","30433","","null","","","null","75","","","","","","","","","","","","","","","",""
"","time_out","","html-keyboard-response","479","825255","0.0-1.0-683.0-0.0","0","0","30433","","null","","","null","75","","","","","","","","","","","","","","","",""
"","ITI","","html-keyboard-response","480","826258","0.0-1.0-684.0","0","0","30433","","null","","","null","75","","","","","","","","","","","","","","","NaN",""
"","S1","","html-keyboard-response","481","826512","0.0-1.0-686.0","0","0","30433","","null","","","null","76","","","","","","","","","","","","","","","",""
"","ISI","","html-keyboard-response","482","827515","0.0-1.0-687.0","0","0","30433","","null","","","null","76","NaN","","","","","","","","","","","","","","",""
"","S2","","html-keyboard-response","483","827615","0.0-1.0-688.0","0","0","30433","","98","","","68","76","","d","2","76","training","adjacent","CD","3","4","N.jpg","L.jpg","0","1","0","",""
"","feedback","","html-keyboard-response","484","828618","0.0-1.0-690.0-0.0","0","0","30433","","null","","","null","76","","","","","","","","","","","","","","","",""
"","time_out","","html-keyboard-response","485","830622","0.0-1.0-692.0-0.0","0","0","30433","","null","","","null","76","","","","","","","","","","","","","","","",""
"","ITI","","html-keyboard-response","486","831625","0.0-1.0-693.0","0","0","30433","","null","","","null","76","","","","","","","","","","","","","","","NaN",""
"","S1","","html-keyboard-response","487","831878","0.0-1.0-695.0","0","0","30433","","null","","","null","77","","","","","","","","","","","","","","","",""
"","ISI","","html-keyboard-response","488","832882","0.0-1.0-696.0","0","0","30433","","null","","","null","77","NaN","","","","","","","","","","","","","","",""
"","S2","","html-keyboard-response","489","833015","0.0-1.0-697.0","0","0","30433","","130","","","75","77","","k","2","77","training","adjacent","CD","3","4","N.jpg","L.jpg","1","1","1","",""
"","feedback","","html-keyboard-response","490","834018","0.0-1.0-699.0-0.0","0","0","30433","","null","","","null","77","","","","","","","","","","","","","","","",""
"","ITI","","html-keyboard-response","491","835021","0.0-1.0-702.0","0","0","30433","","null","","","null","77","","","","","","","","","","","","","","","NaN",""
"","S1","","html-keyboard-response","492","835275","0.0-1.0-704.0","0","0","30433","","null","","","null","78","","","","","","","","","","","","","","","",""
"","ISI","","html-keyboard-response","493","836278","0.0-1.0-705.0","0","0","30433","","null","","","null","78","NaN","","","","","","","","","","","","","","",""
"","S2","","html-keyboard-response","494","836531","0.0-1.0-706.0","0","0","30433","","null","","","null","78","","NaN","","","","","","","","","","","","","",""
"","response","","html-keyboard-response","495","836911","0.0-1.0-707.0-0.0","0","0","30433","","377","","","68","78","","","2","78","training","adjacent","AB","1","2","M.jpg","P.jpg","0","1","0","",""
"","feedback","","html-keyboard-response","496","837915","0.0-1.0-708.0-0.0","0","0","30433","","null","","","null","78","","","","","","","","","","","","","","","",""
"","time_out","","html-keyboard-response","497","839918","0.0-1.0-710.0-0.0","0","0","30433","","null","","","null","78","","","","","","","","","","","","","","","",""
"","ITI","","html-keyboard-response","498","840921","0.0-1.0-711.0","0","0","30433","","null","","","null","78","","","","","","","","","","","","","","","NaN",""
"","S1","","html-keyboard-response","499","841175","0.0-1.0-713.0","0","0","30433","","null","","","null","79","","","","","","","","","","","","","","","",""
"","ISI","","html-keyboard-response","500","842177","0.0-1.0-714.0","0","0","30433","","null","","","null","79","NaN","","","","","","","","","","","","","","",""
"","S2","","html-keyboard-response","501","842423","0.0-1.0-715.0","0","0","30433","","242","","","75","79","","k","2","79","training","adjacent","CD","3","4","N.jpg","L.jpg","1","1","1","",""
"","feedback","","html-keyboard-response","502","843427","0.0-1.0-717.0-0.0","0","0","30433","","null","","","null","79","","","","","","","","","","","","","","","",""
"","ITI","","html-keyboard-response","503","844429","0.0-1.0-720.0","0","0","30433","","null","","","null","79","","","","","","","","","","","","","","","NaN",""
"","S1","","html-keyboard-response","504","844682","0.0-1.0-722.0","0","0","30433","","null","","","null","80","","","","","","","","","","","","","","","",""
"","ISI","","html-keyboard-response","505","845685","0.0-1.0-723.0","0","0","30433","","null","","","null","80","NaN","","","","","","","","","","","","","","",""
"","S2","","html-keyboard-response","506","845831","0.0-1.0-724.0","0","0","30433","","142","","","75","80","","k","2","80","training","adjacent","FG","6","7","O.jpg","Q.jpg","1","1","1","",""
"","feedback","","html-keyboard-response","507","846835","0.0-1.0-726.0-0.0","0","0","30433","","null","","","null","80","","","","","","","","","","","","","","","",""
"","ITI","","html-keyboard-response","508","847838","0.0-1.0-729.0","0","0","30433","","null","","","null","80","","","","","","","","","","","","","","","NaN",""
"","S1","","html-keyboard-response","509","848092","0.0-1.0-731.0","0","0","30433","","null","","","null","81","","","","","","","","","","","","","","","",""
"","ISI","","html-keyboard-response","510","849095","0.0-1.0-732.0","0","0","30433","","null","","","null","81","NaN","","","","","","","","","","","","","","",""
"","S2","","html-keyboard-response","511","849183","0.0-1.0-733.0","0","0","30433","","85","","","68","81","","d","2","81","training","adjacent","CB","3","2","N.jpg","P.jpg","0","0","1","",""
"","feedback","","html-keyboard-response","512","850186","0.0-1.0-735.0-0.0","0","0","30433","","null","","","null","81","","","","","","","","","","","","","","","",""
"","ITI","","html-keyboard-response","513","851189","0.0-1.0-738.0","0","0","30433","","null","","","null","81","","","","","","","","","","","","","","","NaN",""
"","S1","","html-keyboard-response","514","851443","0.0-1.0-740.0","0","0","30433","","null","","","null","82","","","","","","","","","","","","","","","",""
"","ISI","","html-keyboard-response","515","852446","0.0-1.0-741.0","0","0","30433","","873","","","68","82","d","","","","","","","","","","","","","","",""
"","S2","","html-keyboard-response","516","852699","0.0-1.0-742.0","0","0","30433","","null","","","null","82","","NaN","","","","","","","","","","","","","",""
"","response","","html-keyboard-response","517","852799","0.0-1.0-743.0-0.0","0","0","30433","","97","","","68","82","","","2","82","training","adjacent","EF","5","6","R.jpg","O.jpg","0","1","0","",""
"","feedback","","html-keyboard-response","518","853801","0.0-1.0-744.0-0.0","0","0","30433","","null","","","null","82","","","","","","","","","","","","","","","",""
"","time_out","","html-keyboard-response","519","855804","0.0-1.0-746.0-0.0","0","0","30433","","null","","","null","82","","","","","","","","","","","","","","","",""
"","ITI","","html-keyboard-response","520","856806","0.0-1.0-747.0","0","0","30433","","null","","","null","82","","","","","","","","","","","","","","","NaN",""
"","S1","","html-keyboard-response","521","857059","0.0-1.0-749.0","0","0","30433","","null","","","null","83","","","","","","","","","","","","","","","",""
"","ISI","","html-keyboard-response","522","858062","0.0-1.0-750.0","0","0","30433","","null","","","null","83","NaN","","","","","","","","","","","","","","",""
"","S2","","html-keyboard-response","523","858315","0.0-1.0-751.0","0","0","30433","","null","","","null","83","","NaN","","","","","","","","","","","","","",""
"","response","","html-keyboard-response","524","858358","0.0-1.0-752.0-0.0","0","0","30433","","40","","","75","83","","","2","83","training","adjacent","FE","6","5","O.jpg","R.jpg","1","0","0","",""
"","feedback","","html-keyboard-response","525","859361","0.0-1.0-753.0-0.0","0","0","30433","","null","","","null","83","","","","","","","","","","","","","","","",""
"","time_out","","html-keyboard-response","526","861364","0.0-1.0-755.0-0.0","0","0","30433","","null","","","null","83","","","","","","","","","","","","","","","",""
"","ITI","","html-keyboard-response","527","862366","0.0-1.0-756.0","0","0","30433","","null","","","null","83","","","","","","","","","","","","","","","NaN",""
"","S1","","html-keyboard-response","528","862620","0.0-1.0-758.0","0","0","30433","","null","","","null","84","","","","","","","","","","","","","","","",""
"","ISI","","html-keyboard-response","529","863623","0.0-1.0-759.0","0","0","30433","","null","","","null","84","NaN","","","","","","","","","","","","","","",""
"","S2","","html-keyboard-response","530","863838","0.0-1.0-760.0","0","0","30433","","212","","","75","84","","k","2","84","training","adjacent","FE","6","5","O.jpg","R.jpg","1","0","0","",""
"","feedback","","html-keyboard-response","531","864842","0.0-1.0-762.0-0.0","0","0","30433","","null","","","null","84","","","","","","","","","","","","","","","",""
"","time_out","","html-keyboard-response","532","866845","0.0-1.0-764.0-0.0","0","0","30433","","null","","","null","84","","","","","","","","","","","","","","","",""
"","ITI","","html-keyboard-response","533","867848","0.0-1.0-765.0","0","0","30433","","null","","","null","84","","","","","","","","","","","","","","","NaN",""
"","S1","","html-keyboard-response","534","868101","0.0-1.0-767.0","0","0","30433","","null","","","null","85","","","","","","","","","","","","","","","",""
"","ISI","","html-keyboard-response","535","869105","0.0-1.0-768.0","0","0","30433","","null","","","null","85","NaN","","","","","","","","","","","","","","",""
"","S2","","html-keyboard-response","536","869358","0.0-1.0-769.0","0","0","30433","","null","","","null","85","","NaN","","","","","","","","","","","","","",""
"","response","","html-keyboard-response","537","869373","0.0-1.0-770.0-0.0","0","0","30433","","13","","","68","85","","","2","85","training","adjacent","BC","2","3","P.jpg","N.jpg","0","1","0","",""
"","feedback","","html-keyboard-response","538","870377","0.0-1.0-771.0-0.0","0","0","30433","","null","","","null","85","","","","","","","","","","","","","","","",""
"","time_out","","html-keyboard-response","539","872380","0.0-1.0-773.0-0.0","0","0","30433","","null","","","null","85","","","","","","","","","","","","","","","",""
"","ITI","","html-keyboard-response","540","873384","0.0-1.0-774.0","0","0","30433","","null","","","null","85","","","","","","","","","","","","","","","NaN",""
"","S1","","html-keyboard-response","541","873637","0.0-1.0-776.0","0","0","30433","","null","","","null","86","","","","","","","","","","","","","","","",""
"","ISI","","html-keyboard-response","542","874640","0.0-1.0-777.0","0","0","30433","","null","","","null","86","NaN","","","","","","","","","","","","","","",""
"","S2","","html-keyboard-response","543","874893","0.0-1.0-778.0","0","0","30433","","null","","","null","86","","NaN","","","","","","","","","","","","","",""
"","response","","html-keyboard-response","544","874895","0.0-1.0-779.0-0.0","0","0","30433","","0","","","68","86","","","2","86","training","adjacent","DC","4","3","L.jpg","N.jpg","0","0","1","",""
"","feedback","","html-keyboard-response","545","875899","0.0-1.0-780.0-0.0","0","0","30433","","null","","","null","86","","","","","","","","","","","","","","","",""
"","ITI","","html-keyboard-response","546","876902","0.0-1.0-783.0","0","0","30433","","null","","","null","86","","","","","","","","","","","","","","","NaN",""
"","S1","","html-keyboard-response","547","877155","0.0-1.0-785.0","0","0","30433","","null","","","null","87","","","","","","","","","","","","","","","",""
"","ISI","","html-keyboard-response","548","878157","0.0-1.0-786.0","0","0","30433","","null","","","null","87","NaN","","","","","","","","","","","","","","",""
"","S2","","html-keyboard-response","549","878425","0.0-1.0-787.0","0","0","30433","","null","","","null","87","","NaN","","","","","","","","","","","","","",""
"","response","","html-keyboard-response","550","878430","0.0-1.0-788.0-0.0","0","0","30433","","2","","","75","87","","","2","87","training","adjacent","AB","1","2","M.jpg","P.jpg","1","1","1","",""
"","feedback","","html-keyboard-response","551","879433","0.0-1.0-789.0-0.0","0","0","30433","","null","","","null","87","","","","","","","","","","","","","","","",""
"","ITI","","html-keyboard-response","552","880436","0.0-1.0-792.0","0","0","30433","","null","","","null","87","","","","","","","","","","","","","","","NaN",""
"","S1","","html-keyboard-response","553","880690","0.0-1.0-794.0","0","0","30433","","null","","","null","88","","","","","","","","","","","","","","","",""
"","ISI","","html-keyboard-response","554","881692","0.0-1.0-795.0","0","0","30433","","null","","","null","88","NaN","","","","","","","","","","","","","","",""
"","S2","","html-keyboard-response","555","881917","0.0-1.0-796.0","0","0","30433","","223","","","75","88","","k","2","88","training","adjacent","DE","4","5","L.jpg","R.jpg","1","1","1","",""
"","feedback","","html-keyboard-response","556","882920","0.0-1.0-798.0-0.0","0","0","30433","","null","","","null","88","","","","","","","","","","","","","","","",""
"","ITI","","html-keyboard-response","557","883924","0.0-1.0-801.0","0","0","30433","","null","","","null","88","","","","","","","","","","","","","","","NaN",""
"","S1","","html-keyboard-response","558","884177","0.0-1.0-803.0","0","0","30433","","null","","","null","89","","","","","","","","","","","","","","","",""
"","ISI","","html-keyboard-response","559","885180","0.0-1.0-804.0","0","0","30433","","null","","","null","89","NaN","","","","","","","","","","","","","","",""
"","S2","","html-keyboard-response","560","885433","0.0-1.0-805.0","0","0","30433","","null","","","null","89","","NaN","","","","","","","","","","","","","",""
"","response","","html-keyboard-response","561","885438","0.0-1.0-806.0-0.0","0","0","30433","","2","","","68","89","","","2","89","training","adjacent","EF","5","6","R.jpg","O.jpg","0","1","0","",""
"","feedback","","html-keyboard-response","562","886441","0.0-1.0-807.0-0.0","0","0","30433","","null","","","null","89","","","","","","","","","","","","","","","",""
"","time_out","","html-keyboard-response","563","888446","0.0-1.0-809.0-0.0","0","0","30433","","null","","","null","89","","","","","","","","","","","","","","","",""
"","ITI","","html-keyboard-response","564","889449","0.0-1.0-810.0","0","0","30433","","null","","","null","89","","","","","","","","","","","","","","","NaN",""
"","S1","","html-keyboard-response","565","889707","0.0-1.0-812.0","0","0","30433","","null","","","null","90","","","","","","","","","","","","","","","",""
"","ISI","","html-keyboard-response","566","890709","0.0-1.0-813.0","0","0","30433","","null","","","null","90","NaN","","","","","","","","","","","","","","",""
"","S2","","html-keyboard-response","567","890962","0.0-1.0-814.0","0","0","30433","","null","","","null","90","","NaN","","","","","","","","","","","","","",""
"","response","","html-keyboard-response","568","891141","0.0-1.0-815.0-0.0","0","0","30433","","177","","","68","90","","","2","90","training","adjacent","ED","5","4","R.jpg","L.jpg","0","0","1","",""
"","feedback","","html-keyboard-response","569","892145","0.0-1.0-816.0-0.0","0","0","30433","","null","","","null","90","","","","","","","","","","","","","","","",""
"","ITI","","html-keyboard-response","570","893148","0.0-1.0-819.0","0","0","30433","","null","","","null","90","","","","","","","","","","","","","","","NaN",""
"","S1","","html-keyboard-response","571","893401","0.0-1.0-821.0","0","0","30433","","null","","","null","91","","","","","","","","","","","","","","","",""
"","ISI","","html-keyboard-response","572","894404","0.0-1.0-822.0","0","0","30433","","null","","","null","91","NaN","","","","","","","","","","","","","","",""
"","S2","","html-keyboard-response","573","894657","0.0-1.0-823.0","0","0","30433","","null","","","null","91","","NaN","","","","","","","","","","","","","",""
"","response","","html-keyboard-response","574","895668","0.0-1.0-824.0-0.0","0","0","30433","","1009","","","75","91","","","2","91","training","adjacent","BC","2","3","P.jpg","N.jpg","1","1","1","",""
"","feedback","","html-keyboard-response","575","896672","0.0-1.0-825.0-0.0","0","0","30433","","null","","","null","91","","","","","","","","","","","","","","","",""
"","ITI","","html-keyboard-response","576","897675","0.0-1.0-828.0","0","0","30433","","null","","","null","91","","","","","","","","","","","","","","","NaN",""
"","S1","","html-keyboard-response","577","897928","0.0-1.0-830.0","0","0","30433","","null","","","null","92","","","","","","","","","","","","","","","",""
"","ISI","","html-keyboard-response","578","898931","0.0-1.0-831.0","0","0","30433","","null","","","null","92","NaN","","","","","","","","","","","","","","",""
"","S2","","html-keyboard-response","579","899185","0.0-1.0-832.0","0","0","30433","","null","","","null","92","","NaN","","","","","","","","","","","","","",""
"","response","","html-keyboard-response","580","899269","0.0-1.0-833.0-0.0","0","0","30433","","82","","","68","92","","","2","92","training","adjacent","BC","2","3","P.jpg","N.jpg","0","1","0","",""
"","feedback","","html-keyboard-response","581","900273","0.0-1.0-834.0-0.0","0","0","30433","","null","","","null","92","","","","","","","","","","","","","","","",""
