"success","ttype","start_time","trial_type","trial_index","time_elapsed","internal_node_id","warning","missed_checkup","PID","view_history","rt","responses","repeat_instructions","key_press","index","keypress_isi","keypress_S2","block","trial_num","phase","group_type","pair_type","S1_stim","S2_stim","S1_img","S2_img","S1_chosen","S1_higher","accuracy","keypress_iti","total_bonus_tally"
"true","full_screen","d08052022hr1301","fullscreen","0","11951","0.0-0.0","0","0","62359","","","","","","","","","","","","","","","","","","","","","",""
"","instructions","","instructions","1","98395","0.0-1.0-0.0-0.0","0","0","62359","[{""page_index"":0,""viewing_time"":6163},{""page_index"":1,""viewing_time"":74348},{""page_index"":2,""viewing_time"":1871},{""page_index"":3,""viewing_time"":4057}]","86441","","","","","","","","","","","","","","","","","","","",""
"","comprehension_check","","survey-multi-choice","2","131961","0.0-1.0-0.0-1.0","0","0","62359","","33554","{""Q0"":""True"",""Q1"":""K"",""Q2"":""Only while the second image is shown"",""Q3"":""Green mark"",""Q4"":""either D or K""}","1","","","","","","","","","","","","","","","","","",""
"","missed_instruction_checkup","","html-keyboard-response","3","134194","0.0-1.0-0.0-2.0-0.0","0","1","62359","","2228","","","32","","","","","","","","","","","","","","","","",""
"","instructions","","instructions","4","149647","0.0-1.0-0.1-0.1","0","0","62359","[{""page_index"":0,""viewing_time"":2371},{""page_index"":1,""viewing_time"":10884},{""page_index"":2,""viewing_time"":981},{""page_index"":3,""viewing_time"":1212}]","15449","","","","","","","","","","","","","","","","","","","",""
"","comprehension_check","","survey-multi-choice","5","164272","0.0-1.0-0.1-1.1","0","0","62359","","14614","{""Q0"":""True"",""Q1"":""K"",""Q2"":""Once the second image appears and while the screen 'MAKE A CHOICE' is shown"",""Q3"":""Green mark"",""Q4"":""either D or K""}","0","","","","","","","","","","","","","","","","","",""
"","start_exp","","html-keyboard-response","6","165719","0.0-1.0-1.0","0","0","62359","","1443","","","32","","","","","","","","","","","","","","","","",""
"","S1","","html-keyboard-response","7","165978","0.0-1.0-2.0","0","0","62359","","null","","","null","0","","","","","","","","","","","","","","","",""
"","ISI","","html-keyboard-response","8","167985","0.0-1.0-3.0","0","0","62359","","null","","","null","0","NaN","","","","","","","","","","","","","","",""
"","S2","","html-keyboard-response","9","168249","0.0-1.0-4.0","0","0","62359","","null","","","null","0","","NaN","","","","","","","","","","","","","",""
"","response","","html-keyboard-response","10","170010","0.0-1.0-5.0-0.0","0","0","62359","","null","","","null","0","","","1","0","training","adjacent","CB","3","2","L.jpg","P.jpg","NaN","0","0","",""
"","too_slow_prompt","","html-keyboard-response","11","171017","0.0-1.0-7.0-0.0","1","0","62359","","null","","","null","","","","","","","","","","","","","","","","",""
"","time_out","","html-keyboard-response","12","173026","0.0-1.0-8.0-0.0","0","0","62359","","null","","","null","0","","","","","","","","","","","","","","","",""
"","ITI","","html-keyboard-response","13","174038","0.0-1.0-9.0","0","0","62359","","null","","","null","0","","","","","","","","","","","","","","","NaN",""
"","S1","","html-keyboard-response","14","174292","0.0-1.0-11.0","0","0","62359","","null","","","null","1","","","","","","","","","","","","","","","",""
"","ISI","","html-keyboard-response","15","176297","0.0-1.0-12.0","0","0","62359","","null","","","null","1","NaN","","","","","","","","","","","","","","",""
"","S2","","html-keyboard-response","16","176552","0.0-1.0-13.0","0","0","62359","","null","","","null","1","","NaN","","","","","","","","","","","","","",""
"","response","","html-keyboard-response","17","177200","0.0-1.0-14.0-0.0","0","0","62359","","646","","","68","1","","","1","1","training","adjacent","FG","6","7","Q.jpg","R.jpg","0","1","0","",""
"","feedback","","html-keyboard-response","18","178210","0.0-1.0-15.0-0.0","0","0","62359","","null","","","null","1","","","","","","","","","","","","","","","",""
"","time_out","","html-keyboard-response","19","180214","0.0-1.0-17.0-0.0","0","0","62359","","null","","","null","1","","","","","","","","","","","","","","","",""
"","ITI","","html-keyboard-response","20","181223","0.0-1.0-18.0","0","0","62359","","null","","","null","1","","","","","","","","","","","","","","","NaN",""
"","S1","","html-keyboard-response","21","181478","0.0-1.0-20.0","0","0","62359","","null","","","null","2","","","","","","","","","","","","","","","",""
"","ISI","","html-keyboard-response","22","183487","0.0-1.0-21.0","0","0","62359","","null","","","null","2","NaN","","","","","","","","","","","","","","",""
"","S2","","html-keyboard-response","23","183744","0.0-1.0-22.0","0","0","62359","","null","","","null","2","","NaN","","","","","","","","","","","","","",""
"","response","","html-keyboard-response","24","184502","0.0-1.0-23.0-0.0","0","0","62359","","755","","","68","2","","","1","2","training","adjacent","EF","5","6","M.jpg","Q.jpg","0","1","0","",""
"","feedback","","html-keyboard-response","25","185512","0.0-1.0-24.0-0.0","0","0","62359","","null","","","null","2","","","","","","","","","","","","","","","",""
"","time_out","","html-keyboard-response","26","187516","0.0-1.0-26.0-0.0","0","0","62359","","null","","","null","2","","","","","","","","","","","","","","","",""
"","ITI","","html-keyboard-response","27","188528","0.0-1.0-27.0","0","0","62359","","null","","","null","2","","","","","","","","","","","","","","","NaN",""
"","S1","","html-keyboard-response","28","188785","0.0-1.0-29.0","0","0","62359","","null","","","null","3","","","","","","","","","","","","","","","",""
"","ISI","","html-keyboard-response","29","190789","0.0-1.0-30.0","0","0","62359","","null","","","null","3","NaN","","","","","","","","","","","","","","",""
"","S2","","html-keyboard-response","30","191054","0.0-1.0-31.0","0","0","62359","","null","","","null","3","","NaN","","","","","","","","","","","","","",""
"","response","","html-keyboard-response","31","191744","0.0-1.0-32.0-0.0","0","0","62359","","686","","","75","3","","","1","3","training","adjacent","GF","7","6","R.jpg","Q.jpg","1","0","0","",""
"","feedback","","html-keyboard-response","32","192752","0.0-1.0-33.0-0.0","0","0","62359","","null","","","null","3","","","","","","","","","","","","","","","",""
"","time_out","","html-keyboard-response","33","194758","0.0-1.0-35.0-0.0","0","0","62359","","null","","","null","3","","","","","","","","","","","","","","","",""
"","ITI","","html-keyboard-response","34","195761","0.0-1.0-36.0","0","0","62359","","null","","","null","3","","","","","","","","","","","","","","","NaN",""
"","S1","","html-keyboard-response","35","196017","0.0-1.0-38.0","0","0","62359","","null","","","null","4","","","","","","","","","","","","","","","",""
"","ISI","","html-keyboard-response","36","198021","0.0-1.0-39.0","0","0","62359","","null","","","null","4","NaN","","","","","","","","","","","","","","",""
"","S2","","html-keyboard-response","37","198276","0.0-1.0-40.0","0","0","62359","","null","","","null","4","","NaN","","","","","","","","","","","","","",""
"","response","","html-keyboard-response","38","198767","0.0-1.0-41.0-0.0","0","0","62359","","487","","","68","4","","","1","4","training","adjacent","ED","5","4","M.jpg","N.jpg","0","0","1","",""
"","feedback","","html-keyboard-response","39","199777","0.0-1.0-42.0-0.0","0","0","62359","","null","","","null","4","","","","","","","","","","","","","","","",""
"","ITI","","html-keyboard-response","40","200782","0.0-1.0-45.0","0","0","62359","","null","","","null","4","","","","","","","","","","","","","","","NaN",""
"","S1","","html-keyboard-response","41","201036","0.0-1.0-47.0","0","0","62359","","null","","","null","5","","","","","","","","","","","","","","","",""
"","ISI","","html-keyboard-response","42","203045","0.0-1.0-48.0","0","0","62359","","null","","","null","5","NaN","","","","","","","","","","","","","","",""
"","S2","","html-keyboard-response","43","203304","0.0-1.0-49.0","0","0","62359","","null","","","null","5","","NaN","","","","","","","","","","","","","",""
"","response","","html-keyboard-response","44","203699","0.0-1.0-50.0-0.0","0","0","62359","","391","","","75","5","","","1","5","training","adjacent","CD","3","4","L.jpg","N.jpg","1","1","1","",""
"","feedback","","html-keyboard-response","45","204707","0.0-1.0-51.0-0.0","0","0","62359","","null","","","null","5","","","","","","","","","","","","","","","",""
"","ITI","","html-keyboard-response","46","205715","0.0-1.0-54.0","0","0","62359","","null","","","null","5","","","","","","","","","","","","","","","NaN",""
"","S1","","html-keyboard-response","47","205976","0.0-1.0-56.0","0","0","62359","","null","","","null","6","","","","","","","","","","","","","","","",""
"","ISI","","html-keyboard-response","48","207985","0.0-1.0-57.0","0","0","62359","","null","","","null","6","NaN","","","","","","","","","","","","","","",""
"","S2","","html-keyboard-response","49","208245","0.0-1.0-58.0","0","0","62359","","null","","","null","6","","NaN","","","","","","","","","","","","","",""
"","response","","html-keyboard-response","50","208612","0.0-1.0-59.0-0.0","0","0","62359","","365","","","68","6","","","1","6","training","adjacent","FE","6","5","Q.jpg","M.jpg","0","0","1","",""
"","feedback","","html-keyboard-response","51","209620","0.0-1.0-60.0-0.0","0","0","62359","","null","","","null","6","","","","","","","","","","","","","","","",""
"","ITI","","html-keyboard-response","52","210627","0.0-1.0-63.0","0","0","62359","","null","","","null","6","","","","","","","","","","","","","","","NaN",""
"","S1","","html-keyboard-response","53","210883","0.0-1.0-65.0","0","0","62359","","null","","","null","7","","","","","","","","","","","","","","","",""
"","ISI","","html-keyboard-response","54","212902","0.0-1.0-66.0","0","0","62359","","null","","","null","7","NaN","","","","","","","","","","","","","","",""
"","S2","","html-keyboard-response","55","213158","0.0-1.0-67.0","0","0","62359","","null","","","null","7","","NaN","","","","","","","","","","","","","",""
"","response","","html-keyboard-response","56","214215","0.0-1.0-68.0-0.0","0","0","62359","","1053","","","68","7","","","1","7","training","adjacent","CB","3","2","L.jpg","P.jpg","0","0","1","",""
"","feedback","","html-keyboard-response","57","215226","0.0-1.0-69.0-0.0","0","0","62359","","null","","","null","7","","","","","","","","","","","","","","","",""
"","ITI","","html-keyboard-response","58","216234","0.0-1.0-72.0","0","0","62359","","null","","","null","7","","","","","","","","","","","","","","","NaN",""
"","S1","","html-keyboard-response","59","216492","0.0-1.0-74.0","0","0","62359","","null","","","null","8","","","","","","","","","","","","","","","",""
"","ISI","","html-keyboard-response","60","218503","0.0-1.0-75.0","0","0","62359","","null","","","null","8","NaN","","","","","","","","","","","","","","",""
"","S2","","html-keyboard-response","61","218759","0.0-1.0-76.0","0","0","62359","","null","","","null","8","","NaN","","","","","","","","","","","","","",""
"","response","","html-keyboard-response","62","219213","0.0-1.0-77.0-0.0","0","0","62359","","451","","","75","8","","","1","8","training","adjacent","BA","2","1","P.jpg","O.jpg","1","0","0","",""
"","feedback","","html-keyboard-response","63","220224","0.0-1.0-78.0-0.0","0","0","62359","","null","","","null","8","","","","","","","","","","","","","","","",""
"","time_out","","html-keyboard-response","64","222232","0.0-1.0-80.0-0.0","0","0","62359","","null","","","null","8","","","","","","","","","","","","","","","",""
"","ITI","","html-keyboard-response","65","223236","0.0-1.0-81.0","0","0","62359","","null","","","null","8","","","","","","","","","","","","","","","NaN",""
"","S1","","html-keyboard-response","66","223494","0.0-1.0-83.0","0","0","62359","","null","","","null","9","","","","","","","","","","","","","","","",""
"","ISI","","html-keyboard-response","67","225499","0.0-1.0-84.0","0","0","62359","","null","","","null","9","NaN","","","","","","","","","","","","","","",""
"","S2","","html-keyboard-response","68","225758","0.0-1.0-85.0","0","0","62359","","null","","","null","9","","NaN","","","","","","","","","","","","","",""
"","response","","html-keyboard-response","69","227111","0.0-1.0-86.0-0.0","0","0","62359","","1350","","","75","9","","","1","9","training","adjacent","BC","2","3","P.jpg","L.jpg","1","1","1","",""
"","feedback","","html-keyboard-response","70","228116","0.0-1.0-87.0-0.0","0","0","62359","","null","","","null","9","","","","","","","","","","","","","","","",""
"","ITI","","html-keyboard-response","71","229123","0.0-1.0-90.0","0","0","62359","","null","","","null","9","","","","","","","","","","","","","","","NaN",""
"","S1","","html-keyboard-response","72","229378","0.0-1.0-92.0","0","0","62359","","null","","","null","10","","","","","","","","","","","","","","","",""
"","ISI","","html-keyboard-response","73","231384","0.0-1.0-93.0","0","0","62359","","null","","","null","10","NaN","","","","","","","","","","","","","","",""
"","S2","","html-keyboard-response","74","231646","0.0-1.0-94.0","0","0","62359","","null","","","null","10","","NaN","","","","","","","","","","","","","",""
"","response","","html-keyboard-response","75","232721","0.0-1.0-95.0-0.0","0","0","62359","","1071","","","68","10","","","1","10","training","adjacent","CD","3","4","L.jpg","N.jpg","0","1","0","",""
"","feedback","","html-keyboard-response","76","233726","0.0-1.0-96.0-0.0","0","0","62359","","null","","","null","10","","","","","","","","","","","","","","","",""
"","time_out","","html-keyboard-response","77","235735","0.0-1.0-98.0-0.0","0","0","62359","","null","","","null","10","","","","","","","","","","","","","","","",""
"","ITI","","html-keyboard-response","78","236742","0.0-1.0-99.0","0","0","62359","","null","","","null","10","","","","","","","","","","","","","","","NaN",""
"","S1","","html-keyboard-response","79","236997","0.0-1.0-101.0","0","0","62359","","null","","","null","11","","","","","","","","","","","","","","","",""
"","ISI","","html-keyboard-response","80","239006","0.0-1.0-102.0","0","0","62359","","null","","","null","11","NaN","","","","","","","","","","","","","","",""
"","S2","","html-keyboard-response","81","239262","0.0-1.0-103.0","0","0","62359","","null","","","null","11","","NaN","","","","","","","","","","","","","",""
"","response","","html-keyboard-response","82","239358","0.0-1.0-104.0-0.0","0","0","62359","","91","","","68","11","","","1","11","training","adjacent","FE","6","5","Q.jpg","M.jpg","0","0","1","",""
"","feedback","","html-keyboard-response","83","240366","0.0-1.0-105.0-0.0","0","0","62359","","null","","","null","11","","","","","","","","","","","","","","","",""
"","ITI","","html-keyboard-response","84","241378","0.0-1.0-108.0","0","0","62359","","null","","","null","11","","","","","","","","","","","","","","","NaN",""
"","S1","","html-keyboard-response","85","241637","0.0-1.0-110.0","0","0","62359","","null","","","null","12","","","","","","","","","","","","","","","",""
"","ISI","","html-keyboard-response","86","243644","0.0-1.0-111.0","0","0","62359","","null","","","null","12","NaN","","","","","","","","","","","","","","",""
"","S2","","html-keyboard-response","87","243906","0.0-1.0-112.0","0","0","62359","","null","","","null","12","","NaN","","","","","","","","","","","","","",""
"","response","","html-keyboard-response","88","244258","0.0-1.0-113.0-0.0","0","0","62359","","349","","","68","12","","","1","12","training","adjacent","FE","6","5","Q.jpg","M.jpg","0","0","1","",""
"","feedback","","html-keyboard-response","89","245265","0.0-1.0-114.0-0.0","0","0","62359","","null","","","null","12","","","","","","","","","","","","","","","",""
"","ITI","","html-keyboard-response","90","246270","0.0-1.0-117.0","0","0","62359","","null","","","null","12","","","","","","","","","","","","","","","NaN",""
"","S1","","html-keyboard-response","91","246525","0.0-1.0-119.0","0","0","62359","","null","","","null","13","","","","","","","","","","","","","","","",""
"","ISI","","html-keyboard-response","92","248535","0.0-1.0-120.0","0","0","62359","","null","","","null","13","NaN","","","","","","","","","","","","","","",""
"","S2","","html-keyboard-response","93","248794","0.0-1.0-121.0","0","0","62359","","null","","","null","13","","NaN","","","","","","","","","","","","","",""
"","response","","html-keyboard-response","94","249193","0.0-1.0-122.0-0.0","0","0","62359","","394","","","68","13","","","1","13","training","adjacent","BA","2","1","P.jpg","O.jpg","0","0","1","",""
"","feedback","","html-keyboard-response","95","250201","0.0-1.0-123.0-0.0","0","0","62359","","null","","","null","13","","","","","","","","","","","","","","","",""
"","ITI","","html-keyboard-response","96","251210","0.0-1.0-126.0","0","0","62359","","null","","","null","13","","","","","","","","","","","","","","","NaN",""
"","S1","","html-keyboard-response","97","251472","0.0-1.0-128.0","0","0","62359","","null","","","null","14","","","","","","","","","","","","","","","",""
"","ISI","","html-keyboard-response","98","253477","0.0-1.0-129.0","0","0","62359","","null","","","null","14","NaN","","","","","","","","","","","","","","",""
"","S2","","html-keyboard-response","99","253735","0.0-1.0-130.0","0","0","62359","","null","","","null","14","","NaN","","","","","","","","","","","","","",""
"","response","","html-keyboard-response","100","253795","0.0-1.0-131.0-0.0","0","0","62359","","57","","","75","14","","","1","14","training","adjacent","ED","5","4","M.jpg","N.jpg","1","0","0","",""
"","feedback","","html-keyboard-response","101","254805","0.0-1.0-132.0-0.0","0","0","62359","","null","","","null","14","","","","","","","","","","","","","","","",""
"","time_out","","html-keyboard-response","102","256815","0.0-1.0-134.0-0.0","0","0","62359","","null","","","null","14","","","","","","","","","","","","","","","",""
"","ITI","","html-keyboard-response","103","257827","0.0-1.0-135.0","0","0","62359","","null","","","null","14","","","","","","","","","","","","","","","NaN",""
"","S1","","html-keyboard-response","104","258088","0.0-1.0-137.0","0","0","62359","","null","","","null","15","","","","","","","","","","","","","","","",""
"","ISI","","html-keyboard-response","105","260098","0.0-1.0-138.0","0","0","62359","","null","","","null","15","NaN","","","","","","","","","","","","","","",""
"","S2","","html-keyboard-response","106","260359","0.0-1.0-139.0","0","0","62359","","null","","","null","15","","NaN","","","","","","","","","","","","","",""
"","response","","html-keyboard-response","107","260878","0.0-1.0-140.0-0.0","0","0","62359","","514","","","75","15","","","1","15","training","adjacent","AB","1","2","O.jpg","P.jpg","1","1","1","",""
"","feedback","","html-keyboard-response","108","261885","0.0-1.0-141.0-0.0","0","0","62359","","null","","","null","15","","","","","","","","","","","","","","","",""
"","ITI","","html-keyboard-response","109","262889","0.0-1.0-144.0","0","0","62359","","null","","","null","15","","","","","","","","","","","","","","","NaN",""
"","S1","","html-keyboard-response","110","263154","0.0-1.0-146.0","0","0","62359","","null","","","null","16","","","","","","","","","","","","","","","",""
"","ISI","","html-keyboard-response","111","265170","0.0-1.0-147.0","0","0","62359","","null","","","null","16","NaN","","","","","","","","","","","","","","",""
"","S2","","html-keyboard-response","112","265430","0.0-1.0-148.0","0","0","62359","","null","","","null","16","","NaN","","","","","","","","","","","","","",""
"","response","","html-keyboard-response","113","266466","0.0-1.0-149.0-0.0","0","0","62359","","1032","","","75","16","","","1","16","training","adjacent","AB","1","2","O.jpg","P.jpg","1","1","1","",""
"","feedback","","html-keyboard-response","114","267475","0.0-1.0-150.0-0.0","0","0","62359","","null","","","null","16","","","","","","","","","","","","","","","",""
"","ITI","","html-keyboard-response","115","268486","0.0-1.0-153.0","0","0","62359","","null","","","null","16","","","","","","","","","","","","","","","NaN",""
"","S1","","html-keyboard-response","116","268740","0.0-1.0-155.0","0","0","62359","","null","","","null","17","","","","","","","","","","","","","","","",""
"","ISI","","html-keyboard-response","117","270745","0.0-1.0-156.0","0","0","62359","","null","","","null","17","NaN","","","","","","","","","","","","","","",""
"","S2","","html-keyboard-response","118","271007","0.0-1.0-157.0","0","0","62359","","null","","","null","17","","NaN","","","","","","","","","","","","","",""
"","response","","html-keyboard-response","119","271599","0.0-1.0-158.0-0.0","0","0","62359","","588","","","68","17","","","1","17","training","adjacent","DE","4","5","N.jpg","M.jpg","0","1","0","",""
"","feedback","","html-keyboard-response","120","272605","0.0-1.0-159.0-0.0","0","0","62359","","null","","","null","17","","","","","","","","","","","","","","","",""
"","time_out","","html-keyboard-response","121","274608","0.0-1.0-161.0-0.0","0","0","62359","","null","","","null","17","","","","","","","","","","","","","","","",""
"","ITI","","html-keyboard-response","122","275613","0.0-1.0-162.0","0","0","62359","","null","","","null","17","","","","","","","","","","","","","","","NaN",""
"","S1","","html-keyboard-response","123","275874","0.0-1.0-164.0","0","0","62359","","null","","","null","18","","","","","","","","","","","","","","","",""
"","ISI","","html-keyboard-response","124","277886","0.0-1.0-165.0","0","0","62359","","null","","","null","18","NaN","","","","","","","","","","","","","","",""
"","S2","","html-keyboard-response","125","278141","0.0-1.0-166.0","0","0","62359","","null","","","null","18","","NaN","","","","","","","","","","","","","",""
"","response","","html-keyboard-response","126","279337","0.0-1.0-167.0-0.0","0","0","62359","","1191","","","68","18","","","1","18","training","adjacent","BA","2","1","P.jpg","O.jpg","0","0","1","",""
"","feedback","","html-keyboard-response","127","280342","0.0-1.0-168.0-0.0","0","0","62359","","null","","","null","18","","","","","","","","","","","","","","","",""
"","ITI","","html-keyboard-response","128","281347","0.0-1.0-171.0","0","0","62359","","null","","","null","18","","","","","","","","","","","","","","","NaN",""
"","S1","","html-keyboard-response","129","281603","0.0-1.0-173.0","0","0","62359","","null","","","null","19","","","","","","","","","","","","","","","",""
"","ISI","","html-keyboard-response","130","283607","0.0-1.0-174.0","0","0","62359","","null","","","null","19","NaN","","","","","","","","","","","","","","",""
"","S2","","html-keyboard-response","131","283872","0.0-1.0-175.0","0","0","62359","","null","","","null","19","","NaN","","","","","","","","","","","","","",""
"","response","","html-keyboard-response","132","284335","0.0-1.0-176.0-0.0","0","0","62359","","459","","","68","19","","","1","19","training","adjacent","ED","5","4","M.jpg","N.jpg","0","0","1","",""
"","feedback","","html-keyboard-response","133","285345","0.0-1.0-177.0-0.0","0","0","62359","","null","","","null","19","","","","","","","","","","","","","","","",""
"","ITI","","html-keyboard-response","134","286353","0.0-1.0-180.0","0","0","62359","","null","","","null","19","","","","","","","","","","","","","","","NaN",""
"","S1","","html-keyboard-response","135","286609","0.0-1.0-182.0","0","0","62359","","null","","","null","20","","","","","","","","","","","","","","","",""
"","ISI","","html-keyboard-response","136","288618","0.0-1.0-183.0","0","0","62359","","null","","","null","20","NaN","","","","","","","","","","","","","","",""
"","S2","","html-keyboard-response","137","288880","0.0-1.0-184.0","0","0","62359","","null","","","null","20","","NaN","","","","","","","","","","","","","",""
"","response","","html-keyboard-response","138","289369","0.0-1.0-185.0-0.0","0","0","62359","","485","","","68","20","","","1","20","training","adjacent","ED","5","4","M.jpg","N.jpg","0","0","1","",""
"","feedback","","html-keyboard-response","139","290374","0.0-1.0-186.0-0.0","0","0","62359","","null","","","null","20","","","","","","","","","","","","","","","",""
"","ITI","","html-keyboard-response","140","291387","0.0-1.0-189.0","0","0","62359","","null","","","null","20","","","","","","","","","","","","","","","NaN",""
"","S1","","html-keyboard-response","141","291642","0.0-1.0-191.0","0","0","62359","","null","","","null","21","","","","","","","","","","","","","","","",""
"","ISI","","html-keyboard-response","142","293645","0.0-1.0-192.0","0","0","62359","","null","","","null","21","NaN","","","","","","","","","","","","","","",""
"","S2","","html-keyboard-response","143","293901","0.0-1.0-193.0","0","0","62359","","null","","","null","21","","NaN","","","","","","","","","","","","","",""
"","response","","html-keyboard-response","144","295018","0.0-1.0-194.0-0.0","0","0","62359","","1112","","","68","21","","","1","21","training","adjacent","FG","6","7","Q.jpg","R.jpg","0","1","0","",""
"","feedback","","html-keyboard-response","145","296025","0.0-1.0-195.0-0.0","0","0","62359","","null","","","null","21","","","","","","","","","","","","","","","",""
"","time_out","","html-keyboard-response","146","298035","0.0-1.0-197.0-0.0","0","0","62359","","null","","","null","21","","","","","","","","","","","","","","","",""
"","ITI","","html-keyboard-response","147","299042","0.0-1.0-198.0","0","0","62359","","null","","","null","21","","","","","","","","","","","","","","","NaN",""
"","S1","","html-keyboard-response","148","299300","0.0-1.0-200.0","0","0","62359","","null","","","null","22","","","","","","","","","","","","","","","",""
"","ISI","","html-keyboard-response","149","301309","0.0-1.0-201.0","0","0","62359","","null","","","null","22","NaN","","","","","","","","","","","","","","",""
"","S2","","html-keyboard-response","150","301566","0.0-1.0-202.0","0","0","62359","","null","","","null","22","","NaN","","","","","","","","","","","","","",""
"","response","","html-keyboard-response","151","301922","0.0-1.0-203.0-0.0","0","0","62359","","351","","","75","22","","","1","22","training","adjacent","GF","7","6","R.jpg","Q.jpg","1","0","0","",""
"","feedback","","html-keyboard-response","152","302934","0.0-1.0-204.0-0.0","0","0","62359","","null","","","null","22","","","","","","","","","","","","","","","",""
"","time_out","","html-keyboard-response","153","304945","0.0-1.0-206.0-0.0","0","0","62359","","null","","","null","22","","","","","","","","","","","","","","","",""
"","ITI","","html-keyboard-response","154","305952","0.0-1.0-207.0","0","0","62359","","null","","","null","22","","","","","","","","","","","","","","","NaN",""
"","S1","","html-keyboard-response","155","306210","0.0-1.0-209.0","0","0","62359","","null","","","null","23","","","","","","","","","","","","","","","",""
"","ISI","","html-keyboard-response","156","308219","0.0-1.0-210.0","0","0","62359","","null","","","null","23","NaN","","","","","","","","","","","","","","",""
"","S2","","html-keyboard-response","157","308476","0.0-1.0-211.0","0","0","62359","","null","","","null","23","","NaN","","","","","","","","","","","","","",""
"","response","","html-keyboard-response","158","309393","0.0-1.0-212.0-0.0","0","0","62359","","912","","","68","23","","","1","23","training","adjacent","DE","4","5","N.jpg","M.jpg","0","1","0","",""
"","feedback","","html-keyboard-response","159","310406","0.0-1.0-213.0-0.0","0","0","62359","","null","","","null","23","","","","","","","","","","","","","","","",""
"","time_out","","html-keyboard-response","160","312416","0.0-1.0-215.0-0.0","0","0","62359","","null","","","null","23","","","","","","","","","","","","","","","",""
"","ITI","","html-keyboard-response","161","313422","0.0-1.0-216.0","0","0","62359","","null","","","null","23","","","","","","","","","","","","","","","NaN",""
"","S1","","html-keyboard-response","162","313684","0.0-1.0-218.0","0","0","62359","","null","","","null","24","","","","","","","","","","","","","","","",""
"","ISI","","html-keyboard-response","163","315689","0.0-1.0-219.0","0","0","62359","","null","","","null","24","NaN","","","","","","","","","","","","","","",""
"","S2","","html-keyboard-response","164","315946","0.0-1.0-220.0","0","0","62359","","null","","","null","24","","NaN","","","","","","","","","","","","","",""
"","response","","html-keyboard-response","165","316300","0.0-1.0-221.0-0.0","0","0","62359","","349","","","75","24","","","1","24","training","adjacent","EF","5","6","M.jpg","Q.jpg","1","1","1","",""
"","feedback","","html-keyboard-response","166","317312","0.0-1.0-222.0-0.0","0","0","62359","","null","","","null","24","","","","","","","","","","","","","","","",""
"","ITI","","html-keyboard-response","167","318319","0.0-1.0-225.0","0","0","62359","","null","","","null","24","","","","","","","","","","","","","","","NaN",""
"","S1","","html-keyboard-response","168","318576","0.0-1.0-227.0","0","0","62359","","null","","","null","25","","","","","","","","","","","","","","","",""
"","ISI","","html-keyboard-response","169","320587","0.0-1.0-228.0","0","0","62359","","null","","","null","25","NaN","","","","","","","","","","","","","","",""
"","S2","","html-keyboard-response","170","320849","0.0-1.0-229.0","0","0","62359","","null","","","null","25","","NaN","","","","","","","","","","","","","",""
"","response","","html-keyboard-response","171","321563","0.0-1.0-230.0-0.0","0","0","62359","","710","","","75","25","","","1","25","training","adjacent","DC","4","3","N.jpg","L.jpg","1","0","0","",""
"","feedback","","html-keyboard-response","172","322572","0.0-1.0-231.0-0.0","0","0","62359","","null","","","null","25","","","","","","","","","","","","","","","",""
"","time_out","","html-keyboard-response","173","324582","0.0-1.0-233.0-0.0","0","0","62359","","null","","","null","25","","","","","","","","","","","","","","","",""
"","ITI","","html-keyboard-response","174","325587","0.0-1.0-234.0","0","0","62359","","null","","","null","25","","","","","","","","","","","","","","","NaN",""
"","S1","","html-keyboard-response","175","325846","0.0-1.0-236.0","0","0","62359","","null","","","null","26","","","","","","","","","","","","","","","",""
"","ISI","","html-keyboard-response","176","327859","0.0-1.0-237.0","0","0","62359","","null","","","null","26","NaN","","","","","","","","","","","","","","",""
"","S2","","html-keyboard-response","177","328114","0.0-1.0-238.0","0","0","62359","","null","","","null","26","","NaN","","","","","","","","","","","","","",""
"","response","","html-keyboard-response","178","329064","0.0-1.0-239.0-0.0","0","0","62359","","945","","","68","26","","","1","26","training","adjacent","DE","4","5","N.jpg","M.jpg","0","1","0","",""
"","feedback","","html-keyboard-response","179","330076","0.0-1.0-240.0-0.0","0","0","62359","","null","","","null","26","","","","","","","","","","","","","","","",""
"","time_out","","html-keyboard-response","180","332080","0.0-1.0-242.0-0.0","0","0","62359","","null","","","null","26","","","","","","","","","","","","","","","",""
"","ITI","","html-keyboard-response","181","333090","0.0-1.0-243.0","0","0","62359","","null","","","null","26","","","","","","","","","","","","","","","NaN",""
"","S1","","html-keyboard-response","182","333348","0.0-1.0-245.0","0","0","62359","","null","","","null","27","","","","","","","","","","","","","","","",""
"","ISI","","html-keyboard-response","183","335354","0.0-1.0-246.0","0","0","62359","","null","","","null","27","NaN","","","","","","","","","","","","","","",""
"","S2","","html-keyboard-response","184","335612","0.0-1.0-247.0","0","0","62359","","null","","","null","27","","NaN","","","","","","","","","","","","","",""
"","response","","html-keyboard-response","185","336628","0.0-1.0-248.0-0.0","0","0","62359","","1012","","","68","27","","","1","27","training","adjacent","GF","7","6","R.jpg","Q.jpg","0","0","1","",""
"","feedback","","html-keyboard-response","186","337637","0.0-1.0-249.0-0.0","0","0","62359","","null","","","null","27","","","","","","","","","","","","","","","",""
"","ITI","","html-keyboard-response","187","338642","0.0-1.0-252.0","0","0","62359","","null","","","null","27","","","","","","","","","","","","","","","NaN",""
"","S1","","html-keyboard-response","188","338897","0.0-1.0-254.0","0","0","62359","","null","","","null","28","","","","","","","","","","","","","","","",""
"","ISI","","html-keyboard-response","189","340905","0.0-1.0-255.0","0","0","62359","","null","","","null","28","NaN","","","","","","","","","","","","","","",""
"","S2","","html-keyboard-response","190","341169","0.0-1.0-256.0","0","0","62359","","null","","","null","28","","NaN","","","","","","","","","","","","","",""
"","response","","html-keyboard-response","191","341862","0.0-1.0-257.0-0.0","0","0","62359","","689","","","68","28","","","1","28","training","adjacent","CD","3","4","L.jpg","N.jpg","0","1","0","",""
"","feedback","","html-keyboard-response","192","342872","0.0-1.0-258.0-0.0","0","0","62359","","null","","","null","28","","","","","","","","","","","","","","","",""
"","time_out","","html-keyboard-response","193","344883","0.0-1.0-260.0-0.0","0","0","62359","","null","","","null","28","","","","","","","","","","","","","","","",""
"","ITI","","html-keyboard-response","194","345888","0.0-1.0-261.0","0","0","62359","","null","","","null","28","","","","","","","","","","","","","","","NaN",""
"","S1","","html-keyboard-response","195","346144","0.0-1.0-263.0","0","0","62359","","null","","","null","29","","","","","","","","","","","","","","","",""
"","ISI","","html-keyboard-response","196","348152","0.0-1.0-264.0","0","0","62359","","null","","","null","29","NaN","","","","","","","","","","","","","","",""
"","S2","","html-keyboard-response","197","348415","0.0-1.0-265.0","0","0","62359","","null","","","null","29","","NaN","","","","","","","","","","","","","",""
"","response","","html-keyboard-response","198","348949","0.0-1.0-266.0-0.0","0","0","62359","","530","","","75","29","","","1","29","training","adjacent","BC","2","3","P.jpg","L.jpg","1","1","1","",""
"","feedback","","html-keyboard-response","199","349954","0.0-1.0-267.0-0.0","0","0","62359","","null","","","null","29","","","","","","","","","","","","","","","",""
"","ITI","","html-keyboard-response","200","350962","0.0-1.0-270.0","0","0","62359","","null","","","null","29","","","","","","","","","","","","","","","NaN",""
"","S1","","html-keyboard-response","201","351217","0.0-1.0-272.0","0","0","62359","","null","","","null","30","","","","","","","","","","","","","","","",""
"","ISI","","html-keyboard-response","202","353225","0.0-1.0-273.0","0","0","62359","","null","","","null","30","NaN","","","","","","","","","","","","","","",""
"","S2","","html-keyboard-response","203","353493","0.0-1.0-274.0","0","0","62359","","null","","","null","30","","NaN","","","","","","","","","","","","","",""
"","response","","html-keyboard-response","204","354174","0.0-1.0-275.0-0.0","0","0","62359","","678","","","75","30","","","1","30","training","adjacent","EF","5","6","M.jpg","Q.jpg","1","1","1","",""
"","feedback","","html-keyboard-response","205","355179","0.0-1.0-276.0-0.0","0","0","62359","","null","","","null","30","","","","","","","","","","","","","","","",""
"","ITI","","html-keyboard-response","206","356184","0.0-1.0-279.0","0","0","62359","","null","","","null","30","","","","","","","","","","","","","","","NaN",""
"","S1","","html-keyboard-response","207","356443","0.0-1.0-281.0","0","0","62359","","null","","","null","31","","","","","","","","","","","","","","","",""
"","ISI","","html-keyboard-response","208","358446","0.0-1.0-282.0","0","0","62359","","null","","","null","31","NaN","","","","","","","","","","","","","","",""
"","S2","","html-keyboard-response","209","358705","0.0-1.0-283.0","0","0","62359","","null","","","null","31","","NaN","","","","","","","","","","","","","",""
"","response","","html-keyboard-response","210","359640","0.0-1.0-284.0-0.0","0","0","62359","","932","","","68","31","","","1","31","training","adjacent","BC","2","3","P.jpg","L.jpg","0","1","0","",""
"","feedback","","html-keyboard-response","211","360645","0.0-1.0-285.0-0.0","0","0","62359","","null","","","null","31","","","","","","","","","","","","","","","",""
"","time_out","","html-keyboard-response","212","362654","0.0-1.0-287.0-0.0","0","0","62359","","null","","","null","31","","","","","","","","","","","","","","","",""
"","ITI","","html-keyboard-response","213","363661","0.0-1.0-288.0","0","0","62359","","null","","","null","31","","","","","","","","","","","","","","","NaN",""
"","S1","","html-keyboard-response","214","363917","0.0-1.0-290.0","0","0","62359","","null","","","null","32","","","","","","","","","","","","","","","",""
"","ISI","","html-keyboard-response","215","365924","0.0-1.0-291.0","0","0","62359","","null","","","null","32","NaN","","","","","","","","","","","","","","",""
"","S2","","html-keyboard-response","216","366180","0.0-1.0-292.0","0","0","62359","","null","","","null","32","","NaN","","","","","","","","","","","","","",""
"","response","","html-keyboard-response","217","366618","0.0-1.0-293.0-0.0","0","0","62359","","434","","","68","32","","","1","32","training","adjacent","CD","3","4","L.jpg","N.jpg","0","1","0","",""
"","feedback","","html-keyboard-response","218","367626","0.0-1.0-294.0-0.0","0","0","62359","","null","","","null","32","","","","","","","","","","","","","","","",""
"","time_out","","html-keyboard-response","219","369638","0.0-1.0-296.0-0.0","0","0","62359","","null","","","null","32","","","","","","","","","","","","","","","",""
"","ITI","","html-keyboard-response","220","370644","0.0-1.0-297.0","0","0","62359","","null","","","null","32","","","","","","","","","","","","","","","NaN",""
"","S1","","html-keyboard-response","221","370900","0.0-1.0-299.0","0","0","62359","","null","","","null","33","","","","","","","","","","","","","","","",""
"","ISI","","html-keyboard-response","222","372905","0.0-1.0-300.0","0","0","62359","","null","","","null","33","NaN","","","","","","","","","","","","","","",""
"","S2","","html-keyboard-response","223","373160","0.0-1.0-301.0","0","0","62359","","null","","","null","33","","NaN","","","","","","","","","","","","","",""
"","response","","html-keyboard-response","224","374190","0.0-1.0-302.0-0.0","0","0","62359","","1028","","","68","33","","","1","33","training","adjacent","CB","3","2","L.jpg","P.jpg","0","0","1","",""
"","feedback","","html-keyboard-response","225","375197","0.0-1.0-303.0-0.0","0","0","62359","","null","","","null","33","","","","","","","","","","","","","","","",""
"","ITI","","html-keyboard-response","226","376207","0.0-1.0-306.0","0","0","62359","","null","","","null","33","","","","","","","","","","","","","","","NaN",""
"","S1","","html-keyboard-response","227","376465","0.0-1.0-308.0","0","0","62359","","null","","","null","34","","","","","","","","","","","","","","","",""
"","ISI","","html-keyboard-response","228","378473","0.0-1.0-309.0","0","0","62359","","null","","","null","34","NaN","","","","","","","","","","","","","","",""
"","S2","","html-keyboard-response","229","378739","0.0-1.0-310.0","0","0","62359","","null","","","null","34","","NaN","","","","","","","","","","","","","",""
"","response","","html-keyboard-response","230","379170","0.0-1.0-311.0-0.0","0","0","62359","","427","","","75","34","","","1","34","training","adjacent","AB","1","2","O.jpg","P.jpg","1","1","1","",""
"","feedback","","html-keyboard-response","231","380179","0.0-1.0-312.0-0.0","0","0","62359","","null","","","null","34","","","","","","","","","","","","","","","",""
"","ITI","","html-keyboard-response","232","381187","0.0-1.0-315.0","0","0","62359","","null","","","null","34","","","","","","","","","","","","","","","NaN",""
"","S1","","html-keyboard-response","233","381457","0.0-1.0-317.0","0","0","62359","","null","","","null","35","","","","","","","","","","","","","","","",""
"","ISI","","html-keyboard-response","234","383461","0.0-1.0-318.0","0","0","62359","","null","","","null","35","NaN","","","","","","","","","","","","","","",""
"","S2","","html-keyboard-response","235","383718","0.0-1.0-319.0","0","0","62359","","null","","","null","35","","NaN","","","","","","","","","","","","","",""
"","response","","html-keyboard-response","236","384122","0.0-1.0-320.0-0.0","0","0","62359","","401","","","75","35","","","1","35","training","adjacent","DC","4","3","N.jpg","L.jpg","1","0","0","",""
"","feedback","","html-keyboard-response","237","385130","0.0-1.0-321.0-0.0","0","0","62359","","null","","","null","35","","","","","","","","","","","","","","","",""
"","time_out","","html-keyboard-response","238","387136","0.0-1.0-323.0-0.0","0","0","62359","","null","","","null","35","","","","","","","","","","","","","","","",""
"","ITI","","html-keyboard-response","239","388144","0.0-1.0-324.0","0","0","62359","","null","","","null","35","","","","","","","","","","","","","","","NaN",""
"","S1","","html-keyboard-response","240","388401","0.0-1.0-326.0","0","0","62359","","null","","","null","36","","","","","","","","","","","","","","","",""
"","ISI","","html-keyboard-response","241","390414","0.0-1.0-327.0","0","0","62359","","null","","","null","36","NaN","","","","","","","","","","","","","","",""
"","S2","","html-keyboard-response","242","390670","0.0-1.0-328.0","0","0","62359","","null","","","null","36","","NaN","","","","","","","","","","","","","",""
"","response","","html-keyboard-response","243","391057","0.0-1.0-329.0-0.0","0","0","62359","","384","","","75","36","","","1","36","training","adjacent","BC","2","3","P.jpg","L.jpg","1","1","1","",""
"","feedback","","html-keyboard-response","244","392066","0.0-1.0-330.0-0.0","0","0","62359","","null","","","null","36","","","","","","","","","","","","","","","",""
"","ITI","","html-keyboard-response","245","393075","0.0-1.0-333.0","0","0","62359","","null","","","null","36","","","","","","","","","","","","","","","NaN",""
"","S1","","html-keyboard-response","246","393330","0.0-1.0-335.0","0","0","62359","","null","","","null","37","","","","","","","","","","","","","","","",""
"","ISI","","html-keyboard-response","247","395333","0.0-1.0-336.0","0","0","62359","","null","","","null","37","NaN","","","","","","","","","","","","","","",""
"","S2","","html-keyboard-response","248","395590","0.0-1.0-337.0","0","0","62359","","null","","","null","37","","NaN","","","","","","","","","","","","","",""
"","response","","html-keyboard-response","249","396620","0.0-1.0-338.0-0.0","0","0","62359","","1027","","","75","37","","","1","37","training","adjacent","FG","6","7","Q.jpg","R.jpg","1","1","1","",""
"","feedback","","html-keyboard-response","250","397630","0.0-1.0-339.0-0.0","0","0","62359","","null","","","null","37","","","","","","","","","","","","","","","",""
"","ITI","","html-keyboard-response","251","398637","0.0-1.0-342.0","0","0","62359","","null","","","null","37","","","","","","","","","","","","","","","NaN",""
"","S1","","html-keyboard-response","252","398895","0.0-1.0-344.0","0","0","62359","","null","","","null","38","","","","","","","","","","","","","","","",""
"","ISI","","html-keyboard-response","253","400906","0.0-1.0-345.0","0","0","62359","","null","","","null","38","NaN","","","","","","","","","","","","","","",""
"","S2","","html-keyboard-response","254","401164","0.0-1.0-346.0","0","0","62359","","null","","","null","38","","NaN","","","","","","","","","","","","","",""
"","response","","html-keyboard-response","255","402121","0.0-1.0-347.0-0.0","0","0","62359","","954","","","68","38","","","1","38","training","adjacent","DC","4","3","N.jpg","L.jpg","0","0","1","",""
"","feedback","","html-keyboard-response","256","403128","0.0-1.0-348.0-0.0","0","0","62359","","null","","","null","38","","","","","","","","","","","","","","","",""
"","ITI","","html-keyboard-response","257","404140","0.0-1.0-351.0","0","0","62359","","null","","","null","38","","","","","","","","","","","","","","","NaN",""
"","S1","","html-keyboard-response","258","404397","0.0-1.0-353.0","0","0","62359","","null","","","null","39","","","","","","","","","","","","","","","",""
"","ISI","","html-keyboard-response","259","406415","0.0-1.0-354.0","0","0","62359","","null","","","null","39","NaN","","","","","","","","","","","","","","",""
"","S2","","html-keyboard-response","260","406678","0.0-1.0-355.0","0","0","62359","","null","","","null","39","","NaN","","","","","","","","","","","","","",""
"","response","","html-keyboard-response","261","407821","0.0-1.0-356.0-0.0","0","0","62359","","1139","","","75","39","","","1","39","training","adjacent","AB","1","2","O.jpg","P.jpg","1","1","1","",""
"","feedback","","html-keyboard-response","262","408837","0.0-1.0-357.0-0.0","0","0","62359","","null","","","null","39","","","","","","","","","","","","","","","",""
"","ITI","","html-keyboard-response","263","409847","0.0-1.0-360.0","0","0","62359","","null","","","null","39","","","","","","","","","","","","","","","NaN",""
"","S1","","html-keyboard-response","264","410106","0.0-1.0-362.0","0","0","62359","","null","","","null","40","","","","","","","","","","","","","","","",""
"","ISI","","html-keyboard-response","265","412115","0.0-1.0-363.0","0","0","62359","","null","","","null","40","NaN","","","","","","","","","","","","","","",""
"","S2","","html-keyboard-response","266","412372","0.0-1.0-364.0","0","0","62359","","null","","","null","40","","NaN","","","","","","","","","","","","","",""
"","response","","html-keyboard-response","267","413642","0.0-1.0-365.0-0.0","0","0","62359","","1266","","","68","40","","","1","40","training","adjacent","CB","3","2","L.jpg","P.jpg","0","0","1","",""
"","feedback","","html-keyboard-response","268","414653","0.0-1.0-366.0-0.0","0","0","62359","","null","","","null","40","","","","","","","","","","","","","","","",""
"","ITI","","html-keyboard-response","269","415661","0.0-1.0-369.0","0","0","62359","","null","","","null","40","","","","","","","","","","","","","","","NaN",""
"","S1","","html-keyboard-response","270","415917","0.0-1.0-371.0","0","0","62359","","null","","","null","41","","","","","","","","","","","","","","","",""
"","ISI","","html-keyboard-response","271","417935","0.0-1.0-372.0","0","0","62359","","null","","","null","41","NaN","","","","","","","","","","","","","","",""
"","S2","","html-keyboard-response","272","418193","0.0-1.0-373.0","0","0","62359","","null","","","null","41","","NaN","","","","","","","","","","","","","",""
"","response","","html-keyboard-response","273","419296","0.0-1.0-374.0-0.0","0","0","62359","","1100","","","68","41","","","1","41","training","adjacent","GF","7","6","R.jpg","Q.jpg","0","0","1","",""
"","feedback","","html-keyboard-response","274","420304","0.0-1.0-375.0-0.0","0","0","62359","","null","","","null","41","","","","","","","","","","","","","","","",""
"","ITI","","html-keyboard-response","275","421309","0.0-1.0-378.0","0","0","62359","","null","","","null","41","","","","","","","","","","","","","","","NaN",""
"","S1","","html-keyboard-response","276","421564","0.0-1.0-380.0","0","0","62359","","null","","","null","42","","","","","","","","","","","","","","","",""
"","ISI","","html-keyboard-response","277","423573","0.0-1.0-381.0","0","0","62359","","null","","","null","42","NaN","","","","","","","","","","","","","","",""
"","S2","","html-keyboard-response","278","423830","0.0-1.0-382.0","0","0","62359","","null","","","null","42","","NaN","","","","","","","","","","","","","",""
"","response","","html-keyboard-response","279","424419","0.0-1.0-383.0-0.0","0","0","62359","","585","","","68","42","","","1","42","training","adjacent","BA","2","1","P.jpg","O.jpg","0","0","1","",""
"","feedback","","html-keyboard-response","280","425430","0.0-1.0-384.0-0.0","0","0","62359","","null","","","null","42","","","","","","","","","","","","","","","",""
"","ITI","","html-keyboard-response","281","426438","0.0-1.0-387.0","0","0","62359","","null","","","null","42","","","","","","","","","","","","","","","NaN",""
"","S1","","html-keyboard-response","282","426694","0.0-1.0-389.0","0","0","62359","","null","","","null","43","","","","","","","","","","","","","","","",""
"","ISI","","html-keyboard-response","283","428705","0.0-1.0-390.0","0","0","62359","","null","","","null","43","NaN","","","","","","","","","","","","","","",""
"","S2","","html-keyboard-response","284","428965","0.0-1.0-391.0","0","0","62359","","null","","","null","43","","NaN","","","","","","","","","","","","","",""
"","response","","html-keyboard-response","285","430017","0.0-1.0-392.0-0.0","0","0","62359","","1050","","","68","43","","","1","43","training","adjacent","DC","4","3","N.jpg","L.jpg","0","0","1","",""
"","feedback","","html-keyboard-response","286","431028","0.0-1.0-393.0-0.0","0","0","62359","","null","","","null","43","","","","","","","","","","","","","","","",""
"","ITI","","html-keyboard-response","287","432034","0.0-1.0-396.0","0","0","62359","","null","","","null","43","","","","","","","","","","","","","","","NaN",""
"","S1","","html-keyboard-response","288","432292","0.0-1.0-398.0","0","0","62359","","null","","","null","44","","","","","","","","","","","","","","","",""
"","ISI","","html-keyboard-response","289","434302","0.0-1.0-399.0","0","0","62359","","null","","","null","44","NaN","","","","","","","","","","","","","","",""
"","S2","","html-keyboard-response","290","434559","0.0-1.0-400.0","0","0","62359","","null","","","null","44","","NaN","","","","","","","","","","","","","",""
"","response","","html-keyboard-response","291","435286","0.0-1.0-401.0-0.0","0","0","62359","","724","","","75","44","","","1","44","training","adjacent","EF","5","6","M.jpg","Q.jpg","1","1","1","",""
"","feedback","","html-keyboard-response","292","436291","0.0-1.0-402.0-0.0","0","0","62359","","null","","","null","44","","","","","","","","","","","","","","","",""
"","ITI","","html-keyboard-response","293","437296","0.0-1.0-405.0","0","0","62359","","null","","","null","44","","","","","","","","","","","","","","","NaN",""
"","S1","","html-keyboard-response","294","437551","0.0-1.0-407.0","0","0","62359","","null","","","null","45","","","","","","","","","","","","","","","",""
"","ISI","","html-keyboard-response","295","439555","0.0-1.0-408.0","0","0","62359","","null","","","null","45","NaN","","","","","","","","","","","","","","",""
"","S2","","html-keyboard-response","296","439812","0.0-1.0-409.0","0","0","62359","","null","","","null","45","","NaN","","","","","","","","","","","","","",""
"","response","","html-keyboard-response","297","441220","0.0-1.0-410.0-0.0","0","0","62359","","1404","","","68","45","","","1","45","training","adjacent","DE","4","5","N.jpg","M.jpg","0","1","0","",""
"","feedback","","html-keyboard-response","298","442230","0.0-1.0-411.0-0.0","0","0","62359","","null","","","null","45","","","","","","","","","","","","","","","",""
"","time_out","","html-keyboard-response","299","444239","0.0-1.0-413.0-0.0","0","0","62359","","null","","","null","45","","","","","","","","","","","","","","","",""
"","ITI","","html-keyboard-response","300","445245","0.0-1.0-414.0","0","0","62359","","null","","","null","45","","","","","","","","","","","","","","","NaN",""
"","S1","","html-keyboard-response","301","445505","0.0-1.0-416.0","0","0","62359","","null","","","null","46","","","","","","","","","","","","","","","",""
"","ISI","","html-keyboard-response","302","447516","0.0-1.0-417.0","0","0","62359","","null","","","null","46","NaN","","","","","","","","","","","","","","",""
"","S2","","html-keyboard-response","303","447772","0.0-1.0-418.0","0","0","62359","","null","","","null","46","","NaN","","","","","","","","","","","","","",""
"","response","","html-keyboard-response","304","448078","0.0-1.0-419.0-0.0","0","0","62359","","301","","","68","46","","","1","46","training","adjacent","FG","6","7","Q.jpg","R.jpg","0","1","0","",""
"","feedback","","html-keyboard-response","305","449082","0.0-1.0-420.0-0.0","0","0","62359","","null","","","null","46","","","","","","","","","","","","","","","",""
"","time_out","","html-keyboard-response","306","451088","0.0-1.0-422.0-0.0","0","0","62359","","null","","","null","46","","","","","","","","","","","","","","","",""
"","ITI","","html-keyboard-response","307","452092","0.0-1.0-423.0","0","0","62359","","null","","","null","46","","","","","","","","","","","","","","","NaN",""
"","S1","","html-keyboard-response","308","452347","0.0-1.0-425.0","0","0","62359","","null","","","null","47","","","","","","","","","","","","","","","",""
"","ISI","","html-keyboard-response","309","454358","0.0-1.0-426.0","0","0","62359","","null","","","null","47","NaN","","","","","","","","","","","","","","",""
"","S2","","html-keyboard-response","310","454623","0.0-1.0-427.0","0","0","62359","","null","","","null","47","","NaN","","","","","","","","","","","","","",""
"","response","","html-keyboard-response","311","454990","0.0-1.0-428.0-0.0","0","0","62359","","364","","","68","47","","","1","47","training","adjacent","FE","6","5","Q.jpg","M.jpg","0","0","1","",""
"","feedback","","html-keyboard-response","312","455999","0.0-1.0-429.0-0.0","0","0","62359","","null","","","null","47","","","","","","","","","","","","","","","",""
"","ITI","","html-keyboard-response","313","457008","0.0-1.0-432.0","0","0","62359","","null","","","null","47","","","","","","","","","","","","","","","NaN",""
"","block_over","","html-keyboard-response","314","469131","0.0-1.0-433.0-0.0","0","0","62359","","12119","","","32","47","","","","","","","","","","","","","","","",""
"","S1","","html-keyboard-response","315","469392","0.0-1.0-434.0","0","0","62359","","null","","","null","48","","","","","","","","","","","","","","","",""
"","ISI","","html-keyboard-response","316","471402","0.0-1.0-435.0","0","0","62359","","null","","","null","48","NaN","","","","","","","","","","","","","","",""
"","S2","","html-keyboard-response","317","471659","0.0-1.0-436.0","0","0","62359","","null","","","null","48","","NaN","","","","","","","","","","","","","",""
"","response","","html-keyboard-response","318","472262","0.0-1.0-437.0-0.0","0","0","62359","","599","","","68","48","","","2","48","training","adjacent","AB","1","2","O.jpg","P.jpg","0","1","0","",""
"","feedback","","html-keyboard-response","319","473270","0.0-1.0-438.0-0.0","0","0","62359","","null","","","null","48","","","","","","","","","","","","","","","",""
"","time_out","","html-keyboard-response","320","475281","0.0-1.0-440.0-0.0","0","0","62359","","null","","","null","48","","","","","","","","","","","","","","","",""
"","ITI","","html-keyboard-response","321","476290","0.0-1.0-441.0","0","0","62359","","null","","","null","48","","","","","","","","","","","","","","","NaN",""
"","S1","","html-keyboard-response","322","476551","0.0-1.0-443.0","0","0","62359","","null","","","null","49","","","","","","","","","","","","","","","",""
"","ISI","","html-keyboard-response","323","478557","0.0-1.0-444.0","0","0","62359","","null","","","null","49","NaN","","","","","","","","","","","","","","",""
"","S2","","html-keyboard-response","324","478812","0.0-1.0-445.0","0","0","62359","","null","","","null","49","","NaN","","","","","","","","","","","","","",""
"","response","","html-keyboard-response","325","479226","0.0-1.0-446.0-0.0","0","0","62359","","410","","","68","49","","","2","49","training","adjacent","FG","6","7","Q.jpg","R.jpg","0","1","0","",""
"","feedback","","html-keyboard-response","326","480230","0.0-1.0-447.0-0.0","0","0","62359","","null","","","null","49","","","","","","","","","","","","","","","",""
"","time_out","","html-keyboard-response","327","482237","0.0-1.0-449.0-0.0","0","0","62359","","null","","","null","49","","","","","","","","","","","","","","","",""
"","ITI","","html-keyboard-response","328","483248","0.0-1.0-450.0","0","0","62359","","null","","","null","49","","","","","","","","","","","","","","","NaN",""
"","S1","","html-keyboard-response","329","483506","0.0-1.0-452.0","0","0","62359","","null","","","null","50","","","","","","","","","","","","","","","",""
"","ISI","","html-keyboard-response","330","485512","0.0-1.0-453.0","0","0","62359","","null","","","null","50","NaN","","","","","","","","","","","","","","",""
"","S2","","html-keyboard-response","331","485775","0.0-1.0-454.0","0","0","62359","","null","","","null","50","","NaN","","","","","","","","","","","","","",""
"","response","","html-keyboard-response","332","486920","0.0-1.0-455.0-0.0","0","0","62359","","1141","","","68","50","","","2","50","training","adjacent","DE","4","5","N.jpg","M.jpg","0","1","0","",""
"","feedback","","html-keyboard-response","333","487931","0.0-1.0-456.0-0.0","0","0","62359","","null","","","null","50","","","","","","","","","","","","","","","",""
"","time_out","","html-keyboard-response","334","489942","0.0-1.0-458.0-0.0","0","0","62359","","null","","","null","50","","","","","","","","","","","","","","","",""
"","ITI","","html-keyboard-response","335","490953","0.0-1.0-459.0","0","0","62359","","null","","","null","50","","","","","","","","","","","","","","","NaN",""
"","S1","","html-keyboard-response","336","491210","0.0-1.0-461.0","0","0","62359","","null","","","null","51","","","","","","","","","","","","","","","",""
"","ISI","","html-keyboard-response","337","493225","0.0-1.0-462.0","0","0","62359","","null","","","null","51","NaN","","","","","","","","","","","","","","",""
"","S2","","html-keyboard-response","338","493482","0.0-1.0-463.0","0","0","62359","","null","","","null","51","","NaN","","","","","","","","","","","","","",""
"","response","","html-keyboard-response","339","494742","0.0-1.0-464.0-0.0","0","0","62359","","1256","","","68","51","","","2","51","training","adjacent","ED","5","4","M.jpg","N.jpg","0","0","1","",""
"","feedback","","html-keyboard-response","340","495750","0.0-1.0-465.0-0.0","0","0","62359","","null","","","null","51","","","","","","","","","","","","","","","",""
"","ITI","","html-keyboard-response","341","496756","0.0-1.0-468.0","0","0","62359","","null","","","null","51","","","","","","","","","","","","","","","NaN",""
"","S1","","html-keyboard-response","342","497011","0.0-1.0-470.0","0","0","62359","","null","","","null","52","","","","","","","","","","","","","","","",""
"","ISI","","html-keyboard-response","343","499020","0.0-1.0-471.0","0","0","62359","","null","","","null","52","NaN","","","","","","","","","","","","","","",""
"","S2","","html-keyboard-response","344","499276","0.0-1.0-472.0","0","0","62359","","null","","","null","52","","NaN","","","","","","","","","","","","","",""
"","response","","html-keyboard-response","345","500916","0.0-1.0-473.0-0.0","0","0","62359","","1636","","","68","52","","","2","52","training","adjacent","CD","3","4","L.jpg","N.jpg","0","1","0","",""
"","feedback","","html-keyboard-response","346","501925","0.0-1.0-474.0-0.0","0","0","62359","","null","","","null","52","","","","","","","","","","","","","","","",""
"","time_out","","html-keyboard-response","347","503932","0.0-1.0-476.0-0.0","0","0","62359","","null","","","null","52","","","","","","","","","","","","","","","",""
"","ITI","","html-keyboard-response","348","504941","0.0-1.0-477.0","0","0","62359","","null","","","null","52","","","","","","","","","","","","","","","NaN",""
"","S1","","html-keyboard-response","349","505195","0.0-1.0-479.0","0","0","62359","","null","","","null","53","","","","","","","","","","","","","","","",""
"","ISI","","html-keyboard-response","350","507204","0.0-1.0-480.0","0","0","62359","","null","","","null","53","NaN","","","","","","","","","","","","","","",""
"","S2","","html-keyboard-response","351","507467","0.0-1.0-481.0","0","0","62359","","null","","","null","53","","NaN","","","","","","","","","","","","","",""
"","response","","html-keyboard-response","352","508185","0.0-1.0-482.0-0.0","0","0","62359","","713","","","75","53","","","2","53","training","adjacent","EF","5","6","M.jpg","Q.jpg","1","1","1","",""
"","feedback","","html-keyboard-response","353","509190","0.0-1.0-483.0-0.0","0","0","62359","","null","","","null","53","","","","","","","","","","","","","","","",""
"","ITI","","html-keyboard-response","354","510201","0.0-1.0-486.0","0","0","62359","","null","","","null","53","","","","","","","","","","","","","","","NaN",""
"","S1","","html-keyboard-response","355","510456","0.0-1.0-488.0","0","0","62359","","null","","","null","54","","","","","","","","","","","","","","","",""
"","ISI","","html-keyboard-response","356","512464","0.0-1.0-489.0","0","0","62359","","null","","","null","54","NaN","","","","","","","","","","","","","","",""
"","S2","","html-keyboard-response","357","512727","0.0-1.0-490.0","0","0","62359","","null","","","null","54","","NaN","","","","","","","","","","","","","",""
"","response","","html-keyboard-response","358","514379","0.0-1.0-491.0-0.0","0","0","62359","","1647","","","75","54","","","2","54","training","adjacent","FG","6","7","Q.jpg","R.jpg","1","1","1","",""
"","feedback","","html-keyboard-response","359","515390","0.0-1.0-492.0-0.0","0","0","62359","","null","","","null","54","","","","","","","","","","","","","","","",""
"","ITI","","html-keyboard-response","360","516401","0.0-1.0-495.0","0","0","62359","","null","","","null","54","","","","","","","","","","","","","","","NaN",""
"","S1","","html-keyboard-response","361","516665","0.0-1.0-497.0","0","0","62359","","null","","","null","55","","","","","","","","","","","","","","","",""
"","ISI","","html-keyboard-response","362","518674","0.0-1.0-498.0","0","0","62359","","null","","","null","55","NaN","","","","","","","","","","","","","","",""
"","S2","","html-keyboard-response","363","518937","0.0-1.0-499.0","0","0","62359","","null","","","null","55","","NaN","","","","","","","","","","","","","",""
"","response","","html-keyboard-response","364","520146","0.0-1.0-500.0-0.0","0","0","62359","","1205","","","68","55","","","2","55","training","adjacent","CD","3","4","L.jpg","N.jpg","0","1","0","",""
"","feedback","","html-keyboard-response","365","521154","0.0-1.0-501.0-0.0","0","0","62359","","null","","","null","55","","","","","","","","","","","","","","","",""
"","time_out","","html-keyboard-response","366","523162","0.0-1.0-503.0-0.0","0","0","62359","","null","","","null","55","","","","","","","","","","","","","","","",""
"","ITI","","html-keyboard-response","367","524171","0.0-1.0-504.0","0","0","62359","","null","","","null","55","","","","","","","","","","","","","","","NaN",""
"","S1","","html-keyboard-response","368","524428","0.0-1.0-506.0","0","0","62359","","null","","","null","56","","","","","","","","","","","","","","","",""
"","ISI","","html-keyboard-response","369","526437","0.0-1.0-507.0","0","0","62359","","null","","","null","56","NaN","","","","","","","","","","","","","","",""
"","S2","","html-keyboard-response","370","526696","0.0-1.0-508.0","0","0","62359","","null","","","null","56","","NaN","","","","","","","","","","","","","",""
"","response","","html-keyboard-response","371","527510","0.0-1.0-509.0-0.0","0","0","62359","","811","","","75","56","","","2","56","training","adjacent","BC","2","3","P.jpg","L.jpg","1","1","1","",""
"","feedback","","html-keyboard-response","372","528521","0.0-1.0-510.0-0.0","0","0","62359","","null","","","null","56","","","","","","","","","","","","","","","",""
"","ITI","","html-keyboard-response","373","529526","0.0-1.0-513.0","0","0","62359","","null","","","null","56","","","","","","","","","","","","","","","NaN",""
"","S1","","html-keyboard-response","374","529784","0.0-1.0-515.0","0","0","62359","","null","","","null","57","","","","","","","","","","","","","","","",""
"","ISI","","html-keyboard-response","375","531792","0.0-1.0-516.0","0","0","62359","","null","","","null","57","NaN","","","","","","","","","","","","","","",""
"","S2","","html-keyboard-response","376","532048","0.0-1.0-517.0","0","0","62359","","null","","","null","57","","NaN","","","","","","","","","","","","","",""
"","response","","html-keyboard-response","377","532483","0.0-1.0-518.0-0.0","0","0","62359","","431","","","68","57","","","2","57","training","adjacent","ED","5","4","M.jpg","N.jpg","0","0","1","",""
"","feedback","","html-keyboard-response","378","533492","0.0-1.0-519.0-0.0","0","0","62359","","null","","","null","57","","","","","","","","","","","","","","","",""
"","ITI","","html-keyboard-response","379","534497","0.0-1.0-522.0","0","0","62359","","null","","","null","57","","","","","","","","","","","","","","","NaN",""
"","S1","","html-keyboard-response","380","534753","0.0-1.0-524.0","0","0","62359","","null","","","null","58","","","","","","","","","","","","","","","",""
"","ISI","","html-keyboard-response","381","536763","0.0-1.0-525.0","0","0","62359","","null","","","null","58","NaN","","","","","","","","","","","","","","",""
"","S2","","html-keyboard-response","382","537018","0.0-1.0-526.0","0","0","62359","","null","","","null","58","","NaN","","","","","","","","","","","","","",""
"","response","","html-keyboard-response","383","538197","0.0-1.0-527.0-0.0","0","0","62359","","1175","","","68","58","","","2","58","training","adjacent","BC","2","3","P.jpg","L.jpg","0","1","0","",""
"","feedback","","html-keyboard-response","384","539204","0.0-1.0-528.0-0.0","0","0","62359","","null","","","null","58","","","","","","","","","","","","","","","",""
"","time_out","","html-keyboard-response","385","541209","0.0-1.0-530.0-0.0","0","0","62359","","null","","","null","58","","","","","","","","","","","","","","","",""
"","ITI","","html-keyboard-response","386","542214","0.0-1.0-531.0","0","0","62359","","null","","","null","58","","","","","","","","","","","","","","","NaN",""
"","S1","","html-keyboard-response","387","542479","0.0-1.0-533.0","0","0","62359","","null","","","null","59","","","","","","","","","","","","","","","",""
"","ISI","","html-keyboard-response","388","544485","0.0-1.0-534.0","0","0","62359","","null","","","null","59","NaN","","","","","","","","","","","","","","",""
"","S2","","html-keyboard-response","389","544742","0.0-1.0-535.0","0","0","62359","","null","","","null","59","","NaN","","","","","","","","","","","","","",""
"","response","","html-keyboard-response","390","545450","0.0-1.0-536.0-0.0","0","0","62359","","704","","","75","59","","","2","59","training","adjacent","DC","4","3","N.jpg","L.jpg","1","0","0","",""
"","feedback","","html-keyboard-response","391","546457","0.0-1.0-537.0-0.0","0","0","62359","","null","","","null","59","","","","","","","","","","","","","","","",""
"","time_out","","html-keyboard-response","392","548462","0.0-1.0-539.0-0.0","0","0","62359","","null","","","null","59","","","","","","","","","","","","","","","",""
"","ITI","","html-keyboard-response","393","549476","0.0-1.0-540.0","0","0","62359","","null","","","null","59","","","","","","","","","","","","","","","NaN",""
"","S1","","html-keyboard-response","394","549731","0.0-1.0-542.0","0","0","62359","","null","","","null","60","","","","","","","","","","","","","","","",""
"","ISI","","html-keyboard-response","395","551739","0.0-1.0-543.0","0","0","62359","","null","","","null","60","NaN","","","","","","","","","","","","","","",""
"","S2","","html-keyboard-response","396","551998","0.0-1.0-544.0","0","0","62359","","null","","","null","60","","NaN","","","","","","","","","","","","","",""
"","response","","html-keyboard-response","397","553145","0.0-1.0-545.0-0.0","0","0","62359","","1144","","","68","60","","","2","60","training","adjacent","FG","6","7","Q.jpg","R.jpg","0","1","0","",""
"","feedback","","html-keyboard-response","398","554150","0.0-1.0-546.0-0.0","0","0","62359","","null","","","null","60","","","","","","","","","","","","","","","",""
"","time_out","","html-keyboard-response","399","556155","0.0-1.0-548.0-0.0","0","0","62359","","null","","","null","60","","","","","","","","","","","","","","","",""
"","ITI","","html-keyboard-response","400","557164","0.0-1.0-549.0","0","0","62359","","null","","","null","60","","","","","","","","","","","","","","","NaN",""
"","S1","","html-keyboard-response","401","557420","0.0-1.0-551.0","0","0","62359","","null","","","null","61","","","","","","","","","","","","","","","",""
"","ISI","","html-keyboard-response","402","559430","0.0-1.0-552.0","0","0","62359","","null","","","null","61","NaN","","","","","","","","","","","","","","",""
"","S2","","html-keyboard-response","403","559685","0.0-1.0-553.0","0","0","62359","","null","","","null","61","","NaN","","","","","","","","","","","","","",""
"","response","","html-keyboard-response","404","561024","0.0-1.0-554.0-0.0","0","0","62359","","1334","","","68","61","","","2","61","training","adjacent","DC","4","3","N.jpg","L.jpg","0","0","1","",""
"","feedback","","html-keyboard-response","405","562033","0.0-1.0-555.0-0.0","0","0","62359","","null","","","null","61","","","","","","","","","","","","","","","",""
"","ITI","","html-keyboard-response","406","563038","0.0-1.0-558.0","0","0","62359","","null","","","null","61","","","","","","","","","","","","","","","NaN",""
"","S1","","html-keyboard-response","407","563295","0.0-1.0-560.0","0","0","62359","","null","","","null","62","","","","","","","","","","","","","","","",""
"","ISI","","html-keyboard-response","408","565306","0.0-1.0-561.0","0","0","62359","","null","","","null","62","NaN","","","","","","","","","","","","","","",""
"","S2","","html-keyboard-response","409","565569","0.0-1.0-562.0","0","0","62359","","null","","","null","62","","NaN","","","","","","","","","","","","","",""
"","response","","html-keyboard-response","410","566264","0.0-1.0-563.0-0.0","0","0","62359","","691","","","75","62","","","2","62","training","adjacent","BC","2","3","P.jpg","L.jpg","1","1","1","",""
"","feedback","","html-keyboard-response","411","567272","0.0-1.0-564.0-0.0","0","0","62359","","null","","","null","62","","","","","","","","","","","","","","","",""
"","ITI","","html-keyboard-response","412","568276","0.0-1.0-567.0","0","0","62359","","null","","","null","62","","","","","","","","","","","","","","","NaN",""
"","S1","","html-keyboard-response","413","568539","0.0-1.0-569.0","0","0","62359","","null","","","null","63","","","","","","","","","","","","","","","",""
"","ISI","","html-keyboard-response","414","570544","0.0-1.0-570.0","0","0","62359","","null","","","null","63","NaN","","","","","","","","","","","","","","",""
"","S2","","html-keyboard-response","415","570800","0.0-1.0-571.0","0","0","62359","","null","","","null","63","","NaN","","","","","","","","","","","","","",""
"","response","","html-keyboard-response","416","571675","0.0-1.0-572.0-0.0","0","0","62359","","870","","","75","63","","","2","63","training","adjacent","GF","7","6","R.jpg","Q.jpg","1","0","0","",""
"","feedback","","html-keyboard-response","417","572687","0.0-1.0-573.0-0.0","0","0","62359","","null","","","null","63","","","","","","","","","","","","","","","",""
"","time_out","","html-keyboard-response","418","574696","0.0-1.0-575.0-0.0","0","0","62359","","null","","","null","63","","","","","","","","","","","","","","","",""
"","ITI","","html-keyboard-response","419","575704","0.0-1.0-576.0","0","0","62359","","null","","","null","63","","","","","","","","","","","","","","","NaN",""
"","S1","","html-keyboard-response","420","575961","0.0-1.0-578.0","0","0","62359","","null","","","null","64","","","","","","","","","","","","","","","",""
"","ISI","","html-keyboard-response","421","577966","0.0-1.0-579.0","0","0","62359","","null","","","null","64","NaN","","","","","","","","","","","","","","",""
"","S2","","html-keyboard-response","422","578226","0.0-1.0-580.0","0","0","62359","","null","","","null","64","","NaN","","","","","","","","","","","","","",""
"","response","","html-keyboard-response","423","578769","0.0-1.0-581.0-0.0","0","0","62359","","539","","","75","64","","","2","64","training","adjacent","BA","2","1","P.jpg","O.jpg","1","0","0","",""
"","feedback","","html-keyboard-response","424","579780","0.0-1.0-582.0-0.0","0","0","62359","","null","","","null","64","","","","","","","","","","","","","","","",""
"","time_out","","html-keyboard-response","425","581785","0.0-1.0-584.0-0.0","0","0","62359","","null","","","null","64","","","","","","","","","","","","","","","",""
"","ITI","","html-keyboard-response","426","582795","0.0-1.0-585.0","0","0","62359","","null","","","null","64","","","","","","","","","","","","","","","NaN",""
"","S1","","html-keyboard-response","427","583056","0.0-1.0-587.0","0","0","62359","","null","","","null","65","","","","","","","","","","","","","","","",""
"","ISI","","html-keyboard-response","428","585063","0.0-1.0-588.0","0","0","62359","","null","","","null","65","NaN","","","","","","","","","","","","","","",""
"","S2","","html-keyboard-response","429","585323","0.0-1.0-589.0","0","0","62359","","null","","","null","65","","NaN","","","","","","","","","","","","","",""
"","response","","html-keyboard-response","430","586645","0.0-1.0-590.0-0.0","0","0","62359","","1318","","","75","65","","","2","65","training","adjacent","DE","4","5","N.jpg","M.jpg","1","1","1","",""
"","feedback","","html-keyboard-response","431","587655","0.0-1.0-591.0-0.0","0","0","62359","","null","","","null","65","","","","","","","","","","","","","","","",""
"","ITI","","html-keyboard-response","432","588667","0.0-1.0-594.0","0","0","62359","","null","","","null","65","","","","","","","","","","","","","","","NaN",""
"","S1","","html-keyboard-response","433","588924","0.0-1.0-596.0","0","0","62359","","null","","","null","66","","","","","","","","","","","","","","","",""
"","ISI","","html-keyboard-response","434","590934","0.0-1.0-597.0","0","0","62359","","null","","","null","66","NaN","","","","","","","","","","","","","","",""
"","S2","","html-keyboard-response","435","591193","0.0-1.0-598.0","0","0","62359","","null","","","null","66","","NaN","","","","","","","","","","","","","",""
"","response","","html-keyboard-response","436","592439","0.0-1.0-599.0-0.0","0","0","62359","","1242","","","68","66","","","2","66","training","adjacent","ED","5","4","M.jpg","N.jpg","0","0","1","",""
"","feedback","","html-keyboard-response","437","593452","0.0-1.0-600.0-0.0","0","0","62359","","null","","","null","66","","","","","","","","","","","","","","","",""
"","ITI","","html-keyboard-response","438","594457","0.0-1.0-603.0","0","0","62359","","null","","","null","66","","","","","","","","","","","","","","","NaN",""
"","S1","","html-keyboard-response","439","594713","0.0-1.0-605.0","0","0","62359","","null","","","null","67","","","","","","","","","","","","","","","",""
"","ISI","","html-keyboard-response","440","596724","0.0-1.0-606.0","0","0","62359","","null","","","null","67","NaN","","","","","","","","","","","","","","",""
"","S2","","html-keyboard-response","441","596987","0.0-1.0-607.0","0","0","62359","","null","","","null","67","","NaN","","","","","","","","","","","","","",""
"","response","","html-keyboard-response","442","597493","0.0-1.0-608.0-0.0","0","0","62359","","502","","","75","67","","","2","67","training","adjacent","EF","5","6","M.jpg","Q.jpg","1","1","1","",""
"","feedback","","html-keyboard-response","443","598503","0.0-1.0-609.0-0.0","0","0","62359","","null","","","null","67","","","","","","","","","","","","","","","",""
"","ITI","","html-keyboard-response","444","599508","0.0-1.0-612.0","0","0","62359","","null","","","null","67","","","","","","","","","","","","","","","NaN",""
"","S1","","html-keyboard-response","445","599765","0.0-1.0-614.0","0","0","62359","","null","","","null","68","","","","","","","","","","","","","","","",""
"","ISI","","html-keyboard-response","446","601777","0.0-1.0-615.0","0","0","62359","","null","","","null","68","NaN","","","","","","","","","","","","","","",""
"","S2","","html-keyboard-response","447","602033","0.0-1.0-616.0","0","0","62359","","null","","","null","68","","NaN","","","","","","","","","","","","","",""
"","response","","html-keyboard-response","448","602925","0.0-1.0-617.0-0.0","0","0","62359","","888","","","68","68","","","2","68","training","adjacent","GF","7","6","R.jpg","Q.jpg","0","0","1","",""
"","feedback","","html-keyboard-response","449","603934","0.0-1.0-618.0-0.0","0","0","62359","","null","","","null","68","","","","","","","","","","","","","","","",""
"","ITI","","html-keyboard-response","450","604940","0.0-1.0-621.0","0","0","62359","","null","","","null","68","","","","","","","","","","","","","","","NaN",""
"","S1","","html-keyboard-response","451","605197","0.0-1.0-623.0","0","0","62359","","null","","","null","69","","","","","","","","","","","","","","","",""
"","ISI","","html-keyboard-response","452","607205","0.0-1.0-624.0","0","0","62359","","null","","","null","69","NaN","","","","","","","","","","","","","","",""
"","S2","","html-keyboard-response","453","607466","0.0-1.0-625.0","0","0","62359","","null","","","null","69","","NaN","","","","","","","","","","","","","",""
"","response","","html-keyboard-response","454","607867","0.0-1.0-626.0-0.0","0","0","62359","","398","","","75","69","","","2","69","training","adjacent","CD","3","4","L.jpg","N.jpg","1","1","1","",""
"","feedback","","html-keyboard-response","455","608871","0.0-1.0-627.0-0.0","0","0","62359","","null","","","null","69","","","","","","","","","","","","","","","",""
"","ITI","","html-keyboard-response","456","609879","0.0-1.0-630.0","0","0","62359","","null","","","null","69","","","","","","","","","","","","","","","NaN",""
"","S1","","html-keyboard-response","457","610133","0.0-1.0-632.0","0","0","62359","","null","","","null","70","","","","","","","","","","","","","","","",""
"","ISI","","html-keyboard-response","458","612143","0.0-1.0-633.0","0","0","62359","","null","","","null","70","NaN","","","","","","","","","","","","","","",""
"","S2","","html-keyboard-response","459","612404","0.0-1.0-634.0","0","0","62359","","null","","","null","70","","NaN","","","","","","","","","","","","","",""
"","response","","html-keyboard-response","460","613040","0.0-1.0-635.0-0.0","0","0","62359","","632","","","75","70","","","2","70","training","adjacent","EF","5","6","M.jpg","Q.jpg","1","1","1","",""
"","feedback","","html-keyboard-response","461","614050","0.0-1.0-636.0-0.0","0","0","62359","","null","","","null","70","","","","","","","","","","","","","","","",""
"","ITI","","html-keyboard-response","462","615060","0.0-1.0-639.0","0","0","62359","","null","","","null","70","","","","","","","","","","","","","","","NaN",""
"","S1","","html-keyboard-response","463","615317","0.0-1.0-641.0","0","0","62359","","null","","","null","71","","","","","","","","","","","","","","","",""
"","ISI","","html-keyboard-response","464","617325","0.0-1.0-642.0","0","0","62359","","null","","","null","71","NaN","","","","","","","","","","","","","","",""
"","S2","","html-keyboard-response","465","617581","0.0-1.0-643.0","0","0","62359","","null","","","null","71","","NaN","","","","","","","","","","","","","",""
"","response","","html-keyboard-response","466","618798","0.0-1.0-644.0-0.0","0","0","62359","","1212","","","68","71","","","2","71","training","adjacent","FG","6","7","Q.jpg","R.jpg","0","1","0","",""
"","feedback","","html-keyboard-response","467","619803","0.0-1.0-645.0-0.0","0","0","62359","","null","","","null","71","","","","","","","","","","","","","","","",""
"","time_out","","html-keyboard-response","468","621807","0.0-1.0-647.0-0.0","0","0","62359","","null","","","null","71","","","","","","","","","","","","","","","",""
"","ITI","","html-keyboard-response","469","622813","0.0-1.0-648.0","0","0","62359","","null","","","null","71","","","","","","","","","","","","","","","NaN",""
"","S1","","html-keyboard-response","470","623069","0.0-1.0-650.0","0","0","62359","","null","","","null","72","","","","","","","","","","","","","","","",""
"","ISI","","html-keyboard-response","471","625073","0.0-1.0-651.0","0","0","62359","","null","","","null","72","NaN","","","","","","","","","","","","","","",""
"","S2","","html-keyboard-response","472","625331","0.0-1.0-652.0","0","0","62359","","null","","","null","72","","NaN","","","","","","","","","","","","","",""
"","response","","html-keyboard-response","473","627088","0.0-1.0-653.0-0.0","0","0","62359","","null","","","null","72","","","2","72","training","adjacent","BC","2","3","P.jpg","L.jpg","NaN","1","0","",""
"","too_slow_prompt","","html-keyboard-response","474","628099","0.0-1.0-655.0-0.0","1","0","62359","","null","","","null","","","","","","","","","","","","","","","","",""
"","time_out","","html-keyboard-response","475","630110","0.0-1.0-656.0-0.0","0","0","62359","","null","","","null","72","","","","","","","","","","","","","","","",""
"","ITI","","html-keyboard-response","476","631118","0.0-1.0-657.0","0","0","62359","","null","","","null","72","","","","","","","","","","","","","","","NaN",""
"","S1","","html-keyboard-response","477","631381","0.0-1.0-659.0","0","0","62359","","null","","","null","73","","","","","","","","","","","","","","","",""
"","ISI","","html-keyboard-response","478","633391","0.0-1.0-660.0","0","0","62359","","null","","","null","73","NaN","","","","","","","","","","","","","","",""
"","S2","","html-keyboard-response","479","633648","0.0-1.0-661.0","0","0","62359","","null","","","null","73","","NaN","","","","","","","","","","","","","",""
"","response","","html-keyboard-response","480","634086","0.0-1.0-662.0-0.0","0","0","62359","","434","","","68","73","","","2","73","training","adjacent","DC","4","3","N.jpg","L.jpg","0","0","1","",""
"","feedback","","html-keyboard-response","481","635096","0.0-1.0-663.0-0.0","0","0","62359","","null","","","null","73","","","","","","","","","","","","","","","",""
"","ITI","","html-keyboard-response","482","636100","0.0-1.0-666.0","0","0","62359","","null","","","null","73","","","","","","","","","","","","","","","NaN",""
"","S1","","html-keyboard-response","483","636353","0.0-1.0-668.0","0","0","62359","","null","","","null","74","","","","","","","","","","","","","","","",""
"","ISI","","html-keyboard-response","484","638371","0.0-1.0-669.0","0","0","62359","","null","","","null","74","NaN","","","","","","","","","","","","","","",""
"","S2","","html-keyboard-response","485","638629","0.0-1.0-670.0","0","0","62359","","null","","","null","74","","NaN","","","","","","","","","","","","","",""
"","response","","html-keyboard-response","486","638937","0.0-1.0-671.0-0.0","0","0","62359","","306","","","75","74","","","2","74","training","adjacent","AB","1","2","O.jpg","P.jpg","1","1","1","",""
"","feedback","","html-keyboard-response","487","639947","0.0-1.0-672.0-0.0","0","0","62359","","null","","","null","74","","","","","","","","","","","","","","","",""
"","ITI","","html-keyboard-response","488","640959","0.0-1.0-675.0","0","0","62359","","null","","","null","74","","","","","","","","","","","","","","","NaN",""
"","S1","","html-keyboard-response","489","641220","0.0-1.0-677.0","0","0","62359","","null","","","null","75","","","","","","","","","","","","","","","",""
"","ISI","","html-keyboard-response","490","643225","0.0-1.0-678.0","0","0","62359","","null","","","null","75","NaN","","","","","","","","","","","","","","",""
"","S2","","html-keyboard-response","491","643483","0.0-1.0-679.0","0","0","62359","","null","","","null","75","","NaN","","","","","","","","","","","","","",""
"","response","","html-keyboard-response","492","643908","0.0-1.0-680.0-0.0","0","0","62359","","422","","","75","75","","","2","75","training","adjacent","CB","3","2","L.jpg","P.jpg","1","0","0","",""
"","feedback","","html-keyboard-response","493","644916","0.0-1.0-681.0-0.0","0","0","62359","","null","","","null","75","","","","","","","","","","","","","","","",""
"","time_out","","html-keyboard-response","494","646918","0.0-1.0-683.0-0.0","0","0","62359","","null","","","null","75","","","","","","","","","","","","","","","",""
"","ITI","","html-keyboard-response","495","647935","0.0-1.0-684.0","0","0","62359","","null","","","null","75","","","","","","","","","","","","","","","NaN",""
"","S1","","html-keyboard-response","496","648193","0.0-1.0-686.0","0","0","62359","","null","","","null","76","","","","","","","","","","","","","","","",""
"","ISI","","html-keyboard-response","497","650200","0.0-1.0-687.0","0","0","62359","","null","","","null","76","NaN","","","","","","","","","","","","","","",""
"","S2","","html-keyboard-response","498","650458","0.0-1.0-688.0","0","0","62359","","null","","","null","76","","NaN","","","","","","","","","","","","","",""
"","response","","html-keyboard-response","499","650991","0.0-1.0-689.0-0.0","0","0","62359","","530","","","68","76","","","2","76","training","adjacent","GF","7","6","R.jpg","Q.jpg","0","0","1","",""
"","feedback","","html-keyboard-response","500","652003","0.0-1.0-690.0-0.0","0","0","62359","","null","","","null","76","","","","","","","","","","","","","","","",""
"","ITI","","html-keyboard-response","501","653013","0.0-1.0-693.0","0","0","62359","","null","","","null","76","","","","","","","","","","","","","","","NaN",""
"","S1","","html-keyboard-response","502","653269","0.0-1.0-695.0","0","0","62359","","null","","","null","77","","","","","","","","","","","","","","","",""
"","ISI","","html-keyboard-response","503","655279","0.0-1.0-696.0","0","0","62359","","null","","","null","77","NaN","","","","","","","","","","","","","","",""
"","S2","","html-keyboard-response","504","655541","0.0-1.0-697.0","0","0","62359","","null","","","null","77","","NaN","","","","","","","","","","","","","",""
"","response","","html-keyboard-response","505","655621","0.0-1.0-698.0-0.0","0","0","62359","","76","","","68","77","","","2","77","training","adjacent","FE","6","5","Q.jpg","M.jpg","0","0","1","",""
"","feedback","","html-keyboard-response","506","656626","0.0-1.0-699.0-0.0","0","0","62359","","null","","","null","77","","","","","","","","","","","","","","","",""
"","ITI","","html-keyboard-response","507","657635","0.0-1.0-702.0","0","0","62359","","null","","","null","77","","","","","","","","","","","","","","","NaN",""
"","S1","","html-keyboard-response","508","657890","0.0-1.0-704.0","0","0","62359","","null","","","null","78","","","","","","","","","","","","","","","",""
"","ISI","","html-keyboard-response","509","659898","0.0-1.0-705.0","0","0","62359","","null","","","null","78","NaN","","","","","","","","","","","","","","",""
"","S2","","html-keyboard-response","510","660154","0.0-1.0-706.0","0","0","62359","","null","","","null","78","","NaN","","","","","","","","","","","","","",""
"","response","","html-keyboard-response","511","660531","0.0-1.0-707.0-0.0","0","0","62359","","372","","","68","78","","","2","78","training","adjacent","BA","2","1","P.jpg","O.jpg","0","0","1","",""
"","feedback","","html-keyboard-response","512","661542","0.0-1.0-708.0-0.0","0","0","62359","","null","","","null","78","","","","","","","","","","","","","","","",""
"","ITI","","html-keyboard-response","513","662548","0.0-1.0-711.0","0","0","62359","","null","","","null","78","","","","","","","","","","","","","","","NaN",""
"","S1","","html-keyboard-response","514","662807","0.0-1.0-713.0","0","0","62359","","null","","","null","79","","","","","","","","","","","","","","","",""
"","ISI","","html-keyboard-response","515","664812","0.0-1.0-714.0","0","0","62359","","null","","","null","79","NaN","","","","","","","","","","","","","","",""
"","S2","","html-keyboard-response","516","665068","0.0-1.0-715.0","0","0","62359","","null","","","null","79","","NaN","","","","","","","","","","","","","",""
"","response","","html-keyboard-response","517","665419","0.0-1.0-716.0-0.0","0","0","62359","","347","","","68","79","","","2","79","training","adjacent","CB","3","2","L.jpg","P.jpg","0","0","1","",""
"","feedback","","html-keyboard-response","518","666431","0.0-1.0-717.0-0.0","0","0","62359","","null","","","null","79","","","","","","","","","","","","","","","",""
"","ITI","","html-keyboard-response","519","667435","0.0-1.0-720.0","0","0","62359","","null","","","null","79","","","","","","","","","","","","","","","NaN",""
"","S1","","html-keyboard-response","520","667694","0.0-1.0-722.0","0","0","62359","","null","","","null","80","","","","","","","","","","","","","","","",""
"","ISI","","html-keyboard-response","521","669705","0.0-1.0-723.0","0","0","62359","","null","","","null","80","NaN","","","","","","","","","","","","","","",""
"","S2","","html-keyboard-response","522","669967","0.0-1.0-724.0","0","0","62359","","null","","","null","80","","NaN","","","","","","","","","","","","","",""
"","response","","html-keyboard-response","523","670843","0.0-1.0-725.0-0.0","0","0","62359","","872","","","68","80","","","2","80","training","adjacent","BA","2","1","P.jpg","O.jpg","0","0","1","",""
"","feedback","","html-keyboard-response","524","671852","0.0-1.0-726.0-0.0","0","0","62359","","null","","","null","80","","","","","","","","","","","","","","","",""
"","ITI","","html-keyboard-response","525","672859","0.0-1.0-729.0","0","0","62359","","null","","","null","80","","","","","","","","","","","","","","","NaN",""
"","S1","","html-keyboard-response","526","673114","0.0-1.0-731.0","0","0","62359","","null","","","null","81","","","","","","","","","","","","","","","",""
"","ISI","","html-keyboard-response","527","675123","0.0-1.0-732.0","0","0","62359","","null","","","null","81","NaN","","","","","","","","","","","","","","",""
"","S2","","html-keyboard-response","528","675378","0.0-1.0-733.0","0","0","62359","","null","","","null","81","","NaN","","","","","","","","","","","","","",""
"","response","","html-keyboard-response","529","676041","0.0-1.0-734.0-0.0","0","0","62359","","659","","","75","81","","","2","81","training","adjacent","FE","6","5","Q.jpg","M.jpg","1","0","0","",""
"","feedback","","html-keyboard-response","530","677047","0.0-1.0-735.0-0.0","0","0","62359","","null","","","null","81","","","","","","","","","","","","","","","",""
"","time_out","","html-keyboard-response","531","679051","0.0-1.0-737.0-0.0","0","0","62359","","null","","","null","81","","","","","","","","","","","","","","","",""
"","ITI","","html-keyboard-response","532","680059","0.0-1.0-738.0","0","0","62359","","null","","","null","81","","","","","","","","","","","","","","","NaN",""
"","S1","","html-keyboard-response","533","680316","0.0-1.0-740.0","0","0","62359","","null","","","null","82","","","","","","","","","","","","","","","",""
"","ISI","","html-keyboard-response","534","682321","0.0-1.0-741.0","0","0","62359","","null","","","null","82","NaN","","","","","","","","","","","","","","",""
"","S2","","html-keyboard-response","535","682576","0.0-1.0-742.0","0","0","62359","","null","","","null","82","","NaN","","","","","","","","","","","","","",""
"","response","","html-keyboard-response","536","683637","0.0-1.0-743.0-0.0","0","0","62359","","1056","","","68","82","","","2","82","training","adjacent","FE","6","5","Q.jpg","M.jpg","0","0","1","",""
"","feedback","","html-keyboard-response","537","684648","0.0-1.0-744.0-0.0","0","0","62359","","null","","","null","82","","","","","","","","","","","","","","","",""
"","ITI","","html-keyboard-response","538","685659","0.0-1.0-747.0","0","0","62359","","null","","","null","82","","","","","","","","","","","","","","","NaN",""
"","S1","","html-keyboard-response","539","685913","0.0-1.0-749.0","0","0","62359","","null","","","null","83","","","","","","","","","","","","","","","",""
"","ISI","","html-keyboard-response","540","687919","0.0-1.0-750.0","0","0","62359","","null","","","null","83","NaN","","","","","","","","","","","","","","",""
"","S2","","html-keyboard-response","541","688175","0.0-1.0-751.0","0","0","62359","","null","","","null","83","","NaN","","","","","","","","","","","","","",""
"","response","","html-keyboard-response","542","688476","0.0-1.0-752.0-0.0","0","0","62359","","297","","","68","83","","","2","83","training","adjacent","FE","6","5","Q.jpg","M.jpg","0","0","1","",""
"","feedback","","html-keyboard-response","543","689484","0.0-1.0-753.0-0.0","0","0","62359","","null","","","null","83","","","","","","","","","","","","","","","",""
"","ITI","","html-keyboard-response","544","690495","0.0-1.0-756.0","0","0","62359","","null","","","null","83","","","","","","","","","","","","","","","NaN",""
"","S1","","html-keyboard-response","545","690752","0.0-1.0-758.0","0","0","62359","","null","","","null","84","","","","","","","","","","","","","","","",""
"","ISI","","html-keyboard-response","546","692758","0.0-1.0-759.0","0","0","62359","","null","","","null","84","NaN","","","","","","","","","","","","","","",""
"","S2","","html-keyboard-response","547","693015","0.0-1.0-760.0","0","0","62359","","null","","","null","84","","NaN","","","","","","","","","","","","","",""
"","response","","html-keyboard-response","548","693890","0.0-1.0-761.0-0.0","0","0","62359","","871","","","68","84","","","2","84","training","adjacent","GF","7","6","R.jpg","Q.jpg","0","0","1","",""
"","feedback","","html-keyboard-response","549","694894","0.0-1.0-762.0-0.0","0","0","62359","","null","","","null","84","","","","","","","","","","","","","","","",""
"","ITI","","html-keyboard-response","550","695903","0.0-1.0-765.0","0","0","62359","","null","","","null","84","","","","","","","","","","","","","","","NaN",""
"","S1","","html-keyboard-response","551","696168","0.0-1.0-767.0","0","0","62359","","null","","","null","85","","","","","","","","","","","","","","","",""
"","ISI","","html-keyboard-response","552","698179","0.0-1.0-768.0","0","0","62359","","null","","","null","85","NaN","","","","","","","","","","","","","","",""
"","S2","","html-keyboard-response","553","698434","0.0-1.0-769.0","0","0","62359","","null","","","null","85","","NaN","","","","","","","","","","","","","",""
"","response","","html-keyboard-response","554","699287","0.0-1.0-770.0-0.0","0","0","62359","","849","","","75","85","","","2","85","training","adjacent","DE","4","5","N.jpg","M.jpg","1","1","1","",""
"","feedback","","html-keyboard-response","555","700296","0.0-1.0-771.0-0.0","0","0","62359","","null","","","null","85","","","","","","","","","","","","","","","",""
"","ITI","","html-keyboard-response","556","701306","0.0-1.0-774.0","0","0","62359","","null","","","null","85","","","","","","","","","","","","","","","NaN",""
"","S1","","html-keyboard-response","557","701572","0.0-1.0-776.0","0","0","62359","","null","","","null","86","","","","","","","","","","","","","","","",""
"","ISI","","html-keyboard-response","558","703580","0.0-1.0-777.0","0","0","62359","","null","","","null","86","NaN","","","","","","","","","","","","","","",""
"","S2","","html-keyboard-response","559","703842","0.0-1.0-778.0","0","0","62359","","null","","","null","86","","NaN","","","","","","","","","","","","","",""
"","response","","html-keyboard-response","560","704411","0.0-1.0-779.0-0.0","0","0","62359","","565","","","68","86","","","2","86","training","adjacent","DC","4","3","N.jpg","L.jpg","0","0","1","",""
"","feedback","","html-keyboard-response","561","705418","0.0-1.0-780.0-0.0","0","0","62359","","null","","","null","86","","","","","","","","","","","","","","","",""
"","ITI","","html-keyboard-response","562","706425","0.0-1.0-783.0","0","0","62359","","null","","","null","86","","","","","","","","","","","","","","","NaN",""
"","S1","","html-keyboard-response","563","706682","0.0-1.0-785.0","0","0","62359","","null","","","null","87","","","","","","","","","","","","","","","",""
"","ISI","","html-keyboard-response","564","708691","0.0-1.0-786.0","0","0","62359","","null","","","null","87","NaN","","","","","","","","","","","","","","",""
"","S2","","html-keyboard-response","565","708950","0.0-1.0-787.0","0","0","62359","","null","","","null","87","","NaN","","","","","","","","","","","","","",""
"","response","","html-keyboard-response","566","709151","0.0-1.0-788.0-0.0","0","0","62359","","197","","","75","87","","","2","87","training","adjacent","AB","1","2","O.jpg","P.jpg","1","1","1","",""
"","feedback","","html-keyboard-response","567","710158","0.0-1.0-789.0-0.0","0","0","62359","","null","","","null","87","","","","","","","","","","","","","","","",""
"","ITI","","html-keyboard-response","568","711169","0.0-1.0-792.0","0","0","62359","","null","","","null","87","","","","","","","","","","","","","","","NaN",""
"","S1","","html-keyboard-response","569","711425","0.0-1.0-794.0","0","0","62359","","null","","","null","88","","","","","","","","","","","","","","","",""
"","ISI","","html-keyboard-response","570","713431","0.0-1.0-795.0","0","0","62359","","null","","","null","88","NaN","","","","","","","","","","","","","","",""
"","S2","","html-keyboard-response","571","713688","0.0-1.0-796.0","0","0","62359","","null","","","null","88","","NaN","","","","","","","","","","","","","",""
"","response","","html-keyboard-response","572","714562","0.0-1.0-797.0-0.0","0","0","62359","","870","","","68","88","","","2","88","training","adjacent","CB","3","2","L.jpg","P.jpg","0","0","1","",""
"","feedback","","html-keyboard-response","573","715570","0.0-1.0-798.0-0.0","0","0","62359","","null","","","null","88","","","","","","","","","","","","","","","",""
"","ITI","","html-keyboard-response","574","716579","0.0-1.0-801.0","0","0","62359","","null","","","null","88","","","","","","","","","","","","","","","NaN",""
"","S1","","html-keyboard-response","575","716840","0.0-1.0-803.0","0","0","62359","","null","","","null","89","","","","","","","","","","","","","","","",""
"","ISI","","html-keyboard-response","576","718845","0.0-1.0-804.0","0","0","62359","","null","","","null","89","NaN","","","","","","","","","","","","","","",""
"","S2","","html-keyboard-response","577","719101","0.0-1.0-805.0","0","0","62359","","null","","","null","89","","NaN","","","","","","","","","","","","","",""
"","response","","html-keyboard-response","578","719692","0.0-1.0-806.0-0.0","0","0","62359","","587","","","68","89","","","2","89","training","adjacent","BA","2","1","P.jpg","O.jpg","0","0","1","",""
"","feedback","","html-keyboard-response","579","720699","0.0-1.0-807.0-0.0","0","0","62359","","null","","","null","89","","","","","","","","","","","","","","","",""
"","ITI","","html-keyboard-response","580","721704","0.0-1.0-810.0","0","0","62359","","null","","","null","89","","","","","","","","","","","","","","","NaN",""
