"success","ttype","start_time","trial_type","trial_index","time_elapsed","internal_node_id","warning","missed_checkup","PID","view_history","rt","responses","repeat_instructions","key_press","index","keypress_isi","keypress_S2","block","trial_num","phase","group_type","pair_type","S1_stim","S2_stim","S1_img","S2_img","S1_chosen","S1_higher","accuracy","keypress_iti","total_bonus_tally"
"true","full_screen","d03082023hr1637","fullscreen","0","15282","0.0-0.0","0","0","72200","","","","","","","","","","","","","","","","","","","","","",""
"","instructions","","instructions","1","65519","0.0-1.0-0.0-0.0","0","0","72200","[{""page_index"":0,""viewing_time"":9458},{""page_index"":1,""viewing_time"":23576},{""page_index"":2,""viewing_time"":14656},{""page_index"":3,""viewing_time"":2540}]","50232","","","","","","","","","","","","","","","","","","","",""
"","comprehension_check","","survey-multi-choice","2","93468","0.0-1.0-0.0-1.0","0","0","72200","","27934","{""Q0"":""True"",""Q1"":""D"",""Q2"":""Once the second image appears and while the screen 'MAKE A CHOICE' is shown"",""Q3"":""Green mark"",""Q4"":""either D or K""}","0","","","","","","","","","","","","","","","","","",""
"","start_exp","","html-keyboard-response","3","95809","0.0-1.0-1.0","0","0","72200","","2334","","","32","","","","","","","","","","","","","","","","",""
"","S1","","html-keyboard-response","4","96066","0.0-1.0-2.0","0","0","72200","","null","","","null","0","","","","","","","","","","","","","","","",""
"","ISI","","html-keyboard-response","5","96226","0.0-1.0-3.0","0","0","72200","","null","","","null","0","NaN","","","","","","","","","","","","","","",""
"","S2","","html-keyboard-response","6","96482","0.0-1.0-4.0","0","0","72200","","null","","","null","0","","NaN","","","","","","","","","","","","","",""
"","response","","html-keyboard-response","7","97431","0.0-1.0-5.0-0.0","0","0","72200","","945","","","68","0","","","1","0","training","adjacent","ED","5","4","L.jpg","P.jpg","1","0","0","",""
"","feedback","","html-keyboard-response","8","98442","0.0-1.0-6.0-0.0","0","0","72200","","null","","","null","0","","","","","","","","","","","","","","","",""
"","time_out","","html-keyboard-response","9","100450","0.0-1.0-8.0-0.0","0","0","72200","","null","","","null","0","","","","","","","","","","","","","","","",""
"","ITI","","html-keyboard-response","10","101458","0.0-1.0-9.0","0","0","72200","","null","","","null","0","","","","","","","","","","","","","","","NaN",""
"","S1","","html-keyboard-response","11","101714","0.0-1.0-11.0","0","0","72200","","null","","","null","1","","","","","","","","","","","","","","","",""
"","ISI","","html-keyboard-response","12","101874","0.0-1.0-12.0","0","0","72200","","null","","","null","1","NaN","","","","","","","","","","","","","","",""
"","S2","","html-keyboard-response","13","102130","0.0-1.0-13.0","0","0","72200","","null","","","null","1","","NaN","","","","","","","","","","","","","",""
"","response","","html-keyboard-response","14","102613","0.0-1.0-14.0-0.0","0","0","72200","","478","","","75","1","","","1","1","training","adjacent","DC","4","3","P.jpg","Q.jpg","0","0","1","",""
"","feedback","","html-keyboard-response","15","103618","0.0-1.0-15.0-0.0","0","0","72200","","null","","","null","1","","","","","","","","","","","","","","","",""
"","ITI","","html-keyboard-response","16","104626","0.0-1.0-18.0","0","0","72200","","null","","","null","1","","","","","","","","","","","","","","","NaN",""
"","S1","","html-keyboard-response","17","104882","0.0-1.0-20.0","0","0","72200","","null","","","null","2","","","","","","","","","","","","","","","",""
"","ISI","","html-keyboard-response","18","105043","0.0-1.0-21.0","0","0","72200","","null","","","null","2","NaN","","","","","","","","","","","","","","",""
"","S2","","html-keyboard-response","19","105298","0.0-1.0-22.0","0","0","72200","","null","","","null","2","","NaN","","","","","","","","","","","","","",""
"","response","","html-keyboard-response","20","105662","0.0-1.0-23.0-0.0","0","0","72200","","359","","","75","2","","","1","2","training","adjacent","DC","4","3","P.jpg","Q.jpg","0","0","1","",""
"","feedback","","html-keyboard-response","21","106668","0.0-1.0-24.0-0.0","0","0","72200","","null","","","null","2","","","","","","","","","","","","","","","",""
"","ITI","","html-keyboard-response","22","107676","0.0-1.0-27.0","0","0","72200","","null","","","null","2","","","","","","","","","","","","","","","NaN",""
"","S1","","html-keyboard-response","23","107932","0.0-1.0-29.0","0","0","72200","","null","","","null","3","","","","","","","","","","","","","","","",""
"","ISI","","html-keyboard-response","24","108092","0.0-1.0-30.0","0","0","72200","","null","","","null","3","NaN","","","","","","","","","","","","","","",""
"","S2","","html-keyboard-response","25","108348","0.0-1.0-31.0","0","0","72200","","null","","","null","3","","NaN","","","","","","","","","","","","","",""
"","response","","html-keyboard-response","26","108829","0.0-1.0-32.0-0.0","0","0","72200","","478","","","68","3","","","1","3","training","adjacent","FG","6","7","O.jpg","N.jpg","1","1","1","",""
"","feedback","","html-keyboard-response","27","109836","0.0-1.0-33.0-0.0","0","0","72200","","null","","","null","3","","","","","","","","","","","","","","","",""
"","ITI","","html-keyboard-response","28","110843","0.0-1.0-36.0","0","0","72200","","null","","","null","3","","","","","","","","","","","","","","","NaN",""
"","S1","","html-keyboard-response","29","111099","0.0-1.0-38.0","0","0","72200","","null","","","null","4","","","","","","","","","","","","","","","",""
"","ISI","","html-keyboard-response","30","111259","0.0-1.0-39.0","0","0","72200","","null","","","null","4","NaN","","","","","","","","","","","","","","",""
"","S2","","html-keyboard-response","31","111515","0.0-1.0-40.0","0","0","72200","","null","","","null","4","","NaN","","","","","","","","","","","","","",""
"","response","","html-keyboard-response","32","111992","0.0-1.0-41.0-0.0","0","0","72200","","474","","","68","4","","","1","4","training","adjacent","FG","6","7","O.jpg","N.jpg","1","1","1","",""
"","feedback","","html-keyboard-response","33","113003","0.0-1.0-42.0-0.0","0","0","72200","","null","","","null","4","","","","","","","","","","","","","","","",""
"","ITI","","html-keyboard-response","34","114011","0.0-1.0-45.0","0","0","72200","","null","","","null","4","","","","","","","","","","","","","","","NaN",""
"","S1","","html-keyboard-response","35","114267","0.0-1.0-47.0","0","0","72200","","null","","","null","5","","","","","","","","","","","","","","","",""
"","ISI","","html-keyboard-response","36","114427","0.0-1.0-48.0","0","0","72200","","null","","","null","5","NaN","","","","","","","","","","","","","","",""
"","S2","","html-keyboard-response","37","114683","0.0-1.0-49.0","0","0","72200","","null","","","null","5","","NaN","","","","","","","","","","","","","",""
"","response","","html-keyboard-response","38","115098","0.0-1.0-50.0-0.0","0","0","72200","","412","","","68","5","","","1","5","training","adjacent","DE","4","5","P.jpg","L.jpg","1","1","1","",""
"","feedback","","html-keyboard-response","39","116107","0.0-1.0-51.0-0.0","0","0","72200","","null","","","null","5","","","","","","","","","","","","","","","",""
"","ITI","","html-keyboard-response","40","117115","0.0-1.0-54.0","0","0","72200","","null","","","null","5","","","","","","","","","","","","","","","NaN",""
"","S1","","html-keyboard-response","41","117371","0.0-1.0-56.0","0","0","72200","","null","","","null","6","","","","","","","","","","","","","","","",""
"","ISI","","html-keyboard-response","42","117531","0.0-1.0-57.0","0","0","72200","","null","","","null","6","NaN","","","","","","","","","","","","","","",""
"","S2","","html-keyboard-response","43","117788","0.0-1.0-58.0","0","0","72200","","null","","","null","6","","NaN","","","","","","","","","","","","","",""
"","response","","html-keyboard-response","44","118104","0.0-1.0-59.0-0.0","0","0","72200","","312","","","75","6","","","1","6","training","adjacent","FE","6","5","O.jpg","L.jpg","0","0","1","",""
"","feedback","","html-keyboard-response","45","119115","0.0-1.0-60.0-0.0","0","0","72200","","null","","","null","6","","","","","","","","","","","","","","","",""
"","ITI","","html-keyboard-response","46","120123","0.0-1.0-63.0","0","0","72200","","null","","","null","6","","","","","","","","","","","","","","","NaN",""
"","S1","","html-keyboard-response","47","120379","0.0-1.0-65.0","0","0","72200","","null","","","null","7","","","","","","","","","","","","","","","",""
"","ISI","","html-keyboard-response","48","120539","0.0-1.0-66.0","0","0","72200","","null","","","null","7","NaN","","","","","","","","","","","","","","",""
"","S2","","html-keyboard-response","49","120795","0.0-1.0-67.0","0","0","72200","","null","","","null","7","","NaN","","","","","","","","","","","","","",""
"","response","","html-keyboard-response","50","121092","0.0-1.0-68.0-0.0","0","0","72200","","294","","","75","7","","","1","7","training","adjacent","BC","2","3","R.jpg","Q.jpg","0","1","0","",""
"","feedback","","html-keyboard-response","51","122099","0.0-1.0-69.0-0.0","0","0","72200","","null","","","null","7","","","","","","","","","","","","","","","",""
"","time_out","","html-keyboard-response","52","124107","0.0-1.0-71.0-0.0","0","0","72200","","null","","","null","7","","","","","","","","","","","","","","","",""
"","ITI","","html-keyboard-response","53","125116","0.0-1.0-72.0","0","0","72200","","null","","","null","7","","","","","","","","","","","","","","","NaN",""
"","S1","","html-keyboard-response","54","125371","0.0-1.0-74.0","0","0","72200","","null","","","null","8","","","","","","","","","","","","","","","",""
"","ISI","","html-keyboard-response","55","125531","0.0-1.0-75.0","0","0","72200","","null","","","null","8","NaN","","","","","","","","","","","","","","",""
"","S2","","html-keyboard-response","56","125787","0.0-1.0-76.0","0","0","72200","","null","","","null","8","","NaN","","","","","","","","","","","","","",""
"","response","","html-keyboard-response","57","125950","0.0-1.0-77.0-0.0","0","0","72200","","159","","","68","8","","","1","8","training","adjacent","GF","7","6","N.jpg","O.jpg","1","0","0","",""
"","feedback","","html-keyboard-response","58","126956","0.0-1.0-78.0-0.0","0","0","72200","","null","","","null","8","","","","","","","","","","","","","","","",""
"","time_out","","html-keyboard-response","59","128964","0.0-1.0-80.0-0.0","0","0","72200","","null","","","null","8","","","","","","","","","","","","","","","",""
"","ITI","","html-keyboard-response","60","129972","0.0-1.0-81.0","0","0","72200","","null","","","null","8","","","","","","","","","","","","","","","NaN",""
"","S1","","html-keyboard-response","61","130228","0.0-1.0-83.0","0","0","72200","","null","","","null","9","","","","","","","","","","","","","","","",""
"","ISI","","html-keyboard-response","62","130388","0.0-1.0-84.0","0","0","72200","","null","","","null","9","NaN","","","","","","","","","","","","","","",""
"","S2","","html-keyboard-response","63","130644","0.0-1.0-85.0","0","0","72200","","null","","","null","9","","NaN","","","","","","","","","","","","","",""
"","response","","html-keyboard-response","64","130808","0.0-1.0-86.0-0.0","0","0","72200","","161","","","68","9","","","1","9","training","adjacent","CB","3","2","Q.jpg","R.jpg","1","0","0","",""
"","feedback","","html-keyboard-response","65","131820","0.0-1.0-87.0-0.0","0","0","72200","","null","","","null","9","","","","","","","","","","","","","","","",""
"","time_out","","html-keyboard-response","66","133827","0.0-1.0-89.0-0.0","0","0","72200","","null","","","null","9","","","","","","","","","","","","","","","",""
"","ITI","","html-keyboard-response","67","134835","0.0-1.0-90.0","0","0","72200","","null","","","null","9","","","","","","","","","","","","","","","NaN",""
"","S1","","html-keyboard-response","68","135091","0.0-1.0-92.0","0","0","72200","","null","","","null","10","","","","","","","","","","","","","","","",""
"","ISI","","html-keyboard-response","69","135251","0.0-1.0-93.0","0","0","72200","","null","","","null","10","NaN","","","","","","","","","","","","","","",""
"","S2","","html-keyboard-response","70","135507","0.0-1.0-94.0","0","0","72200","","null","","","null","10","","NaN","","","","","","","","","","","","","",""
"","response","","html-keyboard-response","71","135812","0.0-1.0-95.0-0.0","0","0","72200","","302","","","75","10","","","1","10","training","adjacent","FE","6","5","O.jpg","L.jpg","0","0","1","",""
"","feedback","","html-keyboard-response","72","136819","0.0-1.0-96.0-0.0","0","0","72200","","null","","","null","10","","","","","","","","","","","","","","","",""
"","ITI","","html-keyboard-response","73","137827","0.0-1.0-99.0","0","0","72200","","null","","","null","10","","","","","","","","","","","","","","","NaN",""
"","S1","","html-keyboard-response","74","138083","0.0-1.0-101.0","0","0","72200","","null","","","null","11","","","","","","","","","","","","","","","",""
"","ISI","","html-keyboard-response","75","138243","0.0-1.0-102.0","0","0","72200","","null","","","null","11","NaN","","","","","","","","","","","","","","",""
"","S2","","html-keyboard-response","76","138499","0.0-1.0-103.0","0","0","72200","","null","","","null","11","","NaN","","","","","","","","","","","","","",""
"","response","","html-keyboard-response","77","138772","0.0-1.0-104.0-0.0","0","0","72200","","269","","","68","11","","","1","11","training","adjacent","BC","2","3","R.jpg","Q.jpg","1","1","1","",""
"","feedback","","html-keyboard-response","78","139779","0.0-1.0-105.0-0.0","0","0","72200","","null","","","null","11","","","","","","","","","","","","","","","",""
"","ITI","","html-keyboard-response","79","140787","0.0-1.0-108.0","0","0","72200","","null","","","null","11","","","","","","","","","","","","","","","NaN",""
"","S1","","html-keyboard-response","80","141043","0.0-1.0-110.0","0","0","72200","","null","","","null","12","","","","","","","","","","","","","","","",""
"","ISI","","html-keyboard-response","81","141203","0.0-1.0-111.0","0","0","72200","","null","","","null","12","NaN","","","","","","","","","","","","","","",""
"","S2","","html-keyboard-response","82","141460","0.0-1.0-112.0","0","0","72200","","null","","","null","12","","NaN","","","","","","","","","","","","","",""
"","response","","html-keyboard-response","83","141685","0.0-1.0-113.0-0.0","0","0","72200","","221","","","75","12","","","1","12","training","adjacent","FG","6","7","O.jpg","N.jpg","0","1","0","",""
"","feedback","","html-keyboard-response","84","142691","0.0-1.0-114.0-0.0","0","0","72200","","null","","","null","12","","","","","","","","","","","","","","","",""
"","time_out","","html-keyboard-response","85","144699","0.0-1.0-116.0-0.0","0","0","72200","","null","","","null","12","","","","","","","","","","","","","","","",""
"","ITI","","html-keyboard-response","86","145708","0.0-1.0-117.0","0","0","72200","","null","","","null","12","","","","","","","","","","","","","","","NaN",""
"","S1","","html-keyboard-response","87","145964","0.0-1.0-119.0","0","0","72200","","null","","","null","13","","","","","","","","","","","","","","","",""
"","ISI","","html-keyboard-response","88","146123","0.0-1.0-120.0","0","0","72200","","null","","","null","13","NaN","","","","","","","","","","","","","","",""
"","S2","","html-keyboard-response","89","146379","0.0-1.0-121.0","0","0","72200","","null","","","null","13","","NaN","","","","","","","","","","","","","",""
"","response","","html-keyboard-response","90","146606","0.0-1.0-122.0-0.0","0","0","72200","","224","","","68","13","","","1","13","training","adjacent","BA","2","1","R.jpg","M.jpg","1","0","0","",""
"","feedback","","html-keyboard-response","91","147612","0.0-1.0-123.0-0.0","0","0","72200","","null","","","null","13","","","","","","","","","","","","","","","",""
"","time_out","","html-keyboard-response","92","149620","0.0-1.0-125.0-0.0","0","0","72200","","null","","","null","13","","","","","","","","","","","","","","","",""
"","ITI","","html-keyboard-response","93","150628","0.0-1.0-126.0","0","0","72200","","null","","","null","13","","","","","","","","","","","","","","","NaN",""
"","S1","","html-keyboard-response","94","150884","0.0-1.0-128.0","0","0","72200","","null","","","null","14","","","","","","","","","","","","","","","",""
"","ISI","","html-keyboard-response","95","151044","0.0-1.0-129.0","0","0","72200","","null","","","null","14","NaN","","","","","","","","","","","","","","",""
"","S2","","html-keyboard-response","96","151300","0.0-1.0-130.0","0","0","72200","","null","","","null","14","","NaN","","","","","","","","","","","","","",""
"","response","","html-keyboard-response","97","151450","0.0-1.0-131.0-0.0","0","0","72200","","147","","","75","14","","","1","14","training","adjacent","CB","3","2","Q.jpg","R.jpg","0","0","1","",""
"","feedback","","html-keyboard-response","98","152460","0.0-1.0-132.0-0.0","0","0","72200","","null","","","null","14","","","","","","","","","","","","","","","",""
"","ITI","","html-keyboard-response","99","153468","0.0-1.0-135.0","0","0","72200","","null","","","null","14","","","","","","","","","","","","","","","NaN",""
"","S1","","html-keyboard-response","100","153724","0.0-1.0-137.0","0","0","72200","","null","","","null","15","","","","","","","","","","","","","","","",""
"","ISI","","html-keyboard-response","101","153884","0.0-1.0-138.0","0","0","72200","","null","","","null","15","NaN","","","","","","","","","","","","","","",""
"","S2","","html-keyboard-response","102","154140","0.0-1.0-139.0","0","0","72200","","null","","","null","15","","NaN","","","","","","","","","","","","","",""
"","response","","html-keyboard-response","103","154404","0.0-1.0-140.0-0.0","0","0","72200","","261","","","68","15","","","1","15","training","adjacent","BA","2","1","R.jpg","M.jpg","1","0","0","",""
"","feedback","","html-keyboard-response","104","155412","0.0-1.0-141.0-0.0","0","0","72200","","null","","","null","15","","","","","","","","","","","","","","","",""
"","time_out","","html-keyboard-response","105","157419","0.0-1.0-143.0-0.0","0","0","72200","","null","","","null","15","","","","","","","","","","","","","","","",""
"","ITI","","html-keyboard-response","106","158427","0.0-1.0-144.0","0","0","72200","","null","","","null","15","","","","","","","","","","","","","","","NaN",""
"","S1","","html-keyboard-response","107","158683","0.0-1.0-146.0","0","0","72200","","null","","","null","16","","","","","","","","","","","","","","","",""
"","ISI","","html-keyboard-response","108","158843","0.0-1.0-147.0","0","0","72200","","null","","","null","16","NaN","","","","","","","","","","","","","","",""
"","S2","","html-keyboard-response","109","159099","0.0-1.0-148.0","0","0","72200","","null","","","null","16","","NaN","","","","","","","","","","","","","",""
"","response","","html-keyboard-response","110","159329","0.0-1.0-149.0-0.0","0","0","72200","","226","","","75","16","","","1","16","training","adjacent","ED","5","4","L.jpg","P.jpg","0","0","1","",""
"","feedback","","html-keyboard-response","111","160339","0.0-1.0-150.0-0.0","0","0","72200","","null","","","null","16","","","","","","","","","","","","","","","",""
"","ITI","","html-keyboard-response","112","161347","0.0-1.0-153.0","0","0","72200","","null","","","null","16","","","","","","","","","","","","","","","NaN",""
"","S1","","html-keyboard-response","113","161603","0.0-1.0-155.0","0","0","72200","","null","","","null","17","","","","","","","","","","","","","","","",""
"","ISI","","html-keyboard-response","114","161763","0.0-1.0-156.0","0","0","72200","","null","","","null","17","NaN","","","","","","","","","","","","","","",""
"","S2","","html-keyboard-response","115","162019","0.0-1.0-157.0","0","0","72200","","null","","","null","17","","NaN","","","","","","","","","","","","","",""
"","response","","html-keyboard-response","116","162147","0.0-1.0-158.0-0.0","0","0","72200","","125","","","68","17","","","1","17","training","adjacent","FE","6","5","O.jpg","L.jpg","1","0","0","",""
"","feedback","","html-keyboard-response","117","163155","0.0-1.0-159.0-0.0","0","0","72200","","null","","","null","17","","","","","","","","","","","","","","","",""
"","time_out","","html-keyboard-response","118","165163","0.0-1.0-161.0-0.0","0","0","72200","","null","","","null","17","","","","","","","","","","","","","","","",""
"","ITI","","html-keyboard-response","119","166171","0.0-1.0-162.0","0","0","72200","","null","","","null","17","","","","","","","","","","","","","","","NaN",""
"","S1","","html-keyboard-response","120","166427","0.0-1.0-164.0","0","0","72200","","null","","","null","18","","","","","","","","","","","","","","","",""
"","ISI","","html-keyboard-response","121","166587","0.0-1.0-165.0","0","0","72200","","null","","","null","18","NaN","","","","","","","","","","","","","","",""
"","S2","","html-keyboard-response","122","166844","0.0-1.0-166.0","0","0","72200","","null","","","null","18","","NaN","","","","","","","","","","","","","",""
"","response","","html-keyboard-response","123","166915","0.0-1.0-167.0-0.0","0","0","72200","","68","","","68","18","","","1","18","training","adjacent","BC","2","3","R.jpg","Q.jpg","1","1","1","",""
"","feedback","","html-keyboard-response","124","167924","0.0-1.0-168.0-0.0","0","0","72200","","null","","","null","18","","","","","","","","","","","","","","","",""
"","ITI","","html-keyboard-response","125","168932","0.0-1.0-171.0","0","0","72200","","null","","","null","18","","","","","","","","","","","","","","","NaN",""
"","S1","","html-keyboard-response","126","169188","0.0-1.0-173.0","0","0","72200","","null","","","null","19","","","","","","","","","","","","","","","",""
"","ISI","","html-keyboard-response","127","169348","0.0-1.0-174.0","0","0","72200","","null","","","null","19","NaN","","","","","","","","","","","","","","",""
"","S2","","html-keyboard-response","128","169604","0.0-1.0-175.0","0","0","72200","","null","","","null","19","","NaN","","","","","","","","","","","","","",""
"","response","","html-keyboard-response","129","169905","0.0-1.0-176.0-0.0","0","0","72200","","297","","","68","19","","","1","19","training","adjacent","FE","6","5","O.jpg","L.jpg","1","0","0","",""
"","feedback","","html-keyboard-response","130","170916","0.0-1.0-177.0-0.0","0","0","72200","","null","","","null","19","","","","","","","","","","","","","","","",""
"","time_out","","html-keyboard-response","131","172924","0.0-1.0-179.0-0.0","0","0","72200","","null","","","null","19","","","","","","","","","","","","","","","",""
"","ITI","","html-keyboard-response","132","173932","0.0-1.0-180.0","0","0","72200","","null","","","null","19","","","","","","","","","","","","","","","NaN",""
"","S1","","html-keyboard-response","133","174189","0.0-1.0-182.0","0","0","72200","","null","","","null","20","","","","","","","","","","","","","","","",""
"","ISI","","html-keyboard-response","134","174348","0.0-1.0-183.0","0","0","72200","","null","","","null","20","NaN","","","","","","","","","","","","","","",""
"","S2","","html-keyboard-response","135","174605","0.0-1.0-184.0","0","0","72200","","null","","","null","20","","NaN","","","","","","","","","","","","","",""
"","response","","html-keyboard-response","136","174847","0.0-1.0-185.0-0.0","0","0","72200","","239","","","68","20","","","1","20","training","adjacent","AB","1","2","M.jpg","R.jpg","1","1","1","",""
"","feedback","","html-keyboard-response","137","175853","0.0-1.0-186.0-0.0","0","0","72200","","null","","","null","20","","","","","","","","","","","","","","","",""
"","ITI","","html-keyboard-response","138","176861","0.0-1.0-189.0","0","0","72200","","null","","","null","20","","","","","","","","","","","","","","","NaN",""
"","S1","","html-keyboard-response","139","177117","0.0-1.0-191.0","0","0","72200","","null","","","null","21","","","","","","","","","","","","","","","",""
"","ISI","","html-keyboard-response","140","177277","0.0-1.0-192.0","0","0","72200","","null","","","null","21","NaN","","","","","","","","","","","","","","",""
"","S2","","html-keyboard-response","141","177533","0.0-1.0-193.0","0","0","72200","","null","","","null","21","","NaN","","","","","","","","","","","","","",""
"","response","","html-keyboard-response","142","177803","0.0-1.0-194.0-0.0","0","0","72200","","267","","","75","21","","","1","21","training","adjacent","AB","1","2","M.jpg","R.jpg","0","1","0","",""
"","feedback","","html-keyboard-response","143","178813","0.0-1.0-195.0-0.0","0","0","72200","","null","","","null","21","","","","","","","","","","","","","","","",""
"","time_out","","html-keyboard-response","144","180820","0.0-1.0-197.0-0.0","0","0","72200","","null","","","null","21","","","","","","","","","","","","","","","",""
"","ITI","","html-keyboard-response","145","181828","0.0-1.0-198.0","0","0","72200","","null","","","null","21","","","","","","","","","","","","","","","NaN",""
"","S1","","html-keyboard-response","146","182084","0.0-1.0-200.0","0","0","72200","","null","","","null","22","","","","","","","","","","","","","","","",""
"","ISI","","html-keyboard-response","147","182244","0.0-1.0-201.0","0","0","72200","","null","","","null","22","NaN","","","","","","","","","","","","","","",""
"","S2","","html-keyboard-response","148","182500","0.0-1.0-202.0","0","0","72200","","null","","","null","22","","NaN","","","","","","","","","","","","","",""
"","response","","html-keyboard-response","149","182570","0.0-1.0-203.0-0.0","0","0","72200","","67","","","68","22","","","1","22","training","adjacent","GF","7","6","N.jpg","O.jpg","1","0","0","",""
"","feedback","","html-keyboard-response","150","183580","0.0-1.0-204.0-0.0","0","0","72200","","null","","","null","22","","","","","","","","","","","","","","","",""
"","time_out","","html-keyboard-response","151","185588","0.0-1.0-206.0-0.0","0","0","72200","","null","","","null","22","","","","","","","","","","","","","","","",""
"","ITI","","html-keyboard-response","152","186596","0.0-1.0-207.0","0","0","72200","","null","","","null","22","","","","","","","","","","","","","","","NaN",""
"","S1","","html-keyboard-response","153","186852","0.0-1.0-209.0","0","0","72200","","null","","","null","23","","","","","","","","","","","","","","","",""
"","ISI","","html-keyboard-response","154","187012","0.0-1.0-210.0","0","0","72200","","null","","","null","23","NaN","","","","","","","","","","","","","","",""
"","S2","","html-keyboard-response","155","187268","0.0-1.0-211.0","0","0","72200","","null","","","null","23","","NaN","","","","","","","","","","","","","",""
"","response","","html-keyboard-response","156","187371","0.0-1.0-212.0-0.0","0","0","72200","","100","","","75","23","","","1","23","training","adjacent","DE","4","5","P.jpg","L.jpg","0","1","0","",""
"","feedback","","html-keyboard-response","157","188380","0.0-1.0-213.0-0.0","0","0","72200","","null","","","null","23","","","","","","","","","","","","","","","",""
"","time_out","","html-keyboard-response","158","190388","0.0-1.0-215.0-0.0","0","0","72200","","null","","","null","23","","","","","","","","","","","","","","","",""
"","ITI","","html-keyboard-response","159","191396","0.0-1.0-216.0","0","0","72200","","null","","","null","23","","","","","","","","","","","","","","","NaN",""
"","S1","","html-keyboard-response","160","191652","0.0-1.0-218.0","0","0","72200","","null","","","null","24","","","","","","","","","","","","","","","",""
"","ISI","","html-keyboard-response","161","191812","0.0-1.0-219.0","0","0","72200","","null","","","null","24","NaN","","","","","","","","","","","","","","",""
"","S2","","html-keyboard-response","162","192068","0.0-1.0-220.0","0","0","72200","","null","","","null","24","","NaN","","","","","","","","","","","","","",""
"","response","","html-keyboard-response","163","192236","0.0-1.0-221.0-0.0","0","0","72200","","164","","","68","24","","","1","24","training","adjacent","EF","5","6","L.jpg","O.jpg","1","1","1","",""
"","feedback","","html-keyboard-response","164","193245","0.0-1.0-222.0-0.0","0","0","72200","","null","","","null","24","","","","","","","","","","","","","","","",""
"","ITI","","html-keyboard-response","165","194252","0.0-1.0-225.0","0","0","72200","","null","","","null","24","","","","","","","","","","","","","","","NaN",""
"","S1","","html-keyboard-response","166","194508","0.0-1.0-227.0","0","0","72200","","null","","","null","25","","","","","","","","","","","","","","","",""
"","ISI","","html-keyboard-response","167","194669","0.0-1.0-228.0","0","0","72200","","null","","","null","25","NaN","","","","","","","","","","","","","","",""
"","S2","","html-keyboard-response","168","194924","0.0-1.0-229.0","0","0","72200","","null","","","null","25","","NaN","","","","","","","","","","","","","",""
"","response","","html-keyboard-response","169","195044","0.0-1.0-230.0-0.0","0","0","72200","","116","","","75","25","","","1","25","training","adjacent","CD","3","4","Q.jpg","P.jpg","0","1","0","",""
"","feedback","","html-keyboard-response","170","196052","0.0-1.0-231.0-0.0","0","0","72200","","null","","","null","25","","","","","","","","","","","","","","","",""
"","time_out","","html-keyboard-response","171","198060","0.0-1.0-233.0-0.0","0","0","72200","","null","","","null","25","","","","","","","","","","","","","","","",""
"","ITI","","html-keyboard-response","172","199069","0.0-1.0-234.0","0","0","72200","","null","","","null","25","","","","","","","","","","","","","","","NaN",""
"","S1","","html-keyboard-response","173","199325","0.0-1.0-236.0","0","0","72200","","null","","","null","26","","","","","","","","","","","","","","","",""
"","ISI","","html-keyboard-response","174","199485","0.0-1.0-237.0","0","0","72200","","null","","","null","26","NaN","","","","","","","","","","","","","","",""
"","S2","","html-keyboard-response","175","199741","0.0-1.0-238.0","0","0","72200","","null","","","null","26","","NaN","","","","","","","","","","","","","",""
"","response","","html-keyboard-response","176","199828","0.0-1.0-239.0-0.0","0","0","72200","","85","","","68","26","","","1","26","training","adjacent","CB","3","2","Q.jpg","R.jpg","1","0","0","",""
"","feedback","","html-keyboard-response","177","200837","0.0-1.0-240.0-0.0","0","0","72200","","null","","","null","26","","","","","","","","","","","","","","","",""
"","time_out","","html-keyboard-response","178","202845","0.0-1.0-242.0-0.0","0","0","72200","","null","","","null","26","","","","","","","","","","","","","","","",""
"","ITI","","html-keyboard-response","179","203852","0.0-1.0-243.0","0","0","72200","","null","","","null","26","","","","","","","","","","","","","","","NaN",""
"","S1","","html-keyboard-response","180","204108","0.0-1.0-245.0","0","0","72200","","null","","","null","27","","","","","","","","","","","","","","","",""
"","ISI","","html-keyboard-response","181","204268","0.0-1.0-246.0","0","0","72200","","null","","","null","27","NaN","","","","","","","","","","","","","","",""
"","S2","","html-keyboard-response","182","204524","0.0-1.0-247.0","0","0","72200","","null","","","null","27","","NaN","","","","","","","","","","","","","",""
"","response","","html-keyboard-response","183","204765","0.0-1.0-248.0-0.0","0","0","72200","","238","","","68","27","","","1","27","training","adjacent","EF","5","6","L.jpg","O.jpg","1","1","1","",""
"","feedback","","html-keyboard-response","184","205772","0.0-1.0-249.0-0.0","0","0","72200","","null","","","null","27","","","","","","","","","","","","","","","",""
"","ITI","","html-keyboard-response","185","206780","0.0-1.0-252.0","0","0","72200","","null","","","null","27","","","","","","","","","","","","","","","NaN",""
"","S1","","html-keyboard-response","186","207036","0.0-1.0-254.0","0","0","72200","","null","","","null","28","","","","","","","","","","","","","","","",""
"","ISI","","html-keyboard-response","187","207196","0.0-1.0-255.0","0","0","72200","","null","","","null","28","NaN","","","","","","","","","","","","","","",""
"","S2","","html-keyboard-response","188","207452","0.0-1.0-256.0","0","0","72200","","null","","","null","28","","NaN","","","","","","","","","","","","","",""
"","response","","html-keyboard-response","189","207621","0.0-1.0-257.0-0.0","0","0","72200","","166","","","75","28","","","1","28","training","adjacent","CD","3","4","Q.jpg","P.jpg","0","1","0","",""
"","feedback","","html-keyboard-response","190","208628","0.0-1.0-258.0-0.0","0","0","72200","","null","","","null","28","","","","","","","","","","","","","","","",""
"","time_out","","html-keyboard-response","191","210636","0.0-1.0-260.0-0.0","0","0","72200","","null","","","null","28","","","","","","","","","","","","","","","",""
"","ITI","","html-keyboard-response","192","211644","0.0-1.0-261.0","0","0","72200","","null","","","null","28","","","","","","","","","","","","","","","NaN",""
"","S1","","html-keyboard-response","193","211900","0.0-1.0-263.0","0","0","72200","","null","","","null","29","","","","","","","","","","","","","","","",""
"","ISI","","html-keyboard-response","194","212060","0.0-1.0-264.0","0","0","72200","","null","","","null","29","NaN","","","","","","","","","","","","","","",""
"","S2","","html-keyboard-response","195","212316","0.0-1.0-265.0","0","0","72200","","null","","","null","29","","NaN","","","","","","","","","","","","","",""
"","response","","html-keyboard-response","196","212587","0.0-1.0-266.0-0.0","0","0","72200","","268","","","75","29","","","1","29","training","adjacent","CD","3","4","Q.jpg","P.jpg","0","1","0","",""
"","feedback","","html-keyboard-response","197","213596","0.0-1.0-267.0-0.0","0","0","72200","","null","","","null","29","","","","","","","","","","","","","","","",""
"","time_out","","html-keyboard-response","198","215604","0.0-1.0-269.0-0.0","0","0","72200","","null","","","null","29","","","","","","","","","","","","","","","",""
"","ITI","","html-keyboard-response","199","216612","0.0-1.0-270.0","0","0","72200","","null","","","null","29","","","","","","","","","","","","","","","NaN",""
"","S1","","html-keyboard-response","200","216868","0.0-1.0-272.0","0","0","72200","","null","","","null","30","","","","","","","","","","","","","","","",""
"","ISI","","html-keyboard-response","201","217028","0.0-1.0-273.0","0","0","72200","","null","","","null","30","NaN","","","","","","","","","","","","","","",""
"","S2","","html-keyboard-response","202","217284","0.0-1.0-274.0","0","0","72200","","null","","","null","30","","NaN","","","","","","","","","","","","","",""
"","response","","html-keyboard-response","203","217554","0.0-1.0-275.0-0.0","0","0","72200","","267","","","75","30","","","1","30","training","adjacent","GF","7","6","N.jpg","O.jpg","0","0","1","",""
"","feedback","","html-keyboard-response","204","218564","0.0-1.0-276.0-0.0","0","0","72200","","null","","","null","30","","","","","","","","","","","","","","","",""
"","ITI","","html-keyboard-response","205","219572","0.0-1.0-279.0","0","0","72200","","null","","","null","30","","","","","","","","","","","","","","","NaN",""
"","S1","","html-keyboard-response","206","219828","0.0-1.0-281.0","0","0","72200","","null","","","null","31","","","","","","","","","","","","","","","",""
"","ISI","","html-keyboard-response","207","219988","0.0-1.0-282.0","0","0","72200","","null","","","null","31","NaN","","","","","","","","","","","","","","",""
"","S2","","html-keyboard-response","208","220244","0.0-1.0-283.0","0","0","72200","","null","","","null","31","","NaN","","","","","","","","","","","","","",""
"","response","","html-keyboard-response","209","220495","0.0-1.0-284.0-0.0","0","0","72200","","248","","","75","31","","","1","31","training","adjacent","DC","4","3","P.jpg","Q.jpg","0","0","1","",""
"","feedback","","html-keyboard-response","210","221500","0.0-1.0-285.0-0.0","0","0","72200","","null","","","null","31","","","","","","","","","","","","","","","",""
"","ITI","","html-keyboard-response","211","222509","0.0-1.0-288.0","0","0","72200","","null","","","null","31","","","","","","","","","","","","","","","NaN",""
"","S1","","html-keyboard-response","212","222764","0.0-1.0-290.0","0","0","72200","","null","","","null","32","","","","","","","","","","","","","","","",""
"","ISI","","html-keyboard-response","213","222924","0.0-1.0-291.0","0","0","72200","","null","","","null","32","NaN","","","","","","","","","","","","","","",""
"","S2","","html-keyboard-response","214","223180","0.0-1.0-292.0","0","0","72200","","null","","","null","32","","NaN","","","","","","","","","","","","","",""
"","response","","html-keyboard-response","215","223340","0.0-1.0-293.0-0.0","0","0","72200","","157","","","68","32","","","1","32","training","adjacent","EF","5","6","L.jpg","O.jpg","1","1","1","",""
"","feedback","","html-keyboard-response","216","224348","0.0-1.0-294.0-0.0","0","0","72200","","null","","","null","32","","","","","","","","","","","","","","","",""
"","ITI","","html-keyboard-response","217","225357","0.0-1.0-297.0","0","0","72200","","null","","","null","32","","","","","","","","","","","","","","","NaN",""
"","S1","","html-keyboard-response","218","225613","0.0-1.0-299.0","0","0","72200","","null","","","null","33","","","","","","","","","","","","","","","",""
"","ISI","","html-keyboard-response","219","225772","0.0-1.0-300.0","0","0","72200","","null","","","null","33","NaN","","","","","","","","","","","","","","",""
"","S2","","html-keyboard-response","220","226029","0.0-1.0-301.0","0","0","72200","","null","","","null","33","","NaN","","","","","","","","","","","","","",""
"","response","","html-keyboard-response","221","226307","0.0-1.0-302.0-0.0","0","0","72200","","276","","","68","33","","","1","33","training","adjacent","AB","1","2","M.jpg","R.jpg","1","1","1","",""
"","feedback","","html-keyboard-response","222","227317","0.0-1.0-303.0-0.0","0","0","72200","","null","","","null","33","","","","","","","","","","","","","","","",""
"","ITI","","html-keyboard-response","223","228325","0.0-1.0-306.0","0","0","72200","","null","","","null","33","","","","","","","","","","","","","","","NaN",""
"","S1","","html-keyboard-response","224","228581","0.0-1.0-308.0","0","0","72200","","null","","","null","34","","","","","","","","","","","","","","","",""
"","ISI","","html-keyboard-response","225","228741","0.0-1.0-309.0","0","0","72200","","null","","","null","34","NaN","","","","","","","","","","","","","","",""
"","S2","","html-keyboard-response","226","228997","0.0-1.0-310.0","0","0","72200","","null","","","null","34","","NaN","","","","","","","","","","","","","",""
"","response","","html-keyboard-response","227","229321","0.0-1.0-311.0-0.0","0","0","72200","","322","","","68","34","","","1","34","training","adjacent","BC","2","3","R.jpg","Q.jpg","1","1","1","",""
"","feedback","","html-keyboard-response","228","230333","0.0-1.0-312.0-0.0","0","0","72200","","null","","","null","34","","","","","","","","","","","","","","","",""
"","ITI","","html-keyboard-response","229","231341","0.0-1.0-315.0","0","0","72200","","null","","","null","34","","","","","","","","","","","","","","","NaN",""
"","S1","","html-keyboard-response","230","231597","0.0-1.0-317.0","0","0","72200","","null","","","null","35","","","","","","","","","","","","","","","",""
"","ISI","","html-keyboard-response","231","231757","0.0-1.0-318.0","0","0","72200","","null","","","null","35","NaN","","","","","","","","","","","","","","",""
"","S2","","html-keyboard-response","232","232013","0.0-1.0-319.0","0","0","72200","","null","","","null","35","","NaN","","","","","","","","","","","","","",""
"","response","","html-keyboard-response","233","232113","0.0-1.0-320.0-0.0","0","0","72200","","97","","","75","35","","","1","35","training","adjacent","DE","4","5","P.jpg","L.jpg","0","1","0","",""
"","feedback","","html-keyboard-response","234","233117","0.0-1.0-321.0-0.0","0","0","72200","","null","","","null","35","","","","","","","","","","","","","","","",""
"","time_out","","html-keyboard-response","235","235125","0.0-1.0-323.0-0.0","0","0","72200","","null","","","null","35","","","","","","","","","","","","","","","",""
"","ITI","","html-keyboard-response","236","236133","0.0-1.0-324.0","0","0","72200","","null","","","null","35","","","","","","","","","","","","","","","NaN",""
"","S1","","html-keyboard-response","237","236389","0.0-1.0-326.0","0","0","72200","","null","","","null","36","","","","","","","","","","","","","","","",""
"","ISI","","html-keyboard-response","238","236549","0.0-1.0-327.0","0","0","72200","","null","","","null","36","NaN","","","","","","","","","","","","","","",""
"","S2","","html-keyboard-response","239","236805","0.0-1.0-328.0","0","0","72200","","null","","","null","36","","NaN","","","","","","","","","","","","","",""
"","response","","html-keyboard-response","240","237070","0.0-1.0-329.0-0.0","0","0","72200","","262","","","75","36","","","1","36","training","adjacent","GF","7","6","N.jpg","O.jpg","0","0","1","",""
"","feedback","","html-keyboard-response","241","238077","0.0-1.0-330.0-0.0","0","0","72200","","null","","","null","36","","","","","","","","","","","","","","","",""
"","ITI","","html-keyboard-response","242","239085","0.0-1.0-333.0","0","0","72200","","null","","","null","36","","","","","","","","","","","","","","","NaN",""
"","S1","","html-keyboard-response","243","239341","0.0-1.0-335.0","0","0","72200","","null","","","null","37","","","","","","","","","","","","","","","",""
"","ISI","","html-keyboard-response","244","239501","0.0-1.0-336.0","0","0","72200","","null","","","null","37","NaN","","","","","","","","","","","","","","",""
"","S2","","html-keyboard-response","245","239757","0.0-1.0-337.0","0","0","72200","","null","","","null","37","","NaN","","","","","","","","","","","","","",""
"","response","","html-keyboard-response","246","239945","0.0-1.0-338.0-0.0","0","0","72200","","184","","","68","37","","","1","37","training","adjacent","DE","4","5","P.jpg","L.jpg","1","1","1","",""
"","feedback","","html-keyboard-response","247","240949","0.0-1.0-339.0-0.0","0","0","72200","","null","","","null","37","","","","","","","","","","","","","","","",""
"","ITI","","html-keyboard-response","248","241957","0.0-1.0-342.0","0","0","72200","","null","","","null","37","","","","","","","","","","","","","","","NaN",""
"","S1","","html-keyboard-response","249","242213","0.0-1.0-344.0","0","0","72200","","null","","","null","38","","","","","","","","","","","","","","","",""
"","ISI","","html-keyboard-response","250","242373","0.0-1.0-345.0","0","0","72200","","null","","","null","38","NaN","","","","","","","","","","","","","","",""
"","S2","","html-keyboard-response","251","242629","0.0-1.0-346.0","0","0","72200","","null","","","null","38","","NaN","","","","","","","","","","","","","",""
"","response","","html-keyboard-response","252","242859","0.0-1.0-347.0-0.0","0","0","72200","","227","","","68","38","","","1","38","training","adjacent","ED","5","4","L.jpg","P.jpg","1","0","0","",""
"","feedback","","html-keyboard-response","253","243869","0.0-1.0-348.0-0.0","0","0","72200","","null","","","null","38","","","","","","","","","","","","","","","",""
"","time_out","","html-keyboard-response","254","245878","0.0-1.0-350.0-0.0","0","0","72200","","null","","","null","38","","","","","","","","","","","","","","","",""
"","ITI","","html-keyboard-response","255","246886","0.0-1.0-351.0","0","0","72200","","null","","","null","38","","","","","","","","","","","","","","","NaN",""
"","S1","","html-keyboard-response","256","247142","0.0-1.0-353.0","0","0","72200","","null","","","null","39","","","","","","","","","","","","","","","",""
"","ISI","","html-keyboard-response","257","247301","0.0-1.0-354.0","0","0","72200","","null","","","null","39","NaN","","","","","","","","","","","","","","",""
"","S2","","html-keyboard-response","258","247558","0.0-1.0-355.0","0","0","72200","","null","","","null","39","","NaN","","","","","","","","","","","","","",""
"","response","","html-keyboard-response","259","247769","0.0-1.0-356.0-0.0","0","0","72200","","208","","","75","39","","","1","39","training","adjacent","AB","1","2","M.jpg","R.jpg","0","1","0","",""
"","feedback","","html-keyboard-response","260","248774","0.0-1.0-357.0-0.0","0","0","72200","","null","","","null","39","","","","","","","","","","","","","","","",""
"","time_out","","html-keyboard-response","261","250781","0.0-1.0-359.0-0.0","0","0","72200","","null","","","null","39","","","","","","","","","","","","","","","",""
"","ITI","","html-keyboard-response","262","251789","0.0-1.0-360.0","0","0","72200","","null","","","null","39","","","","","","","","","","","","","","","NaN",""
"","S1","","html-keyboard-response","263","252045","0.0-1.0-362.0","0","0","72200","","null","","","null","40","","","","","","","","","","","","","","","",""
"","ISI","","html-keyboard-response","264","252205","0.0-1.0-363.0","0","0","72200","","null","","","null","40","NaN","","","","","","","","","","","","","","",""
"","S2","","html-keyboard-response","265","252461","0.0-1.0-364.0","0","0","72200","","null","","","null","40","","NaN","","","","","","","","","","","","","",""
"","response","","html-keyboard-response","266","252625","0.0-1.0-365.0-0.0","0","0","72200","","161","","","75","40","","","1","40","training","adjacent","ED","5","4","L.jpg","P.jpg","0","0","1","",""
"","feedback","","html-keyboard-response","267","253629","0.0-1.0-366.0-0.0","0","0","72200","","null","","","null","40","","","","","","","","","","","","","","","",""
"","ITI","","html-keyboard-response","268","254637","0.0-1.0-369.0","0","0","72200","","null","","","null","40","","","","","","","","","","","","","","","NaN",""
"","S1","","html-keyboard-response","269","254893","0.0-1.0-371.0","0","0","72200","","null","","","null","41","","","","","","","","","","","","","","","",""
"","ISI","","html-keyboard-response","270","255053","0.0-1.0-372.0","0","0","72200","","null","","","null","41","NaN","","","","","","","","","","","","","","",""
"","S2","","html-keyboard-response","271","255309","0.0-1.0-373.0","0","0","72200","","null","","","null","41","","NaN","","","","","","","","","","","","","",""
"","response","","html-keyboard-response","272","255424","0.0-1.0-374.0-0.0","0","0","72200","","112","","","68","41","","","1","41","training","adjacent","BA","2","1","R.jpg","M.jpg","1","0","0","",""
"","feedback","","html-keyboard-response","273","256429","0.0-1.0-375.0-0.0","0","0","72200","","null","","","null","41","","","","","","","","","","","","","","","",""
"","time_out","","html-keyboard-response","274","258437","0.0-1.0-377.0-0.0","0","0","72200","","null","","","null","41","","","","","","","","","","","","","","","",""
"","ITI","","html-keyboard-response","275","259445","0.0-1.0-378.0","0","0","72200","","null","","","null","41","","","","","","","","","","","","","","","NaN",""
"","S1","","html-keyboard-response","276","259701","0.0-1.0-380.0","0","0","72200","","null","","","null","42","","","","","","","","","","","","","","","",""
"","ISI","","html-keyboard-response","277","259861","0.0-1.0-381.0","0","0","72200","","null","","","null","42","NaN","","","","","","","","","","","","","","",""
"","S2","","html-keyboard-response","278","260117","0.0-1.0-382.0","0","0","72200","","null","","","null","42","","NaN","","","","","","","","","","","","","",""
"","response","","html-keyboard-response","279","260259","0.0-1.0-383.0-0.0","0","0","72200","","139","","","68","42","","","1","42","training","adjacent","BA","2","1","R.jpg","M.jpg","1","0","0","",""
"","feedback","","html-keyboard-response","280","261269","0.0-1.0-384.0-0.0","0","0","72200","","null","","","null","42","","","","","","","","","","","","","","","",""
"","time_out","","html-keyboard-response","281","263277","0.0-1.0-386.0-0.0","0","0","72200","","null","","","null","42","","","","","","","","","","","","","","","",""
"","ITI","","html-keyboard-response","282","264285","0.0-1.0-387.0","0","0","72200","","null","","","null","42","","","","","","","","","","","","","","","NaN",""
"","S1","","html-keyboard-response","283","264541","0.0-1.0-389.0","0","0","72200","","null","","","null","43","","","","","","","","","","","","","","","",""
"","ISI","","html-keyboard-response","284","264701","0.0-1.0-390.0","0","0","72200","","null","","","null","43","NaN","","","","","","","","","","","","","","",""
"","S2","","html-keyboard-response","285","264957","0.0-1.0-391.0","0","0","72200","","null","","","null","43","","NaN","","","","","","","","","","","","","",""
"","response","","html-keyboard-response","286","265132","0.0-1.0-392.0-0.0","0","0","72200","","172","","","75","43","","","1","43","training","adjacent","EF","5","6","L.jpg","O.jpg","0","1","0","",""
"","feedback","","html-keyboard-response","287","266141","0.0-1.0-393.0-0.0","0","0","72200","","null","","","null","43","","","","","","","","","","","","","","","",""
"","time_out","","html-keyboard-response","288","268150","0.0-1.0-395.0-0.0","0","0","72200","","null","","","null","43","","","","","","","","","","","","","","","",""
"","ITI","","html-keyboard-response","289","269158","0.0-1.0-396.0","0","0","72200","","null","","","null","43","","","","","","","","","","","","","","","NaN",""
"","S1","","html-keyboard-response","290","269414","0.0-1.0-398.0","0","0","72200","","null","","","null","44","","","","","","","","","","","","","","","",""
"","ISI","","html-keyboard-response","291","269574","0.0-1.0-399.0","0","0","72200","","null","","","null","44","NaN","","","","","","","","","","","","","","",""
"","S2","","html-keyboard-response","292","269830","0.0-1.0-400.0","0","0","72200","","null","","","null","44","","NaN","","","","","","","","","","","","","",""
"","response","","html-keyboard-response","293","270008","0.0-1.0-401.0-0.0","0","0","72200","","175","","","68","44","","","1","44","training","adjacent","FG","6","7","O.jpg","N.jpg","1","1","1","",""
"","feedback","","html-keyboard-response","294","271014","0.0-1.0-402.0-0.0","0","0","72200","","null","","","null","44","","","","","","","","","","","","","","","",""
"","ITI","","html-keyboard-response","295","272022","0.0-1.0-405.0","0","0","72200","","null","","","null","44","","","","","","","","","","","","","","","NaN",""
"","S1","","html-keyboard-response","296","272278","0.0-1.0-407.0","0","0","72200","","null","","","null","45","","","","","","","","","","","","","","","",""
"","ISI","","html-keyboard-response","297","272438","0.0-1.0-408.0","0","0","72200","","null","","","null","45","NaN","","","","","","","","","","","","","","",""
"","S2","","html-keyboard-response","298","272694","0.0-1.0-409.0","0","0","72200","","null","","","null","45","","NaN","","","","","","","","","","","","","",""
"","response","","html-keyboard-response","299","273063","0.0-1.0-410.0-0.0","0","0","72200","","366","","","68","45","","","1","45","training","adjacent","CD","3","4","Q.jpg","P.jpg","1","1","1","",""
"","feedback","","html-keyboard-response","300","274069","0.0-1.0-411.0-0.0","0","0","72200","","null","","","null","45","","","","","","","","","","","","","","","",""
"","ITI","","html-keyboard-response","301","275077","0.0-1.0-414.0","0","0","72200","","null","","","null","45","","","","","","","","","","","","","","","NaN",""
"","S1","","html-keyboard-response","302","275333","0.0-1.0-416.0","0","0","72200","","null","","","null","46","","","","","","","","","","","","","","","",""
"","ISI","","html-keyboard-response","303","275493","0.0-1.0-417.0","0","0","72200","","null","","","null","46","NaN","","","","","","","","","","","","","","",""
"","S2","","html-keyboard-response","304","275749","0.0-1.0-418.0","0","0","72200","","null","","","null","46","","NaN","","","","","","","","","","","","","",""
"","response","","html-keyboard-response","305","275976","0.0-1.0-419.0-0.0","0","0","72200","","224","","","75","46","","","1","46","training","adjacent","CB","3","2","Q.jpg","R.jpg","0","0","1","",""
"","feedback","","html-keyboard-response","306","276981","0.0-1.0-420.0-0.0","0","0","72200","","null","","","null","46","","","","","","","","","","","","","","","",""
"","ITI","","html-keyboard-response","307","277989","0.0-1.0-423.0","0","0","72200","","null","","","null","46","","","","","","","","","","","","","","","NaN",""
"","S1","","html-keyboard-response","308","278245","0.0-1.0-425.0","0","0","72200","","null","","","null","47","","","","","","","","","","","","","","","",""
"","ISI","","html-keyboard-response","309","278405","0.0-1.0-426.0","0","0","72200","","null","","","null","47","NaN","","","","","","","","","","","","","","",""
"","S2","","html-keyboard-response","310","278661","0.0-1.0-427.0","0","0","72200","","null","","","null","47","","NaN","","","","","","","","","","","","","",""
"","response","","html-keyboard-response","311","278833","0.0-1.0-428.0-0.0","0","0","72200","","169","","","68","47","","","1","47","training","adjacent","DC","4","3","P.jpg","Q.jpg","1","0","0","",""
"","feedback","","html-keyboard-response","312","279845","0.0-1.0-429.0-0.0","0","0","72200","","null","","","null","47","","","","","","","","","","","","","","","",""
"","time_out","","html-keyboard-response","313","281853","0.0-1.0-431.0-0.0","0","0","72200","","null","","","null","47","","","","","","","","","","","","","","","",""
"","ITI","","html-keyboard-response","314","282861","0.0-1.0-432.0","0","0","72200","","null","","","null","47","","","","","","","","","","","","","","","NaN",""
"","block_over","","html-keyboard-response","315","293236","0.0-1.0-433.0-0.0","0","0","72200","","10369","","","32","47","","","","","","","","","","","","","","","",""
"","S1","","html-keyboard-response","316","293494","0.0-1.0-434.0","0","0","72200","","null","","","null","48","","","","","","","","","","","","","","","",""
"","ISI","","html-keyboard-response","317","293654","0.0-1.0-435.0","0","0","72200","","null","","","null","48","NaN","","","","","","","","","","","","","","",""
"","S2","","html-keyboard-response","318","293910","0.0-1.0-436.0","0","0","72200","","null","","","null","48","","NaN","","","","","","","","","","","","","",""
"","response","","html-keyboard-response","319","294221","0.0-1.0-437.0-0.0","0","0","72200","","308","","","68","48","","","2","48","training","adjacent","DC","4","3","P.jpg","Q.jpg","1","0","0","",""
"","feedback","","html-keyboard-response","320","295230","0.0-1.0-438.0-0.0","0","0","72200","","null","","","null","48","","","","","","","","","","","","","","","",""
"","time_out","","html-keyboard-response","321","297237","0.0-1.0-440.0-0.0","0","0","72200","","null","","","null","48","","","","","","","","","","","","","","","",""
"","ITI","","html-keyboard-response","322","298245","0.0-1.0-441.0","0","0","72200","","null","","","null","48","","","","","","","","","","","","","","","NaN",""
"","S1","","html-keyboard-response","323","298501","0.0-1.0-443.0","0","0","72200","","null","","","null","49","","","","","","","","","","","","","","","",""
"","ISI","","html-keyboard-response","324","298661","0.0-1.0-444.0","0","0","72200","","null","","","null","49","NaN","","","","","","","","","","","","","","",""
"","S2","","html-keyboard-response","325","298917","0.0-1.0-445.0","0","0","72200","","null","","","null","49","","NaN","","","","","","","","","","","","","",""
"","response","","html-keyboard-response","326","299068","0.0-1.0-446.0-0.0","0","0","72200","","148","","","75","49","","","2","49","training","adjacent","GF","7","6","N.jpg","O.jpg","0","0","1","",""
"","feedback","","html-keyboard-response","327","300077","0.0-1.0-447.0-0.0","0","0","72200","","null","","","null","49","","","","","","","","","","","","","","","",""
"","ITI","","html-keyboard-response","328","301085","0.0-1.0-450.0","0","0","72200","","null","","","null","49","","","","","","","","","","","","","","","NaN",""
"","S1","","html-keyboard-response","329","301341","0.0-1.0-452.0","0","0","72200","","null","","","null","50","","","","","","","","","","","","","","","",""
"","ISI","","html-keyboard-response","330","301501","0.0-1.0-453.0","0","0","72200","","null","","","null","50","NaN","","","","","","","","","","","","","","",""
"","S2","","html-keyboard-response","331","301757","0.0-1.0-454.0","0","0","72200","","null","","","null","50","","NaN","","","","","","","","","","","","","",""
"","response","","html-keyboard-response","332","301799","0.0-1.0-455.0-0.0","0","0","72200","","39","","","68","50","","","2","50","training","adjacent","FG","6","7","O.jpg","N.jpg","1","1","1","",""
"","feedback","","html-keyboard-response","333","302805","0.0-1.0-456.0-0.0","0","0","72200","","null","","","null","50","","","","","","","","","","","","","","","",""
"","ITI","","html-keyboard-response","334","303813","0.0-1.0-459.0","0","0","72200","","null","","","null","50","","","","","","","","","","","","","","","NaN",""
"","S1","","html-keyboard-response","335","304069","0.0-1.0-461.0","0","0","72200","","null","","","null","51","","","","","","","","","","","","","","","",""
"","ISI","","html-keyboard-response","336","304229","0.0-1.0-462.0","0","0","72200","","null","","","null","51","NaN","","","","","","","","","","","","","","",""
"","S2","","html-keyboard-response","337","304485","0.0-1.0-463.0","0","0","72200","","null","","","null","51","","NaN","","","","","","","","","","","","","",""
"","response","","html-keyboard-response","338","304623","0.0-1.0-464.0-0.0","0","0","72200","","135","","","68","51","","","2","51","training","adjacent","BA","2","1","R.jpg","M.jpg","1","0","0","",""
"","feedback","","html-keyboard-response","339","305629","0.0-1.0-465.0-0.0","0","0","72200","","null","","","null","51","","","","","","","","","","","","","","","",""
"","time_out","","html-keyboard-response","340","307637","0.0-1.0-467.0-0.0","0","0","72200","","null","","","null","51","","","","","","","","","","","","","","","",""
"","ITI","","html-keyboard-response","341","308645","0.0-1.0-468.0","0","0","72200","","null","","","null","51","","","","","","","","","","","","","","","NaN",""
"","S1","","html-keyboard-response","342","308901","0.0-1.0-470.0","0","0","72200","","null","","","null","52","","","","","","","","","","","","","","","",""
"","ISI","","html-keyboard-response","343","309061","0.0-1.0-471.0","0","0","72200","","null","","","null","52","NaN","","","","","","","","","","","","","","",""
"","S2","","html-keyboard-response","344","309317","0.0-1.0-472.0","0","0","72200","","null","","","null","52","","NaN","","","","","","","","","","","","","",""
"","response","","html-keyboard-response","345","309442","0.0-1.0-473.0-0.0","0","0","72200","","122","","","68","52","","","2","52","training","adjacent","BC","2","3","R.jpg","Q.jpg","1","1","1","",""
"","feedback","","html-keyboard-response","346","310453","0.0-1.0-474.0-0.0","0","0","72200","","null","","","null","52","","","","","","","","","","","","","","","",""
"","ITI","","html-keyboard-response","347","311462","0.0-1.0-477.0","0","0","72200","","null","","","null","52","","","","","","","","","","","","","","","NaN",""
"","S1","","html-keyboard-response","348","311718","0.0-1.0-479.0","0","0","72200","","null","","","null","53","","","","","","","","","","","","","","","",""
"","ISI","","html-keyboard-response","349","311877","0.0-1.0-480.0","0","0","72200","","null","","","null","53","NaN","","","","","","","","","","","","","","",""
"","S2","","html-keyboard-response","350","312134","0.0-1.0-481.0","0","0","72200","","null","","","null","53","","NaN","","","","","","","","","","","","","",""
"","response","","html-keyboard-response","351","312225","0.0-1.0-482.0-0.0","0","0","72200","","88","","","75","53","","","2","53","training","adjacent","DE","4","5","P.jpg","L.jpg","0","1","0","",""
"","feedback","","html-keyboard-response","352","313238","0.0-1.0-483.0-0.0","0","0","72200","","null","","","null","53","","","","","","","","","","","","","","","",""
"","time_out","","html-keyboard-response","353","315246","0.0-1.0-485.0-0.0","0","0","72200","","null","","","null","53","","","","","","","","","","","","","","","",""
"","ITI","","html-keyboard-response","354","316254","0.0-1.0-486.0","0","0","72200","","null","","","null","53","","","","","","","","","","","","","","","NaN",""
"","S1","","html-keyboard-response","355","316510","0.0-1.0-488.0","0","0","72200","","null","","","null","54","","","","","","","","","","","","","","","",""
"","ISI","","html-keyboard-response","356","316670","0.0-1.0-489.0","0","0","72200","","null","","","null","54","NaN","","","","","","","","","","","","","","",""
"","S2","","html-keyboard-response","357","316926","0.0-1.0-490.0","0","0","72200","","null","","","null","54","","NaN","","","","","","","","","","","","","",""
"","response","","html-keyboard-response","358","316975","0.0-1.0-491.0-0.0","0","0","72200","","47","","","68","54","","","2","54","training","adjacent","BC","2","3","R.jpg","Q.jpg","1","1","1","",""
"","feedback","","html-keyboard-response","359","317982","0.0-1.0-492.0-0.0","0","0","72200","","null","","","null","54","","","","","","","","","","","","","","","",""
"","ITI","","html-keyboard-response","360","318990","0.0-1.0-495.0","0","0","72200","","null","","","null","54","","","","","","","","","","","","","","","NaN",""
"","S1","","html-keyboard-response","361","319246","0.0-1.0-497.0","0","0","72200","","null","","","null","55","","","","","","","","","","","","","","","",""
"","ISI","","html-keyboard-response","362","319406","0.0-1.0-498.0","0","0","72200","","null","","","null","55","NaN","","","","","","","","","","","","","","",""
"","S2","","html-keyboard-response","363","319662","0.0-1.0-499.0","0","0","72200","","null","","","null","55","","NaN","","","","","","","","","","","","","",""
"","response","","html-keyboard-response","364","319758","0.0-1.0-500.0-0.0","0","0","72200","","92","","","75","55","","","2","55","training","adjacent","EF","5","6","L.jpg","O.jpg","0","1","0","",""
"","feedback","","html-keyboard-response","365","320765","0.0-1.0-501.0-0.0","0","0","72200","","null","","","null","55","","","","","","","","","","","","","","","",""
"","time_out","","html-keyboard-response","366","322773","0.0-1.0-503.0-0.0","0","0","72200","","null","","","null","55","","","","","","","","","","","","","","","",""
"","ITI","","html-keyboard-response","367","323781","0.0-1.0-504.0","0","0","72200","","null","","","null","55","","","","","","","","","","","","","","","NaN",""
"","S1","","html-keyboard-response","368","324037","0.0-1.0-506.0","0","0","72200","","null","","","null","56","","","","","","","","","","","","","","","",""
"","ISI","","html-keyboard-response","369","324197","0.0-1.0-507.0","0","0","72200","","null","","","null","56","NaN","","","","","","","","","","","","","","",""
"","S2","","html-keyboard-response","370","324453","0.0-1.0-508.0","0","0","72200","","null","","","null","56","","NaN","","","","","","","","","","","","","",""
"","response","","html-keyboard-response","371","324584","0.0-1.0-509.0-0.0","0","0","72200","","128","","","68","56","","","2","56","training","adjacent","AB","1","2","M.jpg","R.jpg","1","1","1","",""
"","feedback","","html-keyboard-response","372","325589","0.0-1.0-510.0-0.0","0","0","72200","","null","","","null","56","","","","","","","","","","","","","","","",""
"","ITI","","html-keyboard-response","373","326597","0.0-1.0-513.0","0","0","72200","","null","","","null","56","","","","","","","","","","","","","","","NaN",""
"","S1","","html-keyboard-response","374","326853","0.0-1.0-515.0","0","0","72200","","null","","","null","57","","","","","","","","","","","","","","","",""
"","ISI","","html-keyboard-response","375","327013","0.0-1.0-516.0","0","0","72200","","null","","","null","57","NaN","","","","","","","","","","","","","","",""
"","S2","","html-keyboard-response","376","327269","0.0-1.0-517.0","0","0","72200","","null","","","null","57","","NaN","","","","","","","","","","","","","",""
"","response","","html-keyboard-response","377","327337","0.0-1.0-518.0-0.0","0","0","72200","","65","","","75","57","","","2","57","training","adjacent","CD","3","4","Q.jpg","P.jpg","0","1","0","",""
"","feedback","","html-keyboard-response","378","328341","0.0-1.0-519.0-0.0","0","0","72200","","null","","","null","57","","","","","","","","","","","","","","","",""
"","time_out","","html-keyboard-response","379","330349","0.0-1.0-521.0-0.0","0","0","72200","","null","","","null","57","","","","","","","","","","","","","","","",""
"","ITI","","html-keyboard-response","380","331357","0.0-1.0-522.0","0","0","72200","","null","","","null","57","","","","","","","","","","","","","","","NaN",""
"","S1","","html-keyboard-response","381","331613","0.0-1.0-524.0","0","0","72200","","null","","","null","58","","","","","","","","","","","","","","","",""
"","ISI","","html-keyboard-response","382","331773","0.0-1.0-525.0","0","0","72200","","null","","","null","58","NaN","","","","","","","","","","","","","","",""
"","S2","","html-keyboard-response","383","332030","0.0-1.0-526.0","0","0","72200","","null","","","null","58","","NaN","","","","","","","","","","","","","",""
"","response","","html-keyboard-response","384","332140","0.0-1.0-527.0-0.0","0","0","72200","","108","","","68","58","","","2","58","training","adjacent","BC","2","3","R.jpg","Q.jpg","1","1","1","",""
"","feedback","","html-keyboard-response","385","333149","0.0-1.0-528.0-0.0","0","0","72200","","null","","","null","58","","","","","","","","","","","","","","","",""
"","ITI","","html-keyboard-response","386","334158","0.0-1.0-531.0","0","0","72200","","null","","","null","58","","","","","","","","","","","","","","","NaN",""
"","S1","","html-keyboard-response","387","334413","0.0-1.0-533.0","0","0","72200","","null","","","null","59","","","","","","","","","","","","","","","",""
"","ISI","","html-keyboard-response","388","334573","0.0-1.0-534.0","0","0","72200","","null","","","null","59","NaN","","","","","","","","","","","","","","",""
"","S2","","html-keyboard-response","389","334830","0.0-1.0-535.0","0","0","72200","","null","","","null","59","","NaN","","","","","","","","","","","","","",""
"","response","","html-keyboard-response","390","334997","0.0-1.0-536.0-0.0","0","0","72200","","164","","","75","59","","","2","59","training","adjacent","FG","6","7","O.jpg","N.jpg","0","1","0","",""
"","feedback","","html-keyboard-response","391","336006","0.0-1.0-537.0-0.0","0","0","72200","","null","","","null","59","","","","","","","","","","","","","","","",""
"","time_out","","html-keyboard-response","392","338014","0.0-1.0-539.0-0.0","0","0","72200","","null","","","null","59","","","","","","","","","","","","","","","",""
"","ITI","","html-keyboard-response","393","339022","0.0-1.0-540.0","0","0","72200","","null","","","null","59","","","","","","","","","","","","","","","NaN",""
"","S1","","html-keyboard-response","394","339278","0.0-1.0-542.0","0","0","72200","","null","","","null","60","","","","","","","","","","","","","","","",""
"","ISI","","html-keyboard-response","395","339438","0.0-1.0-543.0","0","0","72200","","null","","","null","60","NaN","","","","","","","","","","","","","","",""
"","S2","","html-keyboard-response","396","339694","0.0-1.0-544.0","0","0","72200","","null","","","null","60","","NaN","","","","","","","","","","","","","",""
"","response","","html-keyboard-response","397","339741","0.0-1.0-545.0-0.0","0","0","72200","","44","","","68","60","","","2","60","training","adjacent","BA","2","1","R.jpg","M.jpg","1","0","0","",""
"","feedback","","html-keyboard-response","398","340750","0.0-1.0-546.0-0.0","0","0","72200","","null","","","null","60","","","","","","","","","","","","","","","",""
"","time_out","","html-keyboard-response","399","342758","0.0-1.0-548.0-0.0","0","0","72200","","null","","","null","60","","","","","","","","","","","","","","","",""
"","ITI","","html-keyboard-response","400","343765","0.0-1.0-549.0","0","0","72200","","null","","","null","60","","","","","","","","","","","","","","","NaN",""
"","S1","","html-keyboard-response","401","344021","0.0-1.0-551.0","0","0","72200","","null","","","null","61","","","","","","","","","","","","","","","",""
"","ISI","","html-keyboard-response","402","344181","0.0-1.0-552.0","0","0","72200","","null","","","null","61","NaN","","","","","","","","","","","","","","",""
"","S2","","html-keyboard-response","403","344437","0.0-1.0-553.0","0","0","72200","","null","","","null","61","","NaN","","","","","","","","","","","","","",""
"","response","","html-keyboard-response","404","344496","0.0-1.0-554.0-0.0","0","0","72200","","57","","","75","61","","","2","61","training","adjacent","CD","3","4","Q.jpg","P.jpg","0","1","0","",""
"","feedback","","html-keyboard-response","405","345501","0.0-1.0-555.0-0.0","0","0","72200","","null","","","null","61","","","","","","","","","","","","","","","",""
"","time_out","","html-keyboard-response","406","347509","0.0-1.0-557.0-0.0","0","0","72200","","null","","","null","61","","","","","","","","","","","","","","","",""
"","ITI","","html-keyboard-response","407","348517","0.0-1.0-558.0","0","0","72200","","null","","","null","61","","","","","","","","","","","","","","","NaN",""
"","S1","","html-keyboard-response","408","348773","0.0-1.0-560.0","0","0","72200","","null","","","null","62","","","","","","","","","","","","","","","",""
"","ISI","","html-keyboard-response","409","348933","0.0-1.0-561.0","0","0","72200","","null","","","null","62","NaN","","","","","","","","","","","","","","",""
"","S2","","html-keyboard-response","410","349189","0.0-1.0-562.0","0","0","72200","","null","","","null","62","","NaN","","","","","","","","","","","","","",""
"","response","","html-keyboard-response","411","349293","0.0-1.0-563.0-0.0","0","0","72200","","101","","","75","62","","","2","62","training","adjacent","EF","5","6","L.jpg","O.jpg","0","1","0","",""
"","feedback","","html-keyboard-response","412","350301","0.0-1.0-564.0-0.0","0","0","72200","","null","","","null","62","","","","","","","","","","","","","","","",""
"","time_out","","html-keyboard-response","413","352309","0.0-1.0-566.0-0.0","0","0","72200","","null","","","null","62","","","","","","","","","","","","","","","",""
"","ITI","","html-keyboard-response","414","353318","0.0-1.0-567.0","0","0","72200","","null","","","null","62","","","","","","","","","","","","","","","NaN",""
"","S1","","html-keyboard-response","415","353574","0.0-1.0-569.0","0","0","72200","","null","","","null","63","","","","","","","","","","","","","","","",""
"","ISI","","html-keyboard-response","416","353734","0.0-1.0-570.0","0","0","72200","","null","","","null","63","NaN","","","","","","","","","","","","","","",""
"","S2","","html-keyboard-response","417","353990","0.0-1.0-571.0","0","0","72200","","null","","","null","63","","NaN","","","","","","","","","","","","","",""
"","response","","html-keyboard-response","418","354128","0.0-1.0-572.0-0.0","0","0","72200","","134","","","75","63","","","2","63","training","adjacent","EF","5","6","L.jpg","O.jpg","0","1","0","",""
"","feedback","","html-keyboard-response","419","355134","0.0-1.0-573.0-0.0","0","0","72200","","null","","","null","63","","","","","","","","","","","","","","","",""
"","time_out","","html-keyboard-response","420","357142","0.0-1.0-575.0-0.0","0","0","72200","","null","","","null","63","","","","","","","","","","","","","","","",""
"","ITI","","html-keyboard-response","421","358150","0.0-1.0-576.0","0","0","72200","","null","","","null","63","","","","","","","","","","","","","","","NaN",""
"","S1","","html-keyboard-response","422","358406","0.0-1.0-578.0","0","0","72200","","null","","","null","64","","","","","","","","","","","","","","","",""
"","ISI","","html-keyboard-response","423","358566","0.0-1.0-579.0","0","0","72200","","null","","","null","64","NaN","","","","","","","","","","","","","","",""
"","S2","","html-keyboard-response","424","358822","0.0-1.0-580.0","0","0","72200","","null","","","null","64","","NaN","","","","","","","","","","","","","",""
"","response","","html-keyboard-response","425","358956","0.0-1.0-581.0-0.0","0","0","72200","","131","","","68","64","","","2","64","training","adjacent","AB","1","2","M.jpg","R.jpg","1","1","1","",""
"","feedback","","html-keyboard-response","426","359966","0.0-1.0-582.0-0.0","0","0","72200","","null","","","null","64","","","","","","","","","","","","","","","",""
"","ITI","","html-keyboard-response","427","360974","0.0-1.0-585.0","0","0","72200","","null","","","null","64","","","","","","","","","","","","","","","NaN",""
"","S1","","html-keyboard-response","428","361230","0.0-1.0-587.0","0","0","72200","","null","","","null","65","","","","","","","","","","","","","","","",""
"","ISI","","html-keyboard-response","429","361390","0.0-1.0-588.0","0","0","72200","","null","","","null","65","NaN","","","","","","","","","","","","","","",""
"","S2","","html-keyboard-response","430","361646","0.0-1.0-589.0","0","0","72200","","null","","","null","65","","NaN","","","","","","","","","","","","","",""
"","response","","html-keyboard-response","431","361738","0.0-1.0-590.0-0.0","0","0","72200","","89","","","75","65","","","2","65","training","adjacent","GF","7","6","N.jpg","O.jpg","0","0","1","",""
"","feedback","","html-keyboard-response","432","362750","0.0-1.0-591.0-0.0","0","0","72200","","null","","","null","65","","","","","","","","","","","","","","","",""
"","ITI","","html-keyboard-response","433","363758","0.0-1.0-594.0","0","0","72200","","null","","","null","65","","","","","","","","","","","","","","","NaN",""
"","S1","","html-keyboard-response","434","364014","0.0-1.0-596.0","0","0","72200","","null","","","null","66","","","","","","","","","","","","","","","",""
"","ISI","","html-keyboard-response","435","364174","0.0-1.0-597.0","0","0","72200","","null","","","null","66","NaN","","","","","","","","","","","","","","",""
"","S2","","html-keyboard-response","436","364430","0.0-1.0-598.0","0","0","72200","","null","","","null","66","","NaN","","","","","","","","","","","","","",""
"","response","","html-keyboard-response","437","364514","0.0-1.0-599.0-0.0","0","0","72200","","80","","","68","66","","","2","66","training","adjacent","EF","5","6","L.jpg","O.jpg","1","1","1","",""
"","feedback","","html-keyboard-response","438","365527","0.0-1.0-600.0-0.0","0","0","72200","","null","","","null","66","","","","","","","","","","","","","","","",""
"","ITI","","html-keyboard-response","439","366535","0.0-1.0-603.0","0","0","72200","","null","","","null","66","","","","","","","","","","","","","","","NaN",""
"","S1","","html-keyboard-response","440","366790","0.0-1.0-605.0","0","0","72200","","null","","","null","67","","","","","","","","","","","","","","","",""
"","ISI","","html-keyboard-response","441","366950","0.0-1.0-606.0","0","0","72200","","null","","","null","67","NaN","","","","","","","","","","","","","","",""
"","S2","","html-keyboard-response","442","367206","0.0-1.0-607.0","0","0","72200","","null","","","null","67","","NaN","","","","","","","","","","","","","",""
"","response","","html-keyboard-response","443","367393","0.0-1.0-608.0-0.0","0","0","72200","","184","","","75","67","","","2","67","training","adjacent","FE","6","5","O.jpg","L.jpg","0","0","1","",""
"","feedback","","html-keyboard-response","444","368398","0.0-1.0-609.0-0.0","0","0","72200","","null","","","null","67","","","","","","","","","","","","","","","",""
"","ITI","","html-keyboard-response","445","369406","0.0-1.0-612.0","0","0","72200","","null","","","null","67","","","","","","","","","","","","","","","NaN",""
"","S1","","html-keyboard-response","446","369662","0.0-1.0-614.0","0","0","72200","","null","","","null","68","","","","","","","","","","","","","","","",""
"","ISI","","html-keyboard-response","447","369822","0.0-1.0-615.0","0","0","72200","","null","","","null","68","NaN","","","","","","","","","","","","","","",""
"","S2","","html-keyboard-response","448","370078","0.0-1.0-616.0","0","0","72200","","null","","","null","68","","NaN","","","","","","","","","","","","","",""
"","response","","html-keyboard-response","449","370207","0.0-1.0-617.0-0.0","0","0","72200","","126","","","68","68","","","2","68","training","adjacent","FG","6","7","O.jpg","N.jpg","1","1","1","",""
"","feedback","","html-keyboard-response","450","371214","0.0-1.0-618.0-0.0","0","0","72200","","null","","","null","68","","","","","","","","","","","","","","","",""
"","ITI","","html-keyboard-response","451","372222","0.0-1.0-621.0","0","0","72200","","null","","","null","68","","","","","","","","","","","","","","","NaN",""
"","S1","","html-keyboard-response","452","372478","0.0-1.0-623.0","0","0","72200","","null","","","null","69","","","","","","","","","","","","","","","",""
"","ISI","","html-keyboard-response","453","372638","0.0-1.0-624.0","0","0","72200","","null","","","null","69","NaN","","","","","","","","","","","","","","",""
"","S2","","html-keyboard-response","454","372894","0.0-1.0-625.0","0","0","72200","","null","","","null","69","","NaN","","","","","","","","","","","","","",""
"","response","","html-keyboard-response","455","372942","0.0-1.0-626.0-0.0","0","0","72200","","45","","","75","69","","","2","69","training","adjacent","CD","3","4","Q.jpg","P.jpg","0","1","0","",""
"","feedback","","html-keyboard-response","456","373950","0.0-1.0-627.0-0.0","0","0","72200","","null","","","null","69","","","","","","","","","","","","","","","",""
"","time_out","","html-keyboard-response","457","375958","0.0-1.0-629.0-0.0","0","0","72200","","null","","","null","69","","","","","","","","","","","","","","","",""
"","ITI","","html-keyboard-response","458","376966","0.0-1.0-630.0","0","0","72200","","null","","","null","69","","","","","","","","","","","","","","","NaN",""
"","S1","","html-keyboard-response","459","377222","0.0-1.0-632.0","0","0","72200","","null","","","null","70","","","","","","","","","","","","","","","",""
"","ISI","","html-keyboard-response","460","377382","0.0-1.0-633.0","0","0","72200","","null","","","null","70","NaN","","","","","","","","","","","","","","",""
"","S2","","html-keyboard-response","461","377638","0.0-1.0-634.0","0","0","72200","","null","","","null","70","","NaN","","","","","","","","","","","","","",""
"","response","","html-keyboard-response","462","377702","0.0-1.0-635.0-0.0","0","0","72200","","62","","","68","70","","","2","70","training","adjacent","DE","4","5","P.jpg","L.jpg","1","1","1","",""
"","feedback","","html-keyboard-response","463","378710","0.0-1.0-636.0-0.0","0","0","72200","","null","","","null","70","","","","","","","","","","","","","","","",""
"","ITI","","html-keyboard-response","464","379718","0.0-1.0-639.0","0","0","72200","","null","","","null","70","","","","","","","","","","","","","","","NaN",""
"","S1","","html-keyboard-response","465","379974","0.0-1.0-641.0","0","0","72200","","null","","","null","71","","","","","","","","","","","","","","","",""
"","ISI","","html-keyboard-response","466","380134","0.0-1.0-642.0","0","0","72200","","null","","","null","71","NaN","","","","","","","","","","","","","","",""
"","S2","","html-keyboard-response","467","380390","0.0-1.0-643.0","0","0","72200","","null","","","null","71","","NaN","","","","","","","","","","","","","",""
"","response","","html-keyboard-response","468","380534","0.0-1.0-644.0-0.0","0","0","72200","","141","","","68","71","","","2","71","training","adjacent","BC","2","3","R.jpg","Q.jpg","1","1","1","",""
"","feedback","","html-keyboard-response","469","381542","0.0-1.0-645.0-0.0","0","0","72200","","null","","","null","71","","","","","","","","","","","","","","","",""
"","ITI","","html-keyboard-response","470","382550","0.0-1.0-648.0","0","0","72200","","null","","","null","71","","","","","","","","","","","","","","","NaN",""
"","S1","","html-keyboard-response","471","382806","0.0-1.0-650.0","0","0","72200","","null","","","null","72","","","","","","","","","","","","","","","",""
"","ISI","","html-keyboard-response","472","382966","0.0-1.0-651.0","0","0","72200","","null","","","null","72","NaN","","","","","","","","","","","","","","",""
"","S2","","html-keyboard-response","473","383222","0.0-1.0-652.0","0","0","72200","","null","","","null","72","","NaN","","","","","","","","","","","","","",""
"","response","","html-keyboard-response","474","383319","0.0-1.0-653.0-0.0","0","0","72200","","93","","","75","72","","","2","72","training","adjacent","AB","1","2","M.jpg","R.jpg","0","1","0","",""
"","feedback","","html-keyboard-response","475","384326","0.0-1.0-654.0-0.0","0","0","72200","","null","","","null","72","","","","","","","","","","","","","","","",""
"","time_out","","html-keyboard-response","476","386334","0.0-1.0-656.0-0.0","0","0","72200","","null","","","null","72","","","","","","","","","","","","","","","",""
"","ITI","","html-keyboard-response","477","387343","0.0-1.0-657.0","0","0","72200","","null","","","null","72","","","","","","","","","","","","","","","NaN",""
"","S1","","html-keyboard-response","478","387598","0.0-1.0-659.0","0","0","72200","","null","","","null","73","","","","","","","","","","","","","","","",""
"","ISI","","html-keyboard-response","479","387759","0.0-1.0-660.0","0","0","72200","","null","","","null","73","NaN","","","","","","","","","","","","","","",""
"","S2","","html-keyboard-response","480","388015","0.0-1.0-661.0","0","0","72200","","null","","","null","73","","NaN","","","","","","","","","","","","","",""
"","response","","html-keyboard-response","481","388068","0.0-1.0-662.0-0.0","0","0","72200","","50","","","75","73","","","2","73","training","adjacent","ED","5","4","L.jpg","P.jpg","0","0","1","",""
"","feedback","","html-keyboard-response","482","389079","0.0-1.0-663.0-0.0","0","0","72200","","null","","","null","73","","","","","","","","","","","","","","","",""
"","ITI","","html-keyboard-response","483","390087","0.0-1.0-666.0","0","0","72200","","null","","","null","73","","","","","","","","","","","","","","","NaN",""
"","S1","","html-keyboard-response","484","390342","0.0-1.0-668.0","0","0","72200","","null","","","null","74","","","","","","","","","","","","","","","",""
"","ISI","","html-keyboard-response","485","390501","0.0-1.0-669.0","0","0","72200","","null","","","null","74","NaN","","","","","","","","","","","","","","",""
"","S2","","html-keyboard-response","486","390722","0.0-1.0-670.0","0","0","72200","","217","","","68","74","","d","2","74","training","adjacent","BA","2","1","R.jpg","M.jpg","1","0","0","",""
"","feedback","","html-keyboard-response","487","391734","0.0-1.0-672.0-0.0","0","0","72200","","null","","","null","74","","","","","","","","","","","","","","","",""
"","time_out","","html-keyboard-response","488","393742","0.0-1.0-674.0-0.0","0","0","72200","","null","","","null","74","","","","","","","","","","","","","","","",""
"","ITI","","html-keyboard-response","489","394750","0.0-1.0-675.0","0","0","72200","","null","","","null","74","","","","","","","","","","","","","","","NaN",""
"","S1","","html-keyboard-response","490","395006","0.0-1.0-677.0","0","0","72200","","null","","","null","75","","","","","","","","","","","","","","","",""
"","ISI","","html-keyboard-response","491","395166","0.0-1.0-678.0","0","0","72200","","null","","","null","75","NaN","","","","","","","","","","","","","","",""
"","S2","","html-keyboard-response","492","395422","0.0-1.0-679.0","0","0","72200","","null","","","null","75","","NaN","","","","","","","","","","","","","",""
"","response","","html-keyboard-response","493","395517","0.0-1.0-680.0-0.0","0","0","72200","","92","","","75","75","","","2","75","training","adjacent","GF","7","6","N.jpg","O.jpg","0","0","1","",""
"","feedback","","html-keyboard-response","494","396526","0.0-1.0-681.0-0.0","0","0","72200","","null","","","null","75","","","","","","","","","","","","","","","",""
"","ITI","","html-keyboard-response","495","397534","0.0-1.0-684.0","0","0","72200","","null","","","null","75","","","","","","","","","","","","","","","NaN",""
"","S1","","html-keyboard-response","496","397790","0.0-1.0-686.0","0","0","72200","","null","","","null","76","","","","","","","","","","","","","","","",""
"","ISI","","html-keyboard-response","497","397950","0.0-1.0-687.0","0","0","72200","","null","","","null","76","NaN","","","","","","","","","","","","","","",""
"","S2","","html-keyboard-response","498","398206","0.0-1.0-688.0","0","0","72200","","null","","","null","76","","NaN","","","","","","","","","","","","","",""
"","response","","html-keyboard-response","499","398238","0.0-1.0-689.0-0.0","0","0","72200","","29","","","68","76","","","2","76","training","adjacent","CD","3","4","Q.jpg","P.jpg","1","1","1","",""
"","feedback","","html-keyboard-response","500","399246","0.0-1.0-690.0-0.0","0","0","72200","","null","","","null","76","","","","","","","","","","","","","","","",""
"","ITI","","html-keyboard-response","501","400254","0.0-1.0-693.0","0","0","72200","","null","","","null","76","","","","","","","","","","","","","","","NaN",""
"","S1","","html-keyboard-response","502","400510","0.0-1.0-695.0","0","0","72200","","null","","","null","77","","","","","","","","","","","","","","","",""
"","ISI","","html-keyboard-response","503","400670","0.0-1.0-696.0","0","0","72200","","null","","","null","77","NaN","","","","","","","","","","","","","","",""
"","S2","","html-keyboard-response","504","400926","0.0-1.0-697.0","0","0","72200","","null","","","null","77","","NaN","","","","","","","","","","","","","",""
"","response","","html-keyboard-response","505","400953","0.0-1.0-698.0-0.0","0","0","72200","","24","","","75","77","","","2","77","training","adjacent","CB","3","2","Q.jpg","R.jpg","0","0","1","",""
"","feedback","","html-keyboard-response","506","401958","0.0-1.0-699.0-0.0","0","0","72200","","null","","","null","77","","","","","","","","","","","","","","","",""
"","ITI","","html-keyboard-response","507","402966","0.0-1.0-702.0","0","0","72200","","null","","","null","77","","","","","","","","","","","","","","","NaN",""
"","S1","","html-keyboard-response","508","403222","0.0-1.0-704.0","0","0","72200","","null","","","null","78","","","","","","","","","","","","","","","",""
"","ISI","","html-keyboard-response","509","403382","0.0-1.0-705.0","0","0","72200","","null","","","null","78","NaN","","","","","","","","","","","","","","",""
"","S2","","html-keyboard-response","510","403600","0.0-1.0-706.0","0","0","72200","","214","","","68","78","","d","2","78","training","adjacent","DC","4","3","P.jpg","Q.jpg","1","0","0","",""
"","feedback","","html-keyboard-response","511","404606","0.0-1.0-708.0-0.0","0","0","72200","","null","","","null","78","","","","","","","","","","","","","","","",""
"","time_out","","html-keyboard-response","512","406614","0.0-1.0-710.0-0.0","0","0","72200","","null","","","null","78","","","","","","","","","","","","","","","",""
"","ITI","","html-keyboard-response","513","407622","0.0-1.0-711.0","0","0","72200","","null","","","null","78","","","","","","","","","","","","","","","NaN",""
"","S1","","html-keyboard-response","514","407878","0.0-1.0-713.0","0","0","72200","","null","","","null","79","","","","","","","","","","","","","","","",""
"","ISI","","html-keyboard-response","515","408038","0.0-1.0-714.0","0","0","72200","","null","","","null","79","NaN","","","","","","","","","","","","","","",""
"","S2","","html-keyboard-response","516","408294","0.0-1.0-715.0","0","0","72200","","null","","","null","79","","NaN","","","","","","","","","","","","","",""
"","response","","html-keyboard-response","517","408324","0.0-1.0-716.0-0.0","0","0","72200","","27","","","75","79","","","2","79","training","adjacent","FE","6","5","O.jpg","L.jpg","0","0","1","",""
"","feedback","","html-keyboard-response","518","409334","0.0-1.0-717.0-0.0","0","0","72200","","null","","","null","79","","","","","","","","","","","","","","","",""
"","ITI","","html-keyboard-response","519","410343","0.0-1.0-720.0","0","0","72200","","null","","","null","79","","","","","","","","","","","","","","","NaN",""
"","S1","","html-keyboard-response","520","410598","0.0-1.0-722.0","0","0","72200","","null","","","null","80","","","","","","","","","","","","","","","",""
"","ISI","","html-keyboard-response","521","410758","0.0-1.0-723.0","0","0","72200","","null","","","null","80","NaN","","","","","","","","","","","","","","",""
"","S2","","html-keyboard-response","522","411015","0.0-1.0-724.0","0","0","72200","","null","","","null","80","","NaN","","","","","","","","","","","","","",""
"","response","","html-keyboard-response","523","411126","0.0-1.0-725.0-0.0","0","0","72200","","108","","","68","80","","","2","80","training","adjacent","CB","3","2","Q.jpg","R.jpg","1","0","0","",""
"","feedback","","html-keyboard-response","524","412135","0.0-1.0-726.0-0.0","0","0","72200","","null","","","null","80","","","","","","","","","","","","","","","",""
"","time_out","","html-keyboard-response","525","414143","0.0-1.0-728.0-0.0","0","0","72200","","null","","","null","80","","","","","","","","","","","","","","","",""
"","ITI","","html-keyboard-response","526","415151","0.0-1.0-729.0","0","0","72200","","null","","","null","80","","","","","","","","","","","","","","","NaN",""
"","S1","","html-keyboard-response","527","415407","0.0-1.0-731.0","0","0","72200","","null","","","null","81","","","","","","","","","","","","","","","",""
"","ISI","","html-keyboard-response","528","415567","0.0-1.0-732.0","0","0","72200","","null","","","null","81","NaN","","","","","","","","","","","","","","",""
"","S2","","html-keyboard-response","529","415823","0.0-1.0-733.0","0","0","72200","","null","","","null","81","","NaN","","","","","","","","","","","","","",""
"","response","","html-keyboard-response","530","415991","0.0-1.0-734.0-0.0","0","0","72200","","164","","","68","81","","","2","81","training","adjacent","DE","4","5","P.jpg","L.jpg","1","1","1","",""
"","feedback","","html-keyboard-response","531","416999","0.0-1.0-735.0-0.0","0","0","72200","","null","","","null","81","","","","","","","","","","","","","","","",""
"","ITI","","html-keyboard-response","532","418007","0.0-1.0-738.0","0","0","72200","","null","","","null","81","","","","","","","","","","","","","","","NaN",""
"","S1","","html-keyboard-response","533","418263","0.0-1.0-740.0","0","0","72200","","null","","","null","82","","","","","","","","","","","","","","","",""
"","ISI","","html-keyboard-response","534","418423","0.0-1.0-741.0","0","0","72200","","null","","","null","82","NaN","","","","","","","","","","","","","","",""
"","S2","","html-keyboard-response","535","418680","0.0-1.0-742.0","0","0","72200","","null","","","null","82","","NaN","","","","","","","","","","","","","",""
"","response","","html-keyboard-response","536","418790","0.0-1.0-743.0-0.0","0","0","72200","","107","","","75","82","","","2","82","training","adjacent","DC","4","3","P.jpg","Q.jpg","0","0","1","",""
"","feedback","","html-keyboard-response","537","419800","0.0-1.0-744.0-0.0","0","0","72200","","null","","","null","82","","","","","","","","","","","","","","","",""
"","ITI","","html-keyboard-response","538","420808","0.0-1.0-747.0","0","0","72200","","null","","","null","82","","","","","","","","","","","","","","","NaN",""
"","S1","","html-keyboard-response","539","421064","0.0-1.0-749.0","0","0","72200","","null","","","null","83","","","","","","","","","","","","","","","",""
"","ISI","","html-keyboard-response","540","421224","0.0-1.0-750.0","0","0","72200","","null","","","null","83","NaN","","","","","","","","","","","","","","",""
"","S2","","html-keyboard-response","541","421480","0.0-1.0-751.0","0","0","72200","","null","","","null","83","","NaN","","","","","","","","","","","","","",""
"","response","","html-keyboard-response","542","421529","0.0-1.0-752.0-0.0","0","0","72200","","46","","","68","83","","","2","83","training","adjacent","FE","6","5","O.jpg","L.jpg","1","0","0","",""
"","feedback","","html-keyboard-response","543","422536","0.0-1.0-753.0-0.0","0","0","72200","","null","","","null","83","","","","","","","","","","","","","","","",""
"","time_out","","html-keyboard-response","544","424544","0.0-1.0-755.0-0.0","0","0","72200","","null","","","null","83","","","","","","","","","","","","","","","",""
"","ITI","","html-keyboard-response","545","425552","0.0-1.0-756.0","0","0","72200","","null","","","null","83","","","","","","","","","","","","","","","NaN",""
"","S1","","html-keyboard-response","546","425808","0.0-1.0-758.0","0","0","72200","","null","","","null","84","","","","","","","","","","","","","","","",""
"","ISI","","html-keyboard-response","547","425968","0.0-1.0-759.0","0","0","72200","","null","","","null","84","NaN","","","","","","","","","","","","","","",""
"","S2","","html-keyboard-response","548","426224","0.0-1.0-760.0","0","0","72200","","null","","","null","84","","NaN","","","","","","","","","","","","","",""
"","response","","html-keyboard-response","549","426351","0.0-1.0-761.0-0.0","0","0","72200","","124","","","75","84","","","2","84","training","adjacent","ED","5","4","L.jpg","P.jpg","0","0","1","",""
"","feedback","","html-keyboard-response","550","427360","0.0-1.0-762.0-0.0","0","0","72200","","null","","","null","84","","","","","","","","","","","","","","","",""
"","ITI","","html-keyboard-response","551","428368","0.0-1.0-765.0","0","0","72200","","null","","","null","84","","","","","","","","","","","","","","","NaN",""
"","S1","","html-keyboard-response","552","428624","0.0-1.0-767.0","0","0","72200","","null","","","null","85","","","","","","","","","","","","","","","",""
"","ISI","","html-keyboard-response","553","428784","0.0-1.0-768.0","0","0","72200","","null","","","null","85","NaN","","","","","","","","","","","","","","",""
"","S2","","html-keyboard-response","554","429040","0.0-1.0-769.0","0","0","72200","","null","","","null","85","","NaN","","","","","","","","","","","","","",""
"","response","","html-keyboard-response","555","429124","0.0-1.0-770.0-0.0","0","0","72200","","81","","","68","85","","","2","85","training","adjacent","ED","5","4","L.jpg","P.jpg","1","0","0","",""
"","feedback","","html-keyboard-response","556","430136","0.0-1.0-771.0-0.0","0","0","72200","","null","","","null","85","","","","","","","","","","","","","","","",""
"","time_out","","html-keyboard-response","557","432144","0.0-1.0-773.0-0.0","0","0","72200","","null","","","null","85","","","","","","","","","","","","","","","",""
"","ITI","","html-keyboard-response","558","433152","0.0-1.0-774.0","0","0","72200","","null","","","null","85","","","","","","","","","","","","","","","NaN",""
"","S1","","html-keyboard-response","559","433408","0.0-1.0-776.0","0","0","72200","","null","","","null","86","","","","","","","","","","","","","","","",""
"","ISI","","html-keyboard-response","560","433568","0.0-1.0-777.0","0","0","72200","","null","","","null","86","NaN","","","","","","","","","","","","","","",""
"","S2","","html-keyboard-response","561","433824","0.0-1.0-778.0","0","0","72200","","null","","","null","86","","NaN","","","","","","","","","","","","","",""
"","response","","html-keyboard-response","562","433899","0.0-1.0-779.0-0.0","0","0","72200","","72","","","75","86","","","2","86","training","adjacent","DE","4","5","P.jpg","L.jpg","0","1","0","",""
"","feedback","","html-keyboard-response","563","434904","0.0-1.0-780.0-0.0","0","0","72200","","null","","","null","86","","","","","","","","","","","","","","","",""
"","time_out","","html-keyboard-response","564","436911","0.0-1.0-782.0-0.0","0","0","72200","","null","","","null","86","","","","","","","","","","","","","","","",""
"","ITI","","html-keyboard-response","565","437919","0.0-1.0-783.0","0","0","72200","","null","","","null","86","","","","","","","","","","","","","","","NaN",""
"","S1","","html-keyboard-response","566","438175","0.0-1.0-785.0","0","0","72200","","null","","","null","87","","","","","","","","","","","","","","","",""
"","ISI","","html-keyboard-response","567","438335","0.0-1.0-786.0","0","0","72200","","null","","","null","87","NaN","","","","","","","","","","","","","","",""
"","S2","","html-keyboard-response","568","438591","0.0-1.0-787.0","0","0","72200","","null","","","null","87","","NaN","","","","","","","","","","","","","",""
"","response","","html-keyboard-response","569","438760","0.0-1.0-788.0-0.0","0","0","72200","","165","","","75","87","","","2","87","training","adjacent","GF","7","6","N.jpg","O.jpg","0","0","1","",""
"","feedback","","html-keyboard-response","570","439767","0.0-1.0-789.0-0.0","0","0","72200","","null","","","null","87","","","","","","","","","","","","","","","",""
"","ITI","","html-keyboard-response","571","440775","0.0-1.0-792.0","0","0","72200","","null","","","null","87","","","","","","","","","","","","","","","NaN",""
"","S1","","html-keyboard-response","572","441031","0.0-1.0-794.0","0","0","72200","","null","","","null","88","","","","","","","","","","","","","","","",""
"","ISI","","html-keyboard-response","573","441191","0.0-1.0-795.0","0","0","72200","","null","","","null","88","NaN","","","","","","","","","","","","","","",""
"","S2","","html-keyboard-response","574","441447","0.0-1.0-796.0","0","0","72200","","null","","","null","88","","NaN","","","","","","","","","","","","","",""
"","response","","html-keyboard-response","575","441588","0.0-1.0-797.0-0.0","0","0","72200","","140","","","68","88","","","2","88","training","adjacent","ED","5","4","L.jpg","P.jpg","1","0","0","",""
"","feedback","","html-keyboard-response","576","442600","0.0-1.0-798.0-0.0","0","0","72200","","null","","","null","88","","","","","","","","","","","","","","","",""
"","time_out","","html-keyboard-response","577","444608","0.0-1.0-800.0-0.0","0","0","72200","","null","","","null","88","","","","","","","","","","","","","","","",""
"","ITI","","html-keyboard-response","578","445616","0.0-1.0-801.0","0","0","72200","","null","","","null","88","","","","","","","","","","","","","","","NaN",""
"","S1","","html-keyboard-response","579","445872","0.0-1.0-803.0","0","0","72200","","null","","","null","89","","","","","","","","","","","","","","","",""
"","ISI","","html-keyboard-response","580","446032","0.0-1.0-804.0","0","0","72200","","null","","","null","89","NaN","","","","","","","","","","","","","","",""
"","S2","","html-keyboard-response","581","446288","0.0-1.0-805.0","0","0","72200","","null","","","null","89","","NaN","","","","","","","","","","","","","",""
"","response","","html-keyboard-response","582","446315","0.0-1.0-806.0-0.0","0","0","72200","","22","","","75","89","","","2","89","training","adjacent","FE","6","5","O.jpg","L.jpg","0","0","1","",""
