"success","ttype","start_time","trial_type","trial_index","time_elapsed","internal_node_id","warning","missed_checkup","PID","view_history","rt","responses","repeat_instructions","key_press","index","keypress_isi","keypress_S2","block","trial_num","phase","group_type","pair_type","S1_stim","S2_stim","S1_img","S2_img","S1_chosen","S1_higher","accuracy","keypress_iti","total_bonus_tally"
"true","full_screen","d04062023hr2229","fullscreen","0","10241","0.0-0.0","0","0","77038","","","","","","","","","","","","","","","","","","","","","",""
"","instructions","","instructions","1","39627","0.0-1.0-0.0-0.0","0","0","77038","[{""page_index"":0,""viewing_time"":4116},{""page_index"":1,""viewing_time"":17232},{""page_index"":2,""viewing_time"":6759},{""page_index"":3,""viewing_time"":1276}]","29383","","","","","","","","","","","","","","","","","","","",""
"","comprehension_check","","survey-multi-choice","2","61623","0.0-1.0-0.0-1.0","0","0","77038","","21989","{""Q0"":""True"",""Q1"":""D"",""Q2"":""Only when the screen 'MAKE A CHOICE' is shown"",""Q3"":""Green mark"",""Q4"":""either D or K""}","1","","","","","","","","","","","","","","","","","",""
"","missed_instruction_checkup","","html-keyboard-response","3","63145","0.0-1.0-0.0-2.0-0.0","0","1","77038","","1519","","","32","","","","","","","","","","","","","","","","",""
"","instructions","","instructions","4","80627","0.0-1.0-0.1-0.1","0","0","77038","[{""page_index"":0,""viewing_time"":3417},{""page_index"":1,""viewing_time"":9227},{""page_index"":2,""viewing_time"":3706},{""page_index"":3,""viewing_time"":1129}]","17480","","","","","","","","","","","","","","","","","","","",""
"","comprehension_check","","survey-multi-choice","5","90778","0.0-1.0-0.1-1.1","0","0","77038","","10147","{""Q0"":""True"",""Q1"":""D"",""Q2"":""Once the second image appears and while the screen 'MAKE A CHOICE' is shown"",""Q3"":""Green mark"",""Q4"":""either D or K""}","0","","","","","","","","","","","","","","","","","",""
"","start_exp","","html-keyboard-response","6","91850","0.0-1.0-1.0","0","0","77038","","1069","","","32","","","","","","","","","","","","","","","","",""
"","S1","","html-keyboard-response","7","92009","0.0-1.0-2.0","0","0","77038","","null","","","null","0","","","","","","","","","","","","","","","",""
"","ISI","","html-keyboard-response","8","94017","0.0-1.0-3.0","0","0","77038","","null","","","null","0","NaN","","","","","","","","","","","","","","",""
"","S2","","html-keyboard-response","9","94174","0.0-1.0-4.0","0","0","77038","","null","","","null","0","","NaN","","","","","","","","","","","","","",""
"","response","","html-keyboard-response","10","96032","0.0-1.0-5.0-0.0","0","0","77038","","null","","","null","0","","","1","0","training","adjacent","CB","3","2","Q.jpg","R.jpg","NaN","0","0","",""
"","too_slow_prompt","","html-keyboard-response","11","97041","0.0-1.0-7.0-0.0","1","0","77038","","null","","","null","","","","","","","","","","","","","","","","",""
"","time_out","","html-keyboard-response","12","99045","0.0-1.0-8.0-0.0","0","0","77038","","null","","","null","0","","","","","","","","","","","","","","","",""
"","ITI","","html-keyboard-response","13","100053","0.0-1.0-9.0","0","0","77038","","null","","","null","0","","","","","","","","","","","","","","","NaN",""
"","S1","","html-keyboard-response","14","100217","0.0-1.0-11.0","0","0","77038","","null","","","null","1","","","","","","","","","","","","","","","",""
"","ISI","","html-keyboard-response","15","102221","0.0-1.0-12.0","0","0","77038","","null","","","null","1","NaN","","","","","","","","","","","","","","",""
"","S2","","html-keyboard-response","16","102381","0.0-1.0-13.0","0","0","77038","","null","","","null","1","","NaN","","","","","","","","","","","","","",""
"","response","","html-keyboard-response","17","102994","0.0-1.0-14.0-0.0","0","0","77038","","611","","","75","1","","","1","1","training","adjacent","AB","1","2","M.jpg","R.jpg","0","1","0","",""
"","feedback","","html-keyboard-response","18","104008","0.0-1.0-15.0-0.0","0","0","77038","","null","","","null","1","","","","","","","","","","","","","","","",""
"","time_out","","html-keyboard-response","19","106016","0.0-1.0-17.0-0.0","0","0","77038","","null","","","null","1","","","","","","","","","","","","","","","",""
"","ITI","","html-keyboard-response","20","107021","0.0-1.0-18.0","0","0","77038","","null","","","null","1","","","","","","","","","","","","","","","NaN",""
"","S1","","html-keyboard-response","21","107183","0.0-1.0-20.0","0","0","77038","","null","","","null","2","","","","","","","","","","","","","","","",""
"","ISI","","html-keyboard-response","22","109192","0.0-1.0-21.0","0","0","77038","","null","","","null","2","NaN","","","","","","","","","","","","","","",""
"","S2","","html-keyboard-response","23","109349","0.0-1.0-22.0","0","0","77038","","null","","","null","2","","NaN","","","","","","","","","","","","","",""
"","response","","html-keyboard-response","24","109978","0.0-1.0-23.0-0.0","0","0","77038","","627","","","68","2","","","1","2","training","adjacent","DC","4","3","P.jpg","Q.jpg","1","0","0","",""
"","feedback","","html-keyboard-response","25","110986","0.0-1.0-24.0-0.0","0","0","77038","","null","","","null","2","","","","","","","","","","","","","","","",""
"","time_out","","html-keyboard-response","26","112993","0.0-1.0-26.0-0.0","0","0","77038","","null","","","null","2","","","","","","","","","","","","","","","",""
"","ITI","","html-keyboard-response","27","113998","0.0-1.0-27.0","0","0","77038","","null","","","null","2","","","","","","","","","","","","","","","NaN",""
"","S1","","html-keyboard-response","28","114161","0.0-1.0-29.0","0","0","77038","","null","","","null","3","","","","","","","","","","","","","","","",""
"","ISI","","html-keyboard-response","29","116170","0.0-1.0-30.0","0","0","77038","","null","","","null","3","NaN","","","","","","","","","","","","","","",""
"","S2","","html-keyboard-response","30","116326","0.0-1.0-31.0","0","0","77038","","null","","","null","3","","NaN","","","","","","","","","","","","","",""
"","response","","html-keyboard-response","31","116994","0.0-1.0-32.0-0.0","0","0","77038","","666","","","68","3","","","1","3","training","adjacent","CD","3","4","Q.jpg","P.jpg","1","1","1","",""
"","feedback","","html-keyboard-response","32","118010","0.0-1.0-33.0-0.0","0","0","77038","","null","","","null","3","","","","","","","","","","","","","","","",""
"","ITI","","html-keyboard-response","33","119015","0.0-1.0-36.0","0","0","77038","","null","","","null","3","","","","","","","","","","","","","","","NaN",""
"","S1","","html-keyboard-response","34","119176","0.0-1.0-38.0","0","0","77038","","null","","","null","4","","","","","","","","","","","","","","","",""
"","ISI","","html-keyboard-response","35","121183","0.0-1.0-39.0","0","0","77038","","null","","","null","4","NaN","","","","","","","","","","","","","","",""
"","S2","","html-keyboard-response","36","121342","0.0-1.0-40.0","0","0","77038","","null","","","null","4","","NaN","","","","","","","","","","","","","",""
"","response","","html-keyboard-response","37","121949","0.0-1.0-41.0-0.0","0","0","77038","","605","","","68","4","","","1","4","training","adjacent","CD","3","4","Q.jpg","P.jpg","1","1","1","",""
"","feedback","","html-keyboard-response","38","122962","0.0-1.0-42.0-0.0","0","0","77038","","null","","","null","4","","","","","","","","","","","","","","","",""
"","ITI","","html-keyboard-response","39","123965","0.0-1.0-45.0","0","0","77038","","null","","","null","4","","","","","","","","","","","","","","","NaN",""
"","S1","","html-keyboard-response","40","124128","0.0-1.0-47.0","0","0","77038","","null","","","null","5","","","","","","","","","","","","","","","",""
"","ISI","","html-keyboard-response","41","126137","0.0-1.0-48.0","0","0","77038","","null","","","null","5","NaN","","","","","","","","","","","","","","",""
"","S2","","html-keyboard-response","42","126294","0.0-1.0-49.0","0","0","77038","","null","","","null","5","","NaN","","","","","","","","","","","","","",""
"","response","","html-keyboard-response","43","126907","0.0-1.0-50.0-0.0","0","0","77038","","612","","","68","5","","","1","5","training","adjacent","DE","4","5","P.jpg","O.jpg","1","1","1","",""
"","feedback","","html-keyboard-response","44","127920","0.0-1.0-51.0-0.0","0","0","77038","","null","","","null","5","","","","","","","","","","","","","","","",""
"","ITI","","html-keyboard-response","45","128929","0.0-1.0-54.0","0","0","77038","","null","","","null","5","","","","","","","","","","","","","","","NaN",""
"","S1","","html-keyboard-response","46","129086","0.0-1.0-56.0","0","0","77038","","null","","","null","6","","","","","","","","","","","","","","","",""
"","ISI","","html-keyboard-response","47","131095","0.0-1.0-57.0","0","0","77038","","null","","","null","6","NaN","","","","","","","","","","","","","","",""
"","S2","","html-keyboard-response","48","131258","0.0-1.0-58.0","0","0","77038","","null","","","null","6","","NaN","","","","","","","","","","","","","",""
"","response","","html-keyboard-response","49","131855","0.0-1.0-59.0-0.0","0","0","77038","","596","","","75","6","","","1","6","training","adjacent","FE","6","5","N.jpg","O.jpg","0","0","1","",""
"","feedback","","html-keyboard-response","50","132865","0.0-1.0-60.0-0.0","0","0","77038","","null","","","null","6","","","","","","","","","","","","","","","",""
"","ITI","","html-keyboard-response","51","133870","0.0-1.0-63.0","0","0","77038","","null","","","null","6","","","","","","","","","","","","","","","NaN",""
"","S1","","html-keyboard-response","52","134032","0.0-1.0-65.0","0","0","77038","","null","","","null","7","","","","","","","","","","","","","","","",""
"","ISI","","html-keyboard-response","53","136041","0.0-1.0-66.0","0","0","77038","","null","","","null","7","NaN","","","","","","","","","","","","","","",""
"","S2","","html-keyboard-response","54","136197","0.0-1.0-67.0","0","0","77038","","null","","","null","7","","NaN","","","","","","","","","","","","","",""
"","response","","html-keyboard-response","55","136875","0.0-1.0-68.0-0.0","0","0","77038","","676","","","75","7","","","1","7","training","adjacent","ED","5","4","O.jpg","P.jpg","0","0","1","",""
"","feedback","","html-keyboard-response","56","137887","0.0-1.0-69.0-0.0","0","0","77038","","null","","","null","7","","","","","","","","","","","","","","","",""
"","ITI","","html-keyboard-response","57","138897","0.0-1.0-72.0","0","0","77038","","null","","","null","7","","","","","","","","","","","","","","","NaN",""
"","S1","","html-keyboard-response","58","139054","0.0-1.0-74.0","0","0","77038","","null","","","null","8","","","","","","","","","","","","","","","",""
"","ISI","","html-keyboard-response","59","141063","0.0-1.0-75.0","0","0","77038","","null","","","null","8","NaN","","","","","","","","","","","","","","",""
"","S2","","html-keyboard-response","60","141225","0.0-1.0-76.0","0","0","77038","","null","","","null","8","","NaN","","","","","","","","","","","","","",""
"","response","","html-keyboard-response","61","142051","0.0-1.0-77.0-0.0","0","0","77038","","823","","","68","8","","","1","8","training","adjacent","FE","6","5","N.jpg","O.jpg","1","0","0","",""
"","feedback","","html-keyboard-response","62","143065","0.0-1.0-78.0-0.0","0","0","77038","","null","","","null","8","","","","","","","","","","","","","","","",""
"","time_out","","html-keyboard-response","63","145074","0.0-1.0-80.0-0.0","0","0","77038","","null","","","null","8","","","","","","","","","","","","","","","",""
"","ITI","","html-keyboard-response","64","146078","0.0-1.0-81.0","0","0","77038","","null","","","null","8","","","","","","","","","","","","","","","NaN",""
"","S1","","html-keyboard-response","65","146241","0.0-1.0-83.0","0","0","77038","","null","","","null","9","","","","","","","","","","","","","","","",""
"","ISI","","html-keyboard-response","66","148249","0.0-1.0-84.0","0","0","77038","","null","","","null","9","NaN","","","","","","","","","","","","","","",""
"","S2","","html-keyboard-response","67","148406","0.0-1.0-85.0","0","0","77038","","null","","","null","9","","NaN","","","","","","","","","","","","","",""
"","response","","html-keyboard-response","68","149057","0.0-1.0-86.0-0.0","0","0","77038","","650","","","75","9","","","1","9","training","adjacent","DC","4","3","P.jpg","Q.jpg","0","0","1","",""
"","feedback","","html-keyboard-response","69","150066","0.0-1.0-87.0-0.0","0","0","77038","","null","","","null","9","","","","","","","","","","","","","","","",""
"","ITI","","html-keyboard-response","70","151070","0.0-1.0-90.0","0","0","77038","","null","","","null","9","","","","","","","","","","","","","","","NaN",""
"","S1","","html-keyboard-response","71","151233","0.0-1.0-92.0","0","0","77038","","null","","","null","10","","","","","","","","","","","","","","","",""
"","ISI","","html-keyboard-response","72","153241","0.0-1.0-93.0","0","0","77038","","null","","","null","10","NaN","","","","","","","","","","","","","","",""
"","S2","","html-keyboard-response","73","153398","0.0-1.0-94.0","0","0","77038","","null","","","null","10","","NaN","","","","","","","","","","","","","",""
"","response","","html-keyboard-response","74","154092","0.0-1.0-95.0-0.0","0","0","77038","","692","","","75","10","","","1","10","training","adjacent","DE","4","5","P.jpg","O.jpg","0","1","0","",""
"","feedback","","html-keyboard-response","75","155104","0.0-1.0-96.0-0.0","0","0","77038","","null","","","null","10","","","","","","","","","","","","","","","",""
"","time_out","","html-keyboard-response","76","157114","0.0-1.0-98.0-0.0","0","0","77038","","null","","","null","10","","","","","","","","","","","","","","","",""
"","ITI","","html-keyboard-response","77","158121","0.0-1.0-99.0","0","0","77038","","null","","","null","10","","","","","","","","","","","","","","","NaN",""
"","S1","","html-keyboard-response","78","158281","0.0-1.0-101.0","0","0","77038","","null","","","null","11","","","","","","","","","","","","","","","",""
"","ISI","","html-keyboard-response","79","160288","0.0-1.0-102.0","0","0","77038","","null","","","null","11","NaN","","","","","","","","","","","","","","",""
"","S2","","html-keyboard-response","80","160451","0.0-1.0-103.0","0","0","77038","","null","","","null","11","","NaN","","","","","","","","","","","","","",""
"","response","","html-keyboard-response","81","160973","0.0-1.0-104.0-0.0","0","0","77038","","520","","","68","11","","","1","11","training","adjacent","BA","2","1","R.jpg","M.jpg","1","0","0","",""
"","feedback","","html-keyboard-response","82","161983","0.0-1.0-105.0-0.0","0","0","77038","","null","","","null","11","","","","","","","","","","","","","","","",""
"","time_out","","html-keyboard-response","83","163992","0.0-1.0-107.0-0.0","0","0","77038","","null","","","null","11","","","","","","","","","","","","","","","",""
"","ITI","","html-keyboard-response","84","165002","0.0-1.0-108.0","0","0","77038","","null","","","null","11","","","","","","","","","","","","","","","NaN",""
"","S1","","html-keyboard-response","85","165159","0.0-1.0-110.0","0","0","77038","","null","","","null","12","","","","","","","","","","","","","","","",""
"","ISI","","html-keyboard-response","86","167167","0.0-1.0-111.0","0","0","77038","","null","","","null","12","NaN","","","","","","","","","","","","","","",""
"","S2","","html-keyboard-response","87","167329","0.0-1.0-112.0","0","0","77038","","null","","","null","12","","NaN","","","","","","","","","","","","","",""
"","response","","html-keyboard-response","88","167876","0.0-1.0-113.0-0.0","0","0","77038","","545","","","75","12","","","1","12","training","adjacent","ED","5","4","O.jpg","P.jpg","0","0","1","",""
"","feedback","","html-keyboard-response","89","168888","0.0-1.0-114.0-0.0","0","0","77038","","null","","","null","12","","","","","","","","","","","","","","","",""
"","ITI","","html-keyboard-response","90","169896","0.0-1.0-117.0","0","0","77038","","null","","","null","12","","","","","","","","","","","","","","","NaN",""
"","S1","","html-keyboard-response","91","170059","0.0-1.0-119.0","0","0","77038","","null","","","null","13","","","","","","","","","","","","","","","",""
"","ISI","","html-keyboard-response","92","172067","0.0-1.0-120.0","0","0","77038","","null","","","null","13","NaN","","","","","","","","","","","","","","",""
"","S2","","html-keyboard-response","93","172224","0.0-1.0-121.0","0","0","77038","","null","","","null","13","","NaN","","","","","","","","","","","","","",""
"","response","","html-keyboard-response","94","172680","0.0-1.0-122.0-0.0","0","0","77038","","455","","","75","13","","","1","13","training","adjacent","BC","2","3","R.jpg","Q.jpg","0","1","0","",""
"","feedback","","html-keyboard-response","95","173687","0.0-1.0-123.0-0.0","0","0","77038","","null","","","null","13","","","","","","","","","","","","","","","",""
"","time_out","","html-keyboard-response","96","175696","0.0-1.0-125.0-0.0","0","0","77038","","null","","","null","13","","","","","","","","","","","","","","","",""
"","ITI","","html-keyboard-response","97","176706","0.0-1.0-126.0","0","0","77038","","null","","","null","13","","","","","","","","","","","","","","","NaN",""
"","S1","","html-keyboard-response","98","176863","0.0-1.0-128.0","0","0","77038","","null","","","null","14","","","","","","","","","","","","","","","",""
"","ISI","","html-keyboard-response","99","178871","0.0-1.0-129.0","0","0","77038","","null","","","null","14","NaN","","","","","","","","","","","","","","",""
"","S2","","html-keyboard-response","100","179034","0.0-1.0-130.0","0","0","77038","","null","","","null","14","","NaN","","","","","","","","","","","","","",""
"","response","","html-keyboard-response","101","179657","0.0-1.0-131.0-0.0","0","0","77038","","621","","","68","14","","","1","14","training","adjacent","FG","6","7","N.jpg","L.jpg","1","1","1","",""
"","feedback","","html-keyboard-response","102","180664","0.0-1.0-132.0-0.0","0","0","77038","","null","","","null","14","","","","","","","","","","","","","","","",""
"","ITI","","html-keyboard-response","103","181675","0.0-1.0-135.0","0","0","77038","","null","","","null","14","","","","","","","","","","","","","","","NaN",""
"","S1","","html-keyboard-response","104","181830","0.0-1.0-137.0","0","0","77038","","null","","","null","15","","","","","","","","","","","","","","","",""
"","ISI","","html-keyboard-response","105","183839","0.0-1.0-138.0","0","0","77038","","null","","","null","15","NaN","","","","","","","","","","","","","","",""
"","S2","","html-keyboard-response","106","184003","0.0-1.0-139.0","0","0","77038","","null","","","null","15","","NaN","","","","","","","","","","","","","",""
"","response","","html-keyboard-response","107","184530","0.0-1.0-140.0-0.0","0","0","77038","","526","","","75","15","","","1","15","training","adjacent","GF","7","6","L.jpg","N.jpg","0","0","1","",""
"","feedback","","html-keyboard-response","108","185535","0.0-1.0-141.0-0.0","0","0","77038","","null","","","null","15","","","","","","","","","","","","","","","",""
"","ITI","","html-keyboard-response","109","186544","0.0-1.0-144.0","0","0","77038","","null","","","null","15","","","","","","","","","","","","","","","NaN",""
"","S1","","html-keyboard-response","110","186704","0.0-1.0-146.0","0","0","77038","","null","","","null","16","","","","","","","","","","","","","","","",""
"","ISI","","html-keyboard-response","111","188713","0.0-1.0-147.0","0","0","77038","","null","","","null","16","NaN","","","","","","","","","","","","","","",""
"","S2","","html-keyboard-response","112","188872","0.0-1.0-148.0","0","0","77038","","null","","","null","16","","NaN","","","","","","","","","","","","","",""
"","response","","html-keyboard-response","113","189280","0.0-1.0-149.0-0.0","0","0","77038","","406","","","68","16","","","1","16","training","adjacent","CD","3","4","Q.jpg","P.jpg","1","1","1","",""
"","feedback","","html-keyboard-response","114","190289","0.0-1.0-150.0-0.0","0","0","77038","","null","","","null","16","","","","","","","","","","","","","","","",""
"","ITI","","html-keyboard-response","115","191294","0.0-1.0-153.0","0","0","77038","","null","","","null","16","","","","","","","","","","","","","","","NaN",""
"","S1","","html-keyboard-response","116","191449","0.0-1.0-155.0","0","0","77038","","null","","","null","17","","","","","","","","","","","","","","","",""
"","ISI","","html-keyboard-response","117","193459","0.0-1.0-156.0","0","0","77038","","null","","","null","17","NaN","","","","","","","","","","","","","","",""
"","S2","","html-keyboard-response","118","193615","0.0-1.0-157.0","0","0","77038","","null","","","null","17","","NaN","","","","","","","","","","","","","",""
"","response","","html-keyboard-response","119","194245","0.0-1.0-158.0-0.0","0","0","77038","","629","","","75","17","","","1","17","training","adjacent","AB","1","2","M.jpg","R.jpg","0","1","0","",""
"","feedback","","html-keyboard-response","120","195258","0.0-1.0-159.0-0.0","0","0","77038","","null","","","null","17","","","","","","","","","","","","","","","",""
"","time_out","","html-keyboard-response","121","197266","0.0-1.0-161.0-0.0","0","0","77038","","null","","","null","17","","","","","","","","","","","","","","","",""
"","ITI","","html-keyboard-response","122","198271","0.0-1.0-162.0","0","0","77038","","null","","","null","17","","","","","","","","","","","","","","","NaN",""
"","S1","","html-keyboard-response","123","198433","0.0-1.0-164.0","0","0","77038","","null","","","null","18","","","","","","","","","","","","","","","",""
"","ISI","","html-keyboard-response","124","200443","0.0-1.0-165.0","0","0","77038","","null","","","null","18","NaN","","","","","","","","","","","","","","",""
"","S2","","html-keyboard-response","125","200599","0.0-1.0-166.0","0","0","77038","","null","","","null","18","","NaN","","","","","","","","","","","","","",""
"","response","","html-keyboard-response","126","201090","0.0-1.0-167.0-0.0","0","0","77038","","489","","","68","18","","","1","18","training","adjacent","DE","4","5","P.jpg","O.jpg","1","1","1","",""
"","feedback","","html-keyboard-response","127","202097","0.0-1.0-168.0-0.0","0","0","77038","","null","","","null","18","","","","","","","","","","","","","","","",""
"","ITI","","html-keyboard-response","128","203106","0.0-1.0-171.0","0","0","77038","","null","","","null","18","","","","","","","","","","","","","","","NaN",""
"","S1","","html-keyboard-response","129","203264","0.0-1.0-173.0","0","0","77038","","null","","","null","19","","","","","","","","","","","","","","","",""
"","ISI","","html-keyboard-response","130","205273","0.0-1.0-174.0","0","0","77038","","null","","","null","19","NaN","","","","","","","","","","","","","","",""
"","S2","","html-keyboard-response","131","205433","0.0-1.0-175.0","0","0","77038","","null","","","null","19","","NaN","","","","","","","","","","","","","",""
"","response","","html-keyboard-response","132","205866","0.0-1.0-176.0-0.0","0","0","77038","","431","","","68","19","","","1","19","training","adjacent","BA","2","1","R.jpg","M.jpg","1","0","0","",""
"","feedback","","html-keyboard-response","133","206873","0.0-1.0-177.0-0.0","0","0","77038","","null","","","null","19","","","","","","","","","","","","","","","",""
"","time_out","","html-keyboard-response","134","208883","0.0-1.0-179.0-0.0","0","0","77038","","null","","","null","19","","","","","","","","","","","","","","","",""
"","ITI","","html-keyboard-response","135","209888","0.0-1.0-180.0","0","0","77038","","null","","","null","19","","","","","","","","","","","","","","","NaN",""
"","S1","","html-keyboard-response","136","210050","0.0-1.0-182.0","0","0","77038","","null","","","null","20","","","","","","","","","","","","","","","",""
"","ISI","","html-keyboard-response","137","212058","0.0-1.0-183.0","0","0","77038","","null","","","null","20","NaN","","","","","","","","","","","","","","",""
"","S2","","html-keyboard-response","138","212216","0.0-1.0-184.0","0","0","77038","","null","","","null","20","","NaN","","","","","","","","","","","","","",""
"","response","","html-keyboard-response","139","212714","0.0-1.0-185.0-0.0","0","0","77038","","497","","","75","20","","","1","20","training","adjacent","GF","7","6","L.jpg","N.jpg","0","0","1","",""
"","feedback","","html-keyboard-response","140","213725","0.0-1.0-186.0-0.0","0","0","77038","","null","","","null","20","","","","","","","","","","","","","","","",""
"","ITI","","html-keyboard-response","141","214736","0.0-1.0-189.0","0","0","77038","","null","","","null","20","","","","","","","","","","","","","","","NaN",""
"","S1","","html-keyboard-response","142","214897","0.0-1.0-191.0","0","0","77038","","null","","","null","21","","","","","","","","","","","","","","","",""
"","ISI","","html-keyboard-response","143","216906","0.0-1.0-192.0","0","0","77038","","null","","","null","21","NaN","","","","","","","","","","","","","","",""
"","S2","","html-keyboard-response","144","217067","0.0-1.0-193.0","0","0","77038","","null","","","null","21","","NaN","","","","","","","","","","","","","",""
"","response","","html-keyboard-response","145","217535","0.0-1.0-194.0-0.0","0","0","77038","","465","","","75","21","","","1","21","training","adjacent","BC","2","3","R.jpg","Q.jpg","0","1","0","",""
"","feedback","","html-keyboard-response","146","218548","0.0-1.0-195.0-0.0","0","0","77038","","null","","","null","21","","","","","","","","","","","","","","","",""
"","time_out","","html-keyboard-response","147","220551","0.0-1.0-197.0-0.0","0","0","77038","","null","","","null","21","","","","","","","","","","","","","","","",""
"","ITI","","html-keyboard-response","148","221561","0.0-1.0-198.0","0","0","77038","","null","","","null","21","","","","","","","","","","","","","","","NaN",""
"","S1","","html-keyboard-response","149","221724","0.0-1.0-200.0","0","0","77038","","null","","","null","22","","","","","","","","","","","","","","","",""
"","ISI","","html-keyboard-response","150","223732","0.0-1.0-201.0","0","0","77038","","null","","","null","22","NaN","","","","","","","","","","","","","","",""
"","S2","","html-keyboard-response","151","223889","0.0-1.0-202.0","0","0","77038","","null","","","null","22","","NaN","","","","","","","","","","","","","",""
"","response","","html-keyboard-response","152","224418","0.0-1.0-203.0-0.0","0","0","77038","","526","","","68","22","","","1","22","training","adjacent","EF","5","6","O.jpg","N.jpg","1","1","1","",""
"","feedback","","html-keyboard-response","153","225429","0.0-1.0-204.0-0.0","0","0","77038","","null","","","null","22","","","","","","","","","","","","","","","",""
"","ITI","","html-keyboard-response","154","226432","0.0-1.0-207.0","0","0","77038","","null","","","null","22","","","","","","","","","","","","","","","NaN",""
"","S1","","html-keyboard-response","155","226595","0.0-1.0-209.0","0","0","77038","","null","","","null","23","","","","","","","","","","","","","","","",""
"","ISI","","html-keyboard-response","156","228604","0.0-1.0-210.0","0","0","77038","","null","","","null","23","NaN","","","","","","","","","","","","","","",""
"","S2","","html-keyboard-response","157","228760","0.0-1.0-211.0","0","0","77038","","null","","","null","23","","NaN","","","","","","","","","","","","","",""
"","response","","html-keyboard-response","158","229188","0.0-1.0-212.0-0.0","0","0","77038","","427","","","75","23","","","1","23","training","adjacent","DC","4","3","P.jpg","Q.jpg","0","0","1","",""
"","feedback","","html-keyboard-response","159","230194","0.0-1.0-213.0-0.0","0","0","77038","","null","","","null","23","","","","","","","","","","","","","","","",""
"","ITI","","html-keyboard-response","160","231204","0.0-1.0-216.0","0","0","77038","","null","","","null","23","","","","","","","","","","","","","","","NaN",""
"","S1","","html-keyboard-response","161","231362","0.0-1.0-218.0","0","0","77038","","null","","","null","24","","","","","","","","","","","","","","","",""
"","ISI","","html-keyboard-response","162","233370","0.0-1.0-219.0","0","0","77038","","null","","","null","24","NaN","","","","","","","","","","","","","","",""
"","S2","","html-keyboard-response","163","233532","0.0-1.0-220.0","0","0","77038","","null","","","null","24","","NaN","","","","","","","","","","","","","",""
"","response","","html-keyboard-response","164","233960","0.0-1.0-221.0-0.0","0","0","77038","","426","","","68","24","","","1","24","training","adjacent","CB","3","2","Q.jpg","R.jpg","1","0","0","",""
"","feedback","","html-keyboard-response","165","234972","0.0-1.0-222.0-0.0","0","0","77038","","null","","","null","24","","","","","","","","","","","","","","","",""
"","time_out","","html-keyboard-response","166","236980","0.0-1.0-224.0-0.0","0","0","77038","","null","","","null","24","","","","","","","","","","","","","","","",""
"","ITI","","html-keyboard-response","167","237985","0.0-1.0-225.0","0","0","77038","","null","","","null","24","","","","","","","","","","","","","","","NaN",""
"","S1","","html-keyboard-response","168","238147","0.0-1.0-227.0","0","0","77038","","null","","","null","25","","","","","","","","","","","","","","","",""
"","ISI","","html-keyboard-response","169","240156","0.0-1.0-228.0","0","0","77038","","null","","","null","25","NaN","","","","","","","","","","","","","","",""
"","S2","","html-keyboard-response","170","240312","0.0-1.0-229.0","0","0","77038","","null","","","null","25","","NaN","","","","","","","","","","","","","",""
"","response","","html-keyboard-response","171","240701","0.0-1.0-230.0-0.0","0","0","77038","","386","","","75","25","","","1","25","training","adjacent","ED","5","4","O.jpg","P.jpg","0","0","1","",""
"","feedback","","html-keyboard-response","172","241704","0.0-1.0-231.0-0.0","0","0","77038","","null","","","null","25","","","","","","","","","","","","","","","",""
"","ITI","","html-keyboard-response","173","242715","0.0-1.0-234.0","0","0","77038","","null","","","null","25","","","","","","","","","","","","","","","NaN",""
"","S1","","html-keyboard-response","174","242876","0.0-1.0-236.0","0","0","77038","","null","","","null","26","","","","","","","","","","","","","","","",""
"","ISI","","html-keyboard-response","175","244881","0.0-1.0-237.0","0","0","77038","","null","","","null","26","NaN","","","","","","","","","","","","","","",""
"","S2","","html-keyboard-response","176","245045","0.0-1.0-238.0","0","0","77038","","null","","","null","26","","NaN","","","","","","","","","","","","","",""
"","response","","html-keyboard-response","177","245765","0.0-1.0-239.0-0.0","0","0","77038","","718","","","68","26","","","1","26","training","adjacent","CB","3","2","Q.jpg","R.jpg","1","0","0","",""
"","feedback","","html-keyboard-response","178","246773","0.0-1.0-240.0-0.0","0","0","77038","","null","","","null","26","","","","","","","","","","","","","","","",""
"","time_out","","html-keyboard-response","179","248777","0.0-1.0-242.0-0.0","0","0","77038","","null","","","null","26","","","","","","","","","","","","","","","",""
"","ITI","","html-keyboard-response","180","249787","0.0-1.0-243.0","0","0","77038","","null","","","null","26","","","","","","","","","","","","","","","NaN",""
"","S1","","html-keyboard-response","181","249949","0.0-1.0-245.0","0","0","77038","","null","","","null","27","","","","","","","","","","","","","","","",""
"","ISI","","html-keyboard-response","182","251952","0.0-1.0-246.0","0","0","77038","","null","","","null","27","NaN","","","","","","","","","","","","","","",""
"","S2","","html-keyboard-response","183","252114","0.0-1.0-247.0","0","0","77038","","null","","","null","27","","NaN","","","","","","","","","","","","","",""
"","response","","html-keyboard-response","184","252726","0.0-1.0-248.0-0.0","0","0","77038","","609","","","68","27","","","1","27","training","adjacent","FG","6","7","N.jpg","L.jpg","1","1","1","",""
"","feedback","","html-keyboard-response","185","253740","0.0-1.0-249.0-0.0","0","0","77038","","null","","","null","27","","","","","","","","","","","","","","","",""
"","ITI","","html-keyboard-response","186","254745","0.0-1.0-252.0","0","0","77038","","null","","","null","27","","","","","","","","","","","","","","","NaN",""
"","S1","","html-keyboard-response","187","254907","0.0-1.0-254.0","0","0","77038","","null","","","null","28","","","","","","","","","","","","","","","",""
"","ISI","","html-keyboard-response","188","256915","0.0-1.0-255.0","0","0","77038","","null","","","null","28","NaN","","","","","","","","","","","","","","",""
"","S2","","html-keyboard-response","189","257078","0.0-1.0-256.0","0","0","77038","","null","","","null","28","","NaN","","","","","","","","","","","","","",""
"","response","","html-keyboard-response","190","257752","0.0-1.0-257.0-0.0","0","0","77038","","671","","","75","28","","","1","28","training","adjacent","BA","2","1","R.jpg","M.jpg","0","0","1","",""
"","feedback","","html-keyboard-response","191","258762","0.0-1.0-258.0-0.0","0","0","77038","","null","","","null","28","","","","","","","","","","","","","","","",""
"","ITI","","html-keyboard-response","192","259772","0.0-1.0-261.0","0","0","77038","","null","","","null","28","","","","","","","","","","","","","","","NaN",""
"","S1","","html-keyboard-response","193","259929","0.0-1.0-263.0","0","0","77038","","null","","","null","29","","","","","","","","","","","","","","","",""
"","ISI","","html-keyboard-response","194","261940","0.0-1.0-264.0","0","0","77038","","null","","","null","29","NaN","","","","","","","","","","","","","","",""
"","S2","","html-keyboard-response","195","262099","0.0-1.0-265.0","0","0","77038","","null","","","null","29","","NaN","","","","","","","","","","","","","",""
"","response","","html-keyboard-response","196","262565","0.0-1.0-266.0-0.0","0","0","77038","","463","","","68","29","","","1","29","training","adjacent","CD","3","4","Q.jpg","P.jpg","1","1","1","",""
"","feedback","","html-keyboard-response","197","263574","0.0-1.0-267.0-0.0","0","0","77038","","null","","","null","29","","","","","","","","","","","","","","","",""
"","ITI","","html-keyboard-response","198","264578","0.0-1.0-270.0","0","0","77038","","null","","","null","29","","","","","","","","","","","","","","","NaN",""
"","S1","","html-keyboard-response","199","264741","0.0-1.0-272.0","0","0","77038","","null","","","null","30","","","","","","","","","","","","","","","",""
"","ISI","","html-keyboard-response","200","266749","0.0-1.0-273.0","0","0","77038","","null","","","null","30","NaN","","","","","","","","","","","","","","",""
"","S2","","html-keyboard-response","201","266906","0.0-1.0-274.0","0","0","77038","","null","","","null","30","","NaN","","","","","","","","","","","","","",""
"","response","","html-keyboard-response","202","267527","0.0-1.0-275.0-0.0","0","0","77038","","618","","","75","30","","","1","30","training","adjacent","BC","2","3","R.jpg","Q.jpg","0","1","0","",""
"","feedback","","html-keyboard-response","203","268537","0.0-1.0-276.0-0.0","0","0","77038","","null","","","null","30","","","","","","","","","","","","","","","",""
"","time_out","","html-keyboard-response","204","270545","0.0-1.0-278.0-0.0","0","0","77038","","null","","","null","30","","","","","","","","","","","","","","","",""
"","ITI","","html-keyboard-response","205","271556","0.0-1.0-279.0","0","0","77038","","null","","","null","30","","","","","","","","","","","","","","","NaN",""
"","S1","","html-keyboard-response","206","271714","0.0-1.0-281.0","0","0","77038","","null","","","null","31","","","","","","","","","","","","","","","",""
"","ISI","","html-keyboard-response","207","273721","0.0-1.0-282.0","0","0","77038","","null","","","null","31","NaN","","","","","","","","","","","","","","",""
"","S2","","html-keyboard-response","208","273884","0.0-1.0-283.0","0","0","77038","","null","","","null","31","","NaN","","","","","","","","","","","","","",""
"","response","","html-keyboard-response","209","274481","0.0-1.0-284.0-0.0","0","0","77038","","596","","","68","31","","","1","31","training","adjacent","EF","5","6","O.jpg","N.jpg","1","1","1","",""
"","feedback","","html-keyboard-response","210","275491","0.0-1.0-285.0-0.0","0","0","77038","","null","","","null","31","","","","","","","","","","","","","","","",""
"","ITI","","html-keyboard-response","211","276502","0.0-1.0-288.0","0","0","77038","","null","","","null","31","","","","","","","","","","","","","","","NaN",""
"","S1","","html-keyboard-response","212","276659","0.0-1.0-290.0","0","0","77038","","null","","","null","32","","","","","","","","","","","","","","","",""
"","ISI","","html-keyboard-response","213","278667","0.0-1.0-291.0","0","0","77038","","null","","","null","32","NaN","","","","","","","","","","","","","","",""
"","S2","","html-keyboard-response","214","278829","0.0-1.0-292.0","0","0","77038","","null","","","null","32","","NaN","","","","","","","","","","","","","",""
"","response","","html-keyboard-response","215","279393","0.0-1.0-293.0-0.0","0","0","77038","","563","","","75","32","","","1","32","training","adjacent","FE","6","5","N.jpg","O.jpg","0","0","1","",""
"","feedback","","html-keyboard-response","216","280403","0.0-1.0-294.0-0.0","0","0","77038","","null","","","null","32","","","","","","","","","","","","","","","",""
"","ITI","","html-keyboard-response","217","281413","0.0-1.0-297.0","0","0","77038","","null","","","null","32","","","","","","","","","","","","","","","NaN",""
"","S1","","html-keyboard-response","218","281570","0.0-1.0-299.0","0","0","77038","","null","","","null","33","","","","","","","","","","","","","","","",""
"","ISI","","html-keyboard-response","219","283579","0.0-1.0-300.0","0","0","77038","","null","","","null","33","NaN","","","","","","","","","","","","","","",""
"","S2","","html-keyboard-response","220","283741","0.0-1.0-301.0","0","0","77038","","null","","","null","33","","NaN","","","","","","","","","","","","","",""
"","response","","html-keyboard-response","221","284374","0.0-1.0-302.0-0.0","0","0","77038","","631","","","75","33","","","1","33","training","adjacent","BA","2","1","R.jpg","M.jpg","0","0","1","",""
"","feedback","","html-keyboard-response","222","285378","0.0-1.0-303.0-0.0","0","0","77038","","null","","","null","33","","","","","","","","","","","","","","","",""
"","ITI","","html-keyboard-response","223","286388","0.0-1.0-306.0","0","0","77038","","null","","","null","33","","","","","","","","","","","","","","","NaN",""
"","S1","","html-keyboard-response","224","286546","0.0-1.0-308.0","0","0","77038","","null","","","null","34","","","","","","","","","","","","","","","",""
"","ISI","","html-keyboard-response","225","288554","0.0-1.0-309.0","0","0","77038","","null","","","null","34","NaN","","","","","","","","","","","","","","",""
"","S2","","html-keyboard-response","226","288716","0.0-1.0-310.0","0","0","77038","","null","","","null","34","","NaN","","","","","","","","","","","","","",""
"","response","","html-keyboard-response","227","289362","0.0-1.0-311.0-0.0","0","0","77038","","643","","","75","34","","","1","34","training","adjacent","BC","2","3","R.jpg","Q.jpg","0","1","0","",""
"","feedback","","html-keyboard-response","228","290370","0.0-1.0-312.0-0.0","0","0","77038","","null","","","null","34","","","","","","","","","","","","","","","",""
"","time_out","","html-keyboard-response","229","292379","0.0-1.0-314.0-0.0","0","0","77038","","null","","","null","34","","","","","","","","","","","","","","","",""
"","ITI","","html-keyboard-response","230","293389","0.0-1.0-315.0","0","0","77038","","null","","","null","34","","","","","","","","","","","","","","","NaN",""
"","S1","","html-keyboard-response","231","293546","0.0-1.0-317.0","0","0","77038","","null","","","null","35","","","","","","","","","","","","","","","",""
"","ISI","","html-keyboard-response","232","295554","0.0-1.0-318.0","0","0","77038","","null","","","null","35","NaN","","","","","","","","","","","","","","",""
"","S2","","html-keyboard-response","233","295717","0.0-1.0-319.0","0","0","77038","","null","","","null","35","","NaN","","","","","","","","","","","","","",""
"","response","","html-keyboard-response","234","296174","0.0-1.0-320.0-0.0","0","0","77038","","454","","","68","35","","","1","35","training","adjacent","AB","1","2","M.jpg","R.jpg","1","1","1","",""
"","feedback","","html-keyboard-response","235","297180","0.0-1.0-321.0-0.0","0","0","77038","","null","","","null","35","","","","","","","","","","","","","","","",""
"","ITI","","html-keyboard-response","236","298190","0.0-1.0-324.0","0","0","77038","","null","","","null","35","","","","","","","","","","","","","","","NaN",""
"","S1","","html-keyboard-response","237","298347","0.0-1.0-326.0","0","0","77038","","null","","","null","36","","","","","","","","","","","","","","","",""
"","ISI","","html-keyboard-response","238","300355","0.0-1.0-327.0","0","0","77038","","null","","","null","36","NaN","","","","","","","","","","","","","","",""
"","S2","","html-keyboard-response","239","300518","0.0-1.0-328.0","0","0","77038","","null","","","null","36","","NaN","","","","","","","","","","","","","",""
"","response","","html-keyboard-response","240","301283","0.0-1.0-329.0-0.0","0","0","77038","","762","","","75","36","","","1","36","training","adjacent","FG","6","7","N.jpg","L.jpg","0","1","0","",""
"","feedback","","html-keyboard-response","241","302295","0.0-1.0-330.0-0.0","0","0","77038","","null","","","null","36","","","","","","","","","","","","","","","",""
"","time_out","","html-keyboard-response","242","304302","0.0-1.0-332.0-0.0","0","0","77038","","null","","","null","36","","","","","","","","","","","","","","","",""
"","ITI","","html-keyboard-response","243","305307","0.0-1.0-333.0","0","0","77038","","null","","","null","36","","","","","","","","","","","","","","","NaN",""
"","S1","","html-keyboard-response","244","305469","0.0-1.0-335.0","0","0","77038","","null","","","null","37","","","","","","","","","","","","","","","",""
"","ISI","","html-keyboard-response","245","307478","0.0-1.0-336.0","0","0","77038","","null","","","null","37","NaN","","","","","","","","","","","","","","",""
"","S2","","html-keyboard-response","246","307638","0.0-1.0-337.0","0","0","77038","","null","","","null","37","","NaN","","","","","","","","","","","","","",""
"","response","","html-keyboard-response","247","308159","0.0-1.0-338.0-0.0","0","0","77038","","519","","","75","37","","","1","37","training","adjacent","FE","6","5","N.jpg","O.jpg","0","0","1","",""
"","feedback","","html-keyboard-response","248","309173","0.0-1.0-339.0-0.0","0","0","77038","","null","","","null","37","","","","","","","","","","","","","","","",""
"","ITI","","html-keyboard-response","249","310179","0.0-1.0-342.0","0","0","77038","","null","","","null","37","","","","","","","","","","","","","","","NaN",""
"","S1","","html-keyboard-response","250","310340","0.0-1.0-344.0","0","0","77038","","null","","","null","38","","","","","","","","","","","","","","","",""
"","ISI","","html-keyboard-response","251","312349","0.0-1.0-345.0","0","0","77038","","null","","","null","38","NaN","","","","","","","","","","","","","","",""
"","S2","","html-keyboard-response","252","312511","0.0-1.0-346.0","0","0","77038","","null","","","null","38","","NaN","","","","","","","","","","","","","",""
"","response","","html-keyboard-response","253","312847","0.0-1.0-347.0-0.0","0","0","77038","","334","","","75","38","","","1","38","training","adjacent","GF","7","6","L.jpg","N.jpg","0","0","1","",""
"","feedback","","html-keyboard-response","254","313858","0.0-1.0-348.0-0.0","0","0","77038","","null","","","null","38","","","","","","","","","","","","","","","",""
"","ITI","","html-keyboard-response","255","314868","0.0-1.0-351.0","0","0","77038","","null","","","null","38","","","","","","","","","","","","","","","NaN",""
"","S1","","html-keyboard-response","256","315026","0.0-1.0-353.0","0","0","77038","","null","","","null","39","","","","","","","","","","","","","","","",""
"","ISI","","html-keyboard-response","257","317035","0.0-1.0-354.0","0","0","77038","","null","","","null","39","NaN","","","","","","","","","","","","","","",""
"","S2","","html-keyboard-response","258","317196","0.0-1.0-355.0","0","0","77038","","null","","","null","39","","NaN","","","","","","","","","","","","","",""
"","response","","html-keyboard-response","259","317692","0.0-1.0-356.0-0.0","0","0","77038","","495","","","68","39","","","1","39","training","adjacent","EF","5","6","O.jpg","N.jpg","1","1","1","",""
"","feedback","","html-keyboard-response","260","318698","0.0-1.0-357.0-0.0","0","0","77038","","null","","","null","39","","","","","","","","","","","","","","","",""
"","ITI","","html-keyboard-response","261","319710","0.0-1.0-360.0","0","0","77038","","null","","","null","39","","","","","","","","","","","","","","","NaN",""
"","S1","","html-keyboard-response","262","319866","0.0-1.0-362.0","0","0","77038","","null","","","null","40","","","","","","","","","","","","","","","",""
"","ISI","","html-keyboard-response","263","321875","0.0-1.0-363.0","0","0","77038","","null","","","null","40","NaN","","","","","","","","","","","","","","",""
"","S2","","html-keyboard-response","264","322037","0.0-1.0-364.0","0","0","77038","","null","","","null","40","","NaN","","","","","","","","","","","","","",""
"","response","","html-keyboard-response","265","322710","0.0-1.0-365.0-0.0","0","0","77038","","670","","","75","40","","","1","40","training","adjacent","DC","4","3","P.jpg","Q.jpg","0","0","1","",""
"","feedback","","html-keyboard-response","266","323714","0.0-1.0-366.0-0.0","0","0","77038","","null","","","null","40","","","","","","","","","","","","","","","",""
"","ITI","","html-keyboard-response","267","324720","0.0-1.0-369.0","0","0","77038","","null","","","null","40","","","","","","","","","","","","","","","NaN",""
"","S1","","html-keyboard-response","268","324876","0.0-1.0-371.0","0","0","77038","","null","","","null","41","","","","","","","","","","","","","","","",""
"","ISI","","html-keyboard-response","269","326885","0.0-1.0-372.0","0","0","77038","","null","","","null","41","NaN","","","","","","","","","","","","","","",""
"","S2","","html-keyboard-response","270","327047","0.0-1.0-373.0","0","0","77038","","null","","","null","41","","NaN","","","","","","","","","","","","","",""
"","response","","html-keyboard-response","271","327591","0.0-1.0-374.0-0.0","0","0","77038","","542","","","75","41","","","1","41","training","adjacent","GF","7","6","L.jpg","N.jpg","0","0","1","",""
"","feedback","","html-keyboard-response","272","328597","0.0-1.0-375.0-0.0","0","0","77038","","null","","","null","41","","","","","","","","","","","","","","","",""
"","ITI","","html-keyboard-response","273","329607","0.0-1.0-378.0","0","0","77038","","null","","","null","41","","","","","","","","","","","","","","","NaN",""
"","S1","","html-keyboard-response","274","329764","0.0-1.0-380.0","0","0","77038","","null","","","null","42","","","","","","","","","","","","","","","",""
"","ISI","","html-keyboard-response","275","331772","0.0-1.0-381.0","0","0","77038","","null","","","null","42","NaN","","","","","","","","","","","","","","",""
"","S2","","html-keyboard-response","276","331935","0.0-1.0-382.0","0","0","77038","","null","","","null","42","","NaN","","","","","","","","","","","","","",""
"","response","","html-keyboard-response","277","332691","0.0-1.0-383.0-0.0","0","0","77038","","754","","","75","42","","","1","42","training","adjacent","ED","5","4","O.jpg","P.jpg","0","0","1","",""
"","feedback","","html-keyboard-response","278","333700","0.0-1.0-384.0-0.0","0","0","77038","","null","","","null","42","","","","","","","","","","","","","","","",""
"","ITI","","html-keyboard-response","279","334710","0.0-1.0-387.0","0","0","77038","","null","","","null","42","","","","","","","","","","","","","","","NaN",""
"","S1","","html-keyboard-response","280","334866","0.0-1.0-389.0","0","0","77038","","null","","","null","43","","","","","","","","","","","","","","","",""
"","ISI","","html-keyboard-response","281","336875","0.0-1.0-390.0","0","0","77038","","null","","","null","43","NaN","","","","","","","","","","","","","","",""
"","S2","","html-keyboard-response","282","337037","0.0-1.0-391.0","0","0","77038","","null","","","null","43","","NaN","","","","","","","","","","","","","",""
"","response","","html-keyboard-response","283","338062","0.0-1.0-392.0-0.0","0","0","77038","","1022","","","68","43","","","1","43","training","adjacent","AB","1","2","M.jpg","R.jpg","1","1","1","",""
"","feedback","","html-keyboard-response","284","339070","0.0-1.0-393.0-0.0","0","0","77038","","null","","","null","43","","","","","","","","","","","","","","","",""
"","ITI","","html-keyboard-response","285","340080","0.0-1.0-396.0","0","0","77038","","null","","","null","43","","","","","","","","","","","","","","","NaN",""
"","S1","","html-keyboard-response","286","340235","0.0-1.0-398.0","0","0","77038","","null","","","null","44","","","","","","","","","","","","","","","",""
"","ISI","","html-keyboard-response","287","342245","0.0-1.0-399.0","0","0","77038","","null","","","null","44","NaN","","","","","","","","","","","","","","",""
"","S2","","html-keyboard-response","288","342406","0.0-1.0-400.0","0","0","77038","","null","","","null","44","","NaN","","","","","","","","","","","","","",""
"","response","","html-keyboard-response","289","343081","0.0-1.0-401.0-0.0","0","0","77038","","672","","","75","44","","","1","44","training","adjacent","CB","3","2","Q.jpg","R.jpg","0","0","1","",""
"","feedback","","html-keyboard-response","290","344091","0.0-1.0-402.0-0.0","0","0","77038","","null","","","null","44","","","","","","","","","","","","","","","",""
"","ITI","","html-keyboard-response","291","345101","0.0-1.0-405.0","0","0","77038","","null","","","null","44","","","","","","","","","","","","","","","NaN",""
"","S1","","html-keyboard-response","292","345264","0.0-1.0-407.0","0","0","77038","","null","","","null","45","","","","","","","","","","","","","","","",""
"","ISI","","html-keyboard-response","293","347270","0.0-1.0-408.0","0","0","77038","","null","","","null","45","NaN","","","","","","","","","","","","","","",""
"","S2","","html-keyboard-response","294","347429","0.0-1.0-409.0","0","0","77038","","null","","","null","45","","NaN","","","","","","","","","","","","","",""
"","response","","html-keyboard-response","295","347967","0.0-1.0-410.0-0.0","0","0","77038","","535","","","68","45","","","1","45","training","adjacent","FG","6","7","N.jpg","L.jpg","1","1","1","",""
"","feedback","","html-keyboard-response","296","348973","0.0-1.0-411.0-0.0","0","0","77038","","null","","","null","45","","","","","","","","","","","","","","","",""
"","ITI","","html-keyboard-response","297","349983","0.0-1.0-414.0","0","0","77038","","null","","","null","45","","","","","","","","","","","","","","","NaN",""
"","S1","","html-keyboard-response","298","350140","0.0-1.0-416.0","0","0","77038","","null","","","null","46","","","","","","","","","","","","","","","",""
"","ISI","","html-keyboard-response","299","352148","0.0-1.0-417.0","0","0","77038","","null","","","null","46","NaN","","","","","","","","","","","","","","",""
"","S2","","html-keyboard-response","300","352312","0.0-1.0-418.0","0","0","77038","","null","","","null","46","","NaN","","","","","","","","","","","","","",""
"","response","","html-keyboard-response","301","352922","0.0-1.0-419.0-0.0","0","0","77038","","609","","","68","46","","","1","46","training","adjacent","EF","5","6","O.jpg","N.jpg","1","1","1","",""
"","feedback","","html-keyboard-response","302","353934","0.0-1.0-420.0-0.0","0","0","77038","","null","","","null","46","","","","","","","","","","","","","","","",""
"","ITI","","html-keyboard-response","303","354941","0.0-1.0-423.0","0","0","77038","","null","","","null","46","","","","","","","","","","","","","","","NaN",""
"","S1","","html-keyboard-response","304","355104","0.0-1.0-425.0","0","0","77038","","null","","","null","47","","","","","","","","","","","","","","","",""
"","ISI","","html-keyboard-response","305","357112","0.0-1.0-426.0","0","0","77038","","null","","","null","47","NaN","","","","","","","","","","","","","","",""
"","S2","","html-keyboard-response","306","357268","0.0-1.0-427.0","0","0","77038","","null","","","null","47","","NaN","","","","","","","","","","","","","",""
"","response","","html-keyboard-response","307","357799","0.0-1.0-428.0-0.0","0","0","77038","","528","","","68","47","","","1","47","training","adjacent","DE","4","5","P.jpg","O.jpg","1","1","1","",""
"","feedback","","html-keyboard-response","308","358807","0.0-1.0-429.0-0.0","0","0","77038","","null","","","null","47","","","","","","","","","","","","","","","",""
"","ITI","","html-keyboard-response","309","359812","0.0-1.0-432.0","0","0","77038","","null","","","null","47","","","","","","","","","","","","","","","NaN",""
"","block_over","","html-keyboard-response","310","387626","0.0-1.0-433.0-0.0","0","0","77038","","27812","","","32","47","","","","","","","","","","","","","","","",""
"","S1","","html-keyboard-response","311","387781","0.0-1.0-434.0","0","0","77038","","null","","","null","48","","","","","","","","","","","","","","","",""
"","ISI","","html-keyboard-response","312","389789","0.0-1.0-435.0","0","0","77038","","null","","","null","48","NaN","","","","","","","","","","","","","","",""
"","S2","","html-keyboard-response","313","389950","0.0-1.0-436.0","0","0","77038","","null","","","null","48","","NaN","","","","","","","","","","","","","",""
"","response","","html-keyboard-response","314","390510","0.0-1.0-437.0-0.0","0","0","77038","","559","","","75","48","","","2","48","training","adjacent","CB","3","2","Q.jpg","R.jpg","0","0","1","",""
"","feedback","","html-keyboard-response","315","391519","0.0-1.0-438.0-0.0","0","0","77038","","null","","","null","48","","","","","","","","","","","","","","","",""
"","ITI","","html-keyboard-response","316","392525","0.0-1.0-441.0","0","0","77038","","null","","","null","48","","","","","","","","","","","","","","","NaN",""
"","S1","","html-keyboard-response","317","392686","0.0-1.0-443.0","0","0","77038","","null","","","null","49","","","","","","","","","","","","","","","",""
"","ISI","","html-keyboard-response","318","394695","0.0-1.0-444.0","0","0","77038","","null","","","null","49","NaN","","","","","","","","","","","","","","",""
"","S2","","html-keyboard-response","319","394857","0.0-1.0-445.0","0","0","77038","","null","","","null","49","","NaN","","","","","","","","","","","","","",""
"","response","","html-keyboard-response","320","395153","0.0-1.0-446.0-0.0","0","0","77038","","293","","","75","49","","","2","49","training","adjacent","BC","2","3","R.jpg","Q.jpg","0","1","0","",""
"","feedback","","html-keyboard-response","321","396156","0.0-1.0-447.0-0.0","0","0","77038","","null","","","null","49","","","","","","","","","","","","","","","",""
"","time_out","","html-keyboard-response","322","398166","0.0-1.0-449.0-0.0","0","0","77038","","null","","","null","49","","","","","","","","","","","","","","","",""
"","ITI","","html-keyboard-response","323","399175","0.0-1.0-450.0","0","0","77038","","null","","","null","49","","","","","","","","","","","","","","","NaN",""
"","S1","","html-keyboard-response","324","399332","0.0-1.0-452.0","0","0","77038","","null","","","null","50","","","","","","","","","","","","","","","",""
"","ISI","","html-keyboard-response","325","401341","0.0-1.0-453.0","0","0","77038","","null","","","null","50","NaN","","","","","","","","","","","","","","",""
"","S2","","html-keyboard-response","326","401502","0.0-1.0-454.0","0","0","77038","","null","","","null","50","","NaN","","","","","","","","","","","","","",""
"","response","","html-keyboard-response","327","402281","0.0-1.0-455.0-0.0","0","0","77038","","776","","","68","50","","","2","50","training","adjacent","ED","5","4","O.jpg","P.jpg","1","0","0","",""
"","feedback","","html-keyboard-response","328","403286","0.0-1.0-456.0-0.0","0","0","77038","","null","","","null","50","","","","","","","","","","","","","","","",""
"","time_out","","html-keyboard-response","329","405294","0.0-1.0-458.0-0.0","0","0","77038","","null","","","null","50","","","","","","","","","","","","","","","",""
"","ITI","","html-keyboard-response","330","406304","0.0-1.0-459.0","0","0","77038","","null","","","null","50","","","","","","","","","","","","","","","NaN",""
"","S1","","html-keyboard-response","331","406461","0.0-1.0-461.0","0","0","77038","","null","","","null","51","","","","","","","","","","","","","","","",""
"","ISI","","html-keyboard-response","332","408470","0.0-1.0-462.0","0","0","77038","","null","","","null","51","NaN","","","","","","","","","","","","","","",""
"","S2","","html-keyboard-response","333","408633","0.0-1.0-463.0","0","0","77038","","null","","","null","51","","NaN","","","","","","","","","","","","","",""
"","response","","html-keyboard-response","334","409307","0.0-1.0-464.0-0.0","0","0","77038","","671","","","68","51","","","2","51","training","adjacent","EF","5","6","O.jpg","N.jpg","1","1","1","",""
"","feedback","","html-keyboard-response","335","410316","0.0-1.0-465.0-0.0","0","0","77038","","null","","","null","51","","","","","","","","","","","","","","","",""
"","ITI","","html-keyboard-response","336","411326","0.0-1.0-468.0","0","0","77038","","null","","","null","51","","","","","","","","","","","","","","","NaN",""
"","S1","","html-keyboard-response","337","411489","0.0-1.0-470.0","0","0","77038","","null","","","null","52","","","","","","","","","","","","","","","",""
"","ISI","","html-keyboard-response","338","413496","0.0-1.0-471.0","0","0","77038","","null","","","null","52","NaN","","","","","","","","","","","","","","",""
"","S2","","html-keyboard-response","339","413655","0.0-1.0-472.0","0","0","77038","","null","","","null","52","","NaN","","","","","","","","","","","","","",""
"","response","","html-keyboard-response","340","414169","0.0-1.0-473.0-0.0","0","0","77038","","513","","","68","52","","","2","52","training","adjacent","EF","5","6","O.jpg","N.jpg","1","1","1","",""
"","feedback","","html-keyboard-response","341","415175","0.0-1.0-474.0-0.0","0","0","77038","","null","","","null","52","","","","","","","","","","","","","","","",""
"","ITI","","html-keyboard-response","342","416185","0.0-1.0-477.0","0","0","77038","","null","","","null","52","","","","","","","","","","","","","","","NaN",""
"","S1","","html-keyboard-response","343","416342","0.0-1.0-479.0","0","0","77038","","null","","","null","53","","","","","","","","","","","","","","","",""
"","ISI","","html-keyboard-response","344","418351","0.0-1.0-480.0","0","0","77038","","null","","","null","53","NaN","","","","","","","","","","","","","","",""
"","S2","","html-keyboard-response","345","418513","0.0-1.0-481.0","0","0","77038","","null","","","null","53","","NaN","","","","","","","","","","","","","",""
"","response","","html-keyboard-response","346","418937","0.0-1.0-482.0-0.0","0","0","77038","","422","","","75","53","","","2","53","training","adjacent","ED","5","4","O.jpg","P.jpg","0","0","1","",""
"","feedback","","html-keyboard-response","347","419941","0.0-1.0-483.0-0.0","0","0","77038","","null","","","null","53","","","","","","","","","","","","","","","",""
"","ITI","","html-keyboard-response","348","420952","0.0-1.0-486.0","0","0","77038","","null","","","null","53","","","","","","","","","","","","","","","NaN",""
"","S1","","html-keyboard-response","349","421113","0.0-1.0-488.0","0","0","77038","","null","","","null","54","","","","","","","","","","","","","","","",""
"","ISI","","html-keyboard-response","350","423122","0.0-1.0-489.0","0","0","77038","","null","","","null","54","NaN","","","","","","","","","","","","","","",""
"","S2","","html-keyboard-response","351","423279","0.0-1.0-490.0","0","0","77038","","null","","","null","54","","NaN","","","","","","","","","","","","","",""
"","response","","html-keyboard-response","352","423716","0.0-1.0-491.0-0.0","0","0","77038","","436","","","68","54","","","2","54","training","adjacent","FG","6","7","N.jpg","L.jpg","1","1","1","",""
"","feedback","","html-keyboard-response","353","424725","0.0-1.0-492.0-0.0","0","0","77038","","null","","","null","54","","","","","","","","","","","","","","","",""
"","ITI","","html-keyboard-response","354","425734","0.0-1.0-495.0","0","0","77038","","null","","","null","54","","","","","","","","","","","","","","","NaN",""
"","S1","","html-keyboard-response","355","425897","0.0-1.0-497.0","0","0","77038","","null","","","null","55","","","","","","","","","","","","","","","",""
"","ISI","","html-keyboard-response","356","427906","0.0-1.0-498.0","0","0","77038","","null","","","null","55","NaN","","","","","","","","","","","","","","",""
"","S2","","html-keyboard-response","357","428064","0.0-1.0-499.0","0","0","77038","","null","","","null","55","","NaN","","","","","","","","","","","","","",""
"","response","","html-keyboard-response","358","428676","0.0-1.0-500.0-0.0","0","0","77038","","610","","","75","55","","","2","55","training","adjacent","DC","4","3","P.jpg","Q.jpg","0","0","1","",""
"","feedback","","html-keyboard-response","359","429688","0.0-1.0-501.0-0.0","0","0","77038","","null","","","null","55","","","","","","","","","","","","","","","",""
"","ITI","","html-keyboard-response","360","430698","0.0-1.0-504.0","0","0","77038","","null","","","null","55","","","","","","","","","","","","","","","NaN",""
"","S1","","html-keyboard-response","361","430855","0.0-1.0-506.0","0","0","77038","","null","","","null","56","","","","","","","","","","","","","","","",""
"","ISI","","html-keyboard-response","362","432864","0.0-1.0-507.0","0","0","77038","","null","","","null","56","NaN","","","","","","","","","","","","","","",""
"","S2","","html-keyboard-response","363","433026","0.0-1.0-508.0","0","0","77038","","null","","","null","56","","NaN","","","","","","","","","","","","","",""
"","response","","html-keyboard-response","364","433480","0.0-1.0-509.0-0.0","0","0","77038","","452","","","68","56","","","2","56","training","adjacent","CB","3","2","Q.jpg","R.jpg","1","0","0","",""
"","feedback","","html-keyboard-response","365","434489","0.0-1.0-510.0-0.0","0","0","77038","","null","","","null","56","","","","","","","","","","","","","","","",""
"","time_out","","html-keyboard-response","366","436497","0.0-1.0-512.0-0.0","0","0","77038","","null","","","null","56","","","","","","","","","","","","","","","",""
"","ITI","","html-keyboard-response","367","437501","0.0-1.0-513.0","0","0","77038","","null","","","null","56","","","","","","","","","","","","","","","NaN",""
"","S1","","html-keyboard-response","368","437664","0.0-1.0-515.0","0","0","77038","","null","","","null","57","","","","","","","","","","","","","","","",""
"","ISI","","html-keyboard-response","369","439673","0.0-1.0-516.0","0","0","77038","","null","","","null","57","NaN","","","","","","","","","","","","","","",""
"","S2","","html-keyboard-response","370","439829","0.0-1.0-517.0","0","0","77038","","null","","","null","57","","NaN","","","","","","","","","","","","","",""
"","response","","html-keyboard-response","371","440351","0.0-1.0-518.0-0.0","0","0","77038","","520","","","75","57","","","2","57","training","adjacent","FE","6","5","N.jpg","O.jpg","0","0","1","",""
"","feedback","","html-keyboard-response","372","441362","0.0-1.0-519.0-0.0","0","0","77038","","null","","","null","57","","","","","","","","","","","","","","","",""
"","ITI","","html-keyboard-response","373","442367","0.0-1.0-522.0","0","0","77038","","null","","","null","57","","","","","","","","","","","","","","","NaN",""
"","S1","","html-keyboard-response","374","442529","0.0-1.0-524.0","0","0","77038","","null","","","null","58","","","","","","","","","","","","","","","",""
"","ISI","","html-keyboard-response","375","444537","0.0-1.0-525.0","0","0","77038","","null","","","null","58","NaN","","","","","","","","","","","","","","",""
"","S2","","html-keyboard-response","376","444694","0.0-1.0-526.0","0","0","77038","","null","","","null","58","","NaN","","","","","","","","","","","","","",""
"","response","","html-keyboard-response","377","445714","0.0-1.0-527.0-0.0","0","0","77038","","1016","","","68","58","","","2","58","training","adjacent","CD","3","4","Q.jpg","P.jpg","1","1","1","",""
"","feedback","","html-keyboard-response","378","446720","0.0-1.0-528.0-0.0","0","0","77038","","null","","","null","58","","","","","","","","","","","","","","","",""
"","ITI","","html-keyboard-response","379","447730","0.0-1.0-531.0","0","0","77038","","null","","","null","58","","","","","","","","","","","","","","","NaN",""
"","S1","","html-keyboard-response","380","447887","0.0-1.0-533.0","0","0","77038","","null","","","null","59","","","","","","","","","","","","","","","",""
"","ISI","","html-keyboard-response","381","449896","0.0-1.0-534.0","0","0","77038","","null","","","null","59","NaN","","","","","","","","","","","","","","",""
"","S2","","html-keyboard-response","382","450058","0.0-1.0-535.0","0","0","77038","","null","","","null","59","","NaN","","","","","","","","","","","","","",""
"","response","","html-keyboard-response","383","450559","0.0-1.0-536.0-0.0","0","0","77038","","499","","","68","59","","","2","59","training","adjacent","EF","5","6","O.jpg","N.jpg","1","1","1","",""
"","feedback","","html-keyboard-response","384","451568","0.0-1.0-537.0-0.0","0","0","77038","","null","","","null","59","","","","","","","","","","","","","","","",""
"","ITI","","html-keyboard-response","385","452578","0.0-1.0-540.0","0","0","77038","","null","","","null","59","","","","","","","","","","","","","","","NaN",""
"","S1","","html-keyboard-response","386","452734","0.0-1.0-542.0","0","0","77038","","null","","","null","60","","","","","","","","","","","","","","","",""
"","ISI","","html-keyboard-response","387","454743","0.0-1.0-543.0","0","0","77038","","null","","","null","60","NaN","","","","","","","","","","","","","","",""
"","S2","","html-keyboard-response","388","454904","0.0-1.0-544.0","0","0","77038","","null","","","null","60","","NaN","","","","","","","","","","","","","",""
"","response","","html-keyboard-response","389","455490","0.0-1.0-545.0-0.0","0","0","77038","","583","","","75","60","","","2","60","training","adjacent","GF","7","6","L.jpg","N.jpg","0","0","1","",""
"","feedback","","html-keyboard-response","390","456495","0.0-1.0-546.0-0.0","0","0","77038","","null","","","null","60","","","","","","","","","","","","","","","",""
"","ITI","","html-keyboard-response","391","457505","0.0-1.0-549.0","0","0","77038","","null","","","null","60","","","","","","","","","","","","","","","NaN",""
"","S1","","html-keyboard-response","392","457662","0.0-1.0-551.0","0","0","77038","","null","","","null","61","","","","","","","","","","","","","","","",""
"","ISI","","html-keyboard-response","393","459671","0.0-1.0-552.0","0","0","77038","","null","","","null","61","NaN","","","","","","","","","","","","","","",""
"","S2","","html-keyboard-response","394","459833","0.0-1.0-553.0","0","0","77038","","null","","","null","61","","NaN","","","","","","","","","","","","","",""
"","response","","html-keyboard-response","395","460615","0.0-1.0-554.0-0.0","0","0","77038","","780","","","75","61","","","2","61","training","adjacent","GF","7","6","L.jpg","N.jpg","0","0","1","",""
"","feedback","","html-keyboard-response","396","461622","0.0-1.0-555.0-0.0","0","0","77038","","null","","","null","61","","","","","","","","","","","","","","","",""
"","ITI","","html-keyboard-response","397","462632","0.0-1.0-558.0","0","0","77038","","null","","","null","61","","","","","","","","","","","","","","","NaN",""
"","S1","","html-keyboard-response","398","462795","0.0-1.0-560.0","0","0","77038","","null","","","null","62","","","","","","","","","","","","","","","",""
"","ISI","","html-keyboard-response","399","464800","0.0-1.0-561.0","0","0","77038","","null","","","null","62","NaN","","","","","","","","","","","","","","",""
"","S2","","html-keyboard-response","400","464959","0.0-1.0-562.0","0","0","77038","","null","","","null","62","","NaN","","","","","","","","","","","","","",""
"","response","","html-keyboard-response","401","465685","0.0-1.0-563.0-0.0","0","0","77038","","724","","","75","62","","","2","62","training","adjacent","BA","2","1","R.jpg","M.jpg","0","0","1","",""
"","feedback","","html-keyboard-response","402","466695","0.0-1.0-564.0-0.0","0","0","77038","","null","","","null","62","","","","","","","","","","","","","","","",""
"","ITI","","html-keyboard-response","403","467705","0.0-1.0-567.0","0","0","77038","","null","","","null","62","","","","","","","","","","","","","","","NaN",""
"","S1","","html-keyboard-response","404","467864","0.0-1.0-569.0","0","0","77038","","null","","","null","63","","","","","","","","","","","","","","","",""
"","ISI","","html-keyboard-response","405","469871","0.0-1.0-570.0","0","0","77038","","null","","","null","63","NaN","","","","","","","","","","","","","","",""
"","S2","","html-keyboard-response","406","470032","0.0-1.0-571.0","0","0","77038","","null","","","null","63","","NaN","","","","","","","","","","","","","",""
"","response","","html-keyboard-response","407","470538","0.0-1.0-572.0-0.0","0","0","77038","","503","","","68","63","","","2","63","training","adjacent","AB","1","2","M.jpg","R.jpg","1","1","1","",""
"","feedback","","html-keyboard-response","408","471543","0.0-1.0-573.0-0.0","0","0","77038","","null","","","null","63","","","","","","","","","","","","","","","",""
"","ITI","","html-keyboard-response","409","472552","0.0-1.0-576.0","0","0","77038","","null","","","null","63","","","","","","","","","","","","","","","NaN",""
"","S1","","html-keyboard-response","410","472716","0.0-1.0-578.0","0","0","77038","","null","","","null","64","","","","","","","","","","","","","","","",""
"","ISI","","html-keyboard-response","411","474730","0.0-1.0-579.0","0","0","77038","","null","","","null","64","NaN","","","","","","","","","","","","","","",""
"","S2","","html-keyboard-response","412","474887","0.0-1.0-580.0","0","0","77038","","null","","","null","64","","NaN","","","","","","","","","","","","","",""
"","response","","html-keyboard-response","413","475555","0.0-1.0-581.0-0.0","0","0","77038","","667","","","75","64","","","2","64","training","adjacent","DC","4","3","P.jpg","Q.jpg","0","0","1","",""
"","feedback","","html-keyboard-response","414","476571","0.0-1.0-582.0-0.0","0","0","77038","","null","","","null","64","","","","","","","","","","","","","","","",""
"","ITI","","html-keyboard-response","415","477575","0.0-1.0-585.0","0","0","77038","","null","","","null","64","","","","","","","","","","","","","","","NaN",""
"","S1","","html-keyboard-response","416","477737","0.0-1.0-587.0","0","0","77038","","null","","","null","65","","","","","","","","","","","","","","","",""
"","ISI","","html-keyboard-response","417","479745","0.0-1.0-588.0","0","0","77038","","null","","","null","65","NaN","","","","","","","","","","","","","","",""
"","S2","","html-keyboard-response","418","479902","0.0-1.0-589.0","0","0","77038","","null","","","null","65","","NaN","","","","","","","","","","","","","",""
"","response","","html-keyboard-response","419","480433","0.0-1.0-590.0-0.0","0","0","77038","","528","","","75","65","","","2","65","training","adjacent","DC","4","3","P.jpg","Q.jpg","0","0","1","",""
"","feedback","","html-keyboard-response","420","481441","0.0-1.0-591.0-0.0","0","0","77038","","null","","","null","65","","","","","","","","","","","","","","","",""
"","ITI","","html-keyboard-response","421","482450","0.0-1.0-594.0","0","0","77038","","null","","","null","65","","","","","","","","","","","","","","","NaN",""
"","S1","","html-keyboard-response","422","482607","0.0-1.0-596.0","0","0","77038","","null","","","null","66","","","","","","","","","","","","","","","",""
"","ISI","","html-keyboard-response","423","484616","0.0-1.0-597.0","0","0","77038","","null","","","null","66","NaN","","","","","","","","","","","","","","",""
"","S2","","html-keyboard-response","424","484779","0.0-1.0-598.0","0","0","77038","","null","","","null","66","","NaN","","","","","","","","","","","","","",""
"","response","","html-keyboard-response","425","485371","0.0-1.0-599.0-0.0","0","0","77038","","590","","","75","66","","","2","66","training","adjacent","CB","3","2","Q.jpg","R.jpg","0","0","1","",""
"","feedback","","html-keyboard-response","426","486379","0.0-1.0-600.0-0.0","0","0","77038","","null","","","null","66","","","","","","","","","","","","","","","",""
"","ITI","","html-keyboard-response","427","487385","0.0-1.0-603.0","0","0","77038","","null","","","null","66","","","","","","","","","","","","","","","NaN",""
"","S1","","html-keyboard-response","428","487542","0.0-1.0-605.0","0","0","77038","","null","","","null","67","","","","","","","","","","","","","","","",""
"","ISI","","html-keyboard-response","429","489545","0.0-1.0-606.0","0","0","77038","","null","","","null","67","NaN","","","","","","","","","","","","","","",""
"","S2","","html-keyboard-response","430","489706","0.0-1.0-607.0","0","0","77038","","null","","","null","67","","NaN","","","","","","","","","","","","","",""
"","response","","html-keyboard-response","431","490183","0.0-1.0-608.0-0.0","0","0","77038","","476","","","68","67","","","2","67","training","adjacent","AB","1","2","M.jpg","R.jpg","1","1","1","",""
"","feedback","","html-keyboard-response","432","491194","0.0-1.0-609.0-0.0","0","0","77038","","null","","","null","67","","","","","","","","","","","","","","","",""
"","ITI","","html-keyboard-response","433","492203","0.0-1.0-612.0","0","0","77038","","null","","","null","67","","","","","","","","","","","","","","","NaN",""
"","S1","","html-keyboard-response","434","492359","0.0-1.0-614.0","0","0","77038","","null","","","null","68","","","","","","","","","","","","","","","",""
"","ISI","","html-keyboard-response","435","494369","0.0-1.0-615.0","0","0","77038","","null","","","null","68","NaN","","","","","","","","","","","","","","",""
"","S2","","html-keyboard-response","436","494531","0.0-1.0-616.0","0","0","77038","","null","","","null","68","","NaN","","","","","","","","","","","","","",""
"","response","","html-keyboard-response","437","495088","0.0-1.0-617.0-0.0","0","0","77038","","554","","","68","68","","","2","68","training","adjacent","FG","6","7","N.jpg","L.jpg","1","1","1","",""
"","feedback","","html-keyboard-response","438","496099","0.0-1.0-618.0-0.0","0","0","77038","","null","","","null","68","","","","","","","","","","","","","","","",""
"","ITI","","html-keyboard-response","439","497105","0.0-1.0-621.0","0","0","77038","","null","","","null","68","","","","","","","","","","","","","","","NaN",""
"","S1","","html-keyboard-response","440","497266","0.0-1.0-623.0","0","0","77038","","null","","","null","69","","","","","","","","","","","","","","","",""
"","ISI","","html-keyboard-response","441","499273","0.0-1.0-624.0","0","0","77038","","null","","","null","69","NaN","","","","","","","","","","","","","","",""
"","S2","","html-keyboard-response","442","499431","0.0-1.0-625.0","0","0","77038","","null","","","null","69","","NaN","","","","","","","","","","","","","",""
"","response","","html-keyboard-response","443","499901","0.0-1.0-626.0-0.0","0","0","77038","","469","","","68","69","","","2","69","training","adjacent","FG","6","7","N.jpg","L.jpg","1","1","1","",""
"","feedback","","html-keyboard-response","444","500911","0.0-1.0-627.0-0.0","0","0","77038","","null","","","null","69","","","","","","","","","","","","","","","",""
"","ITI","","html-keyboard-response","445","501921","0.0-1.0-630.0","0","0","77038","","null","","","null","69","","","","","","","","","","","","","","","NaN",""
"","S1","","html-keyboard-response","446","502079","0.0-1.0-632.0","0","0","77038","","null","","","null","70","","","","","","","","","","","","","","","",""
"","ISI","","html-keyboard-response","447","504087","0.0-1.0-633.0","0","0","77038","","null","","","null","70","NaN","","","","","","","","","","","","","","",""
"","S2","","html-keyboard-response","448","504248","0.0-1.0-634.0","0","0","77038","","null","","","null","70","","NaN","","","","","","","","","","","","","",""
"","response","","html-keyboard-response","449","504703","0.0-1.0-635.0-0.0","0","0","77038","","452","","","68","70","","","2","70","training","adjacent","BC","2","3","R.jpg","Q.jpg","1","1","1","",""
"","feedback","","html-keyboard-response","450","505712","0.0-1.0-636.0-0.0","0","0","77038","","null","","","null","70","","","","","","","","","","","","","","","",""
"","ITI","","html-keyboard-response","451","506722","0.0-1.0-639.0","0","0","77038","","null","","","null","70","","","","","","","","","","","","","","","NaN",""
"","S1","","html-keyboard-response","452","506879","0.0-1.0-641.0","0","0","77038","","null","","","null","71","","","","","","","","","","","","","","","",""
"","ISI","","html-keyboard-response","453","508887","0.0-1.0-642.0","0","0","77038","","null","","","null","71","NaN","","","","","","","","","","","","","","",""
"","S2","","html-keyboard-response","454","509050","0.0-1.0-643.0","0","0","77038","","null","","","null","71","","NaN","","","","","","","","","","","","","",""
"","response","","html-keyboard-response","455","509520","0.0-1.0-644.0-0.0","0","0","77038","","467","","","68","71","","","2","71","training","adjacent","EF","5","6","O.jpg","N.jpg","1","1","1","",""
"","feedback","","html-keyboard-response","456","510530","0.0-1.0-645.0-0.0","0","0","77038","","null","","","null","71","","","","","","","","","","","","","","","",""
"","ITI","","html-keyboard-response","457","511536","0.0-1.0-648.0","0","0","77038","","null","","","null","71","","","","","","","","","","","","","","","NaN",""
"","S1","","html-keyboard-response","458","511697","0.0-1.0-650.0","0","0","77038","","null","","","null","72","","","","","","","","","","","","","","","",""
"","ISI","","html-keyboard-response","459","513705","0.0-1.0-651.0","0","0","77038","","null","","","null","72","NaN","","","","","","","","","","","","","","",""
"","S2","","html-keyboard-response","460","513864","0.0-1.0-652.0","0","0","77038","","null","","","null","72","","NaN","","","","","","","","","","","","","",""
"","response","","html-keyboard-response","461","514485","0.0-1.0-653.0-0.0","0","0","77038","","619","","","75","72","","","2","72","training","adjacent","FE","6","5","N.jpg","O.jpg","0","0","1","",""
"","feedback","","html-keyboard-response","462","515499","0.0-1.0-654.0-0.0","0","0","77038","","null","","","null","72","","","","","","","","","","","","","","","",""
"","ITI","","html-keyboard-response","463","516503","0.0-1.0-657.0","0","0","77038","","null","","","null","72","","","","","","","","","","","","","","","NaN",""
"","S1","","html-keyboard-response","464","516666","0.0-1.0-659.0","0","0","77038","","null","","","null","73","","","","","","","","","","","","","","","",""
"","ISI","","html-keyboard-response","465","518673","0.0-1.0-660.0","0","0","77038","","null","","","null","73","NaN","","","","","","","","","","","","","","",""
"","S2","","html-keyboard-response","466","518831","0.0-1.0-661.0","0","0","77038","","null","","","null","73","","NaN","","","","","","","","","","","","","",""
"","response","","html-keyboard-response","467","519144","0.0-1.0-662.0-0.0","0","0","77038","","311","","","68","73","","","2","73","training","adjacent","AB","1","2","M.jpg","R.jpg","1","1","1","",""
"","feedback","","html-keyboard-response","468","520150","0.0-1.0-663.0-0.0","0","0","77038","","null","","","null","73","","","","","","","","","","","","","","","",""
"","ITI","","html-keyboard-response","469","521164","0.0-1.0-666.0","0","0","77038","","null","","","null","73","","","","","","","","","","","","","","","NaN",""
"","S1","","html-keyboard-response","470","521319","0.0-1.0-668.0","0","0","77038","","null","","","null","74","","","","","","","","","","","","","","","",""
"","ISI","","html-keyboard-response","471","523330","0.0-1.0-669.0","0","0","77038","","null","","","null","74","NaN","","","","","","","","","","","","","","",""
"","S2","","html-keyboard-response","472","523488","0.0-1.0-670.0","0","0","77038","","null","","","null","74","","NaN","","","","","","","","","","","","","",""
"","response","","html-keyboard-response","473","524051","0.0-1.0-671.0-0.0","0","0","77038","","560","","","68","74","","","2","74","training","adjacent","CD","3","4","Q.jpg","P.jpg","1","1","1","",""
"","feedback","","html-keyboard-response","474","525059","0.0-1.0-672.0-0.0","0","0","77038","","null","","","null","74","","","","","","","","","","","","","","","",""
"","ITI","","html-keyboard-response","475","526063","0.0-1.0-675.0","0","0","77038","","null","","","null","74","","","","","","","","","","","","","","","NaN",""
"","S1","","html-keyboard-response","476","526226","0.0-1.0-677.0","0","0","77038","","null","","","null","75","","","","","","","","","","","","","","","",""
"","ISI","","html-keyboard-response","477","528235","0.0-1.0-678.0","0","0","77038","","null","","","null","75","NaN","","","","","","","","","","","","","","",""
"","S2","","html-keyboard-response","478","528392","0.0-1.0-679.0","0","0","77038","","null","","","null","75","","NaN","","","","","","","","","","","","","",""
"","response","","html-keyboard-response","479","529223","0.0-1.0-680.0-0.0","0","0","77038","","828","","","68","75","","","2","75","training","adjacent","ED","5","4","O.jpg","P.jpg","1","0","0","",""
"","feedback","","html-keyboard-response","480","530232","0.0-1.0-681.0-0.0","0","0","77038","","null","","","null","75","","","","","","","","","","","","","","","",""
"","time_out","","html-keyboard-response","481","532241","0.0-1.0-683.0-0.0","0","0","77038","","null","","","null","75","","","","","","","","","","","","","","","",""
"","ITI","","html-keyboard-response","482","533251","0.0-1.0-684.0","0","0","77038","","null","","","null","75","","","","","","","","","","","","","","","NaN",""
"","S1","","html-keyboard-response","483","533407","0.0-1.0-686.0","0","0","77038","","null","","","null","76","","","","","","","","","","","","","","","",""
"","ISI","","html-keyboard-response","484","535418","0.0-1.0-687.0","0","0","77038","","null","","","null","76","NaN","","","","","","","","","","","","","","",""
"","S2","","html-keyboard-response","485","535578","0.0-1.0-688.0","0","0","77038","","null","","","null","76","","NaN","","","","","","","","","","","","","",""
"","response","","html-keyboard-response","486","535952","0.0-1.0-689.0-0.0","0","0","77038","","372","","","75","76","","","2","76","training","adjacent","GF","7","6","L.jpg","N.jpg","0","0","1","",""
"","feedback","","html-keyboard-response","487","536959","0.0-1.0-690.0-0.0","0","0","77038","","null","","","null","76","","","","","","","","","","","","","","","",""
"","ITI","","html-keyboard-response","488","537970","0.0-1.0-693.0","0","0","77038","","null","","","null","76","","","","","","","","","","","","","","","NaN",""
"","S1","","html-keyboard-response","489","538128","0.0-1.0-695.0","0","0","77038","","null","","","null","77","","","","","","","","","","","","","","","",""
"","ISI","","html-keyboard-response","490","540136","0.0-1.0-696.0","0","0","77038","","null","","","null","77","NaN","","","","","","","","","","","","","","",""
"","S2","","html-keyboard-response","491","540299","0.0-1.0-697.0","0","0","77038","","null","","","null","77","","NaN","","","","","","","","","","","","","",""
"","response","","html-keyboard-response","492","541305","0.0-1.0-698.0-0.0","0","0","77038","","1005","","","68","77","","","2","77","training","adjacent","BC","2","3","R.jpg","Q.jpg","1","1","1","",""
"","feedback","","html-keyboard-response","493","542313","0.0-1.0-699.0-0.0","0","0","77038","","null","","","null","77","","","","","","","","","","","","","","","",""
"","ITI","","html-keyboard-response","494","543324","0.0-1.0-702.0","0","0","77038","","null","","","null","77","","","","","","","","","","","","","","","NaN",""
"","S1","","html-keyboard-response","495","543480","0.0-1.0-704.0","0","0","77038","","null","","","null","78","","","","","","","","","","","","","","","",""
"","ISI","","html-keyboard-response","496","545489","0.0-1.0-705.0","0","0","77038","","null","","","null","78","NaN","","","","","","","","","","","","","","",""
"","S2","","html-keyboard-response","497","545652","0.0-1.0-706.0","0","0","77038","","null","","","null","78","","NaN","","","","","","","","","","","","","",""
"","response","","html-keyboard-response","498","546196","0.0-1.0-707.0-0.0","0","0","77038","","542","","","68","78","","","2","78","training","adjacent","DE","4","5","P.jpg","O.jpg","1","1","1","",""
"","feedback","","html-keyboard-response","499","547201","0.0-1.0-708.0-0.0","0","0","77038","","null","","","null","78","","","","","","","","","","","","","","","",""
"","ITI","","html-keyboard-response","500","548211","0.0-1.0-711.0","0","0","77038","","null","","","null","78","","","","","","","","","","","","","","","NaN",""
"","S1","","html-keyboard-response","501","548369","0.0-1.0-713.0","0","0","77038","","null","","","null","79","","","","","","","","","","","","","","","",""
"","ISI","","html-keyboard-response","502","550376","0.0-1.0-714.0","0","0","77038","","null","","","null","79","NaN","","","","","","","","","","","","","","",""
"","S2","","html-keyboard-response","503","550532","0.0-1.0-715.0","0","0","77038","","null","","","null","79","","NaN","","","","","","","","","","","","","",""
"","response","","html-keyboard-response","504","551640","0.0-1.0-716.0-0.0","0","0","77038","","1105","","","75","79","","","2","79","training","adjacent","ED","5","4","O.jpg","P.jpg","0","0","1","",""
"","feedback","","html-keyboard-response","505","552653","0.0-1.0-717.0-0.0","0","0","77038","","null","","","null","79","","","","","","","","","","","","","","","",""
"","ITI","","html-keyboard-response","506","553656","0.0-1.0-720.0","0","0","77038","","null","","","null","79","","","","","","","","","","","","","","","NaN",""
"","S1","","html-keyboard-response","507","553819","0.0-1.0-722.0","0","0","77038","","null","","","null","80","","","","","","","","","","","","","","","",""
"","ISI","","html-keyboard-response","508","555828","0.0-1.0-723.0","0","0","77038","","null","","","null","80","NaN","","","","","","","","","","","","","","",""
"","S2","","html-keyboard-response","509","555985","0.0-1.0-724.0","0","0","77038","","null","","","null","80","","NaN","","","","","","","","","","","","","",""
"","response","","html-keyboard-response","510","556449","0.0-1.0-725.0-0.0","0","0","77038","","461","","","68","80","","","2","80","training","adjacent","DE","4","5","P.jpg","O.jpg","1","1","1","",""
"","feedback","","html-keyboard-response","511","557459","0.0-1.0-726.0-0.0","0","0","77038","","null","","","null","80","","","","","","","","","","","","","","","",""
"","ITI","","html-keyboard-response","512","558469","0.0-1.0-729.0","0","0","77038","","null","","","null","80","","","","","","","","","","","","","","","NaN",""
"","S1","","html-keyboard-response","513","558626","0.0-1.0-731.0","0","0","77038","","null","","","null","81","","","","","","","","","","","","","","","",""
"","ISI","","html-keyboard-response","514","560635","0.0-1.0-732.0","0","0","77038","","null","","","null","81","NaN","","","","","","","","","","","","","","",""
"","S2","","html-keyboard-response","515","560797","0.0-1.0-733.0","0","0","77038","","null","","","null","81","","NaN","","","","","","","","","","","","","",""
"","response","","html-keyboard-response","516","561233","0.0-1.0-734.0-0.0","0","0","77038","","435","","","68","81","","","2","81","training","adjacent","DE","4","5","P.jpg","O.jpg","1","1","1","",""
"","feedback","","html-keyboard-response","517","562242","0.0-1.0-735.0-0.0","0","0","77038","","null","","","null","81","","","","","","","","","","","","","","","",""
"","ITI","","html-keyboard-response","518","563252","0.0-1.0-738.0","0","0","77038","","null","","","null","81","","","","","","","","","","","","","","","NaN",""
"","S1","","html-keyboard-response","519","563409","0.0-1.0-740.0","0","0","77038","","null","","","null","82","","","","","","","","","","","","","","","",""
"","ISI","","html-keyboard-response","520","565421","0.0-1.0-741.0","0","0","77038","","null","","","null","82","NaN","","","","","","","","","","","","","","",""
"","S2","","html-keyboard-response","521","565580","0.0-1.0-742.0","0","0","77038","","null","","","null","82","","NaN","","","","","","","","","","","","","",""
"","response","","html-keyboard-response","522","566089","0.0-1.0-743.0-0.0","0","0","77038","","506","","","75","82","","","2","82","training","adjacent","FE","6","5","N.jpg","O.jpg","0","0","1","",""
"","feedback","","html-keyboard-response","523","567102","0.0-1.0-744.0-0.0","0","0","77038","","null","","","null","82","","","","","","","","","","","","","","","",""
"","ITI","","html-keyboard-response","524","568118","0.0-1.0-747.0","0","0","77038","","null","","","null","82","","","","","","","","","","","","","","","NaN",""
"","S1","","html-keyboard-response","525","568274","0.0-1.0-749.0","0","0","77038","","null","","","null","83","","","","","","","","","","","","","","","",""
"","ISI","","html-keyboard-response","526","570283","0.0-1.0-750.0","0","0","77038","","null","","","null","83","NaN","","","","","","","","","","","","","","",""
"","S2","","html-keyboard-response","527","570445","0.0-1.0-751.0","0","0","77038","","null","","","null","83","","NaN","","","","","","","","","","","","","",""
"","response","","html-keyboard-response","528","571464","0.0-1.0-752.0-0.0","0","0","77038","","1017","","","75","83","","","2","83","training","adjacent","FE","6","5","N.jpg","O.jpg","0","0","1","",""
"","feedback","","html-keyboard-response","529","572477","0.0-1.0-753.0-0.0","0","0","77038","","null","","","null","83","","","","","","","","","","","","","","","",""
"","ITI","","html-keyboard-response","530","573481","0.0-1.0-756.0","0","0","77038","","null","","","null","83","","","","","","","","","","","","","","","NaN",""
"","S1","","html-keyboard-response","531","573643","0.0-1.0-758.0","0","0","77038","","null","","","null","84","","","","","","","","","","","","","","","",""
"","ISI","","html-keyboard-response","532","575653","0.0-1.0-759.0","0","0","77038","","null","","","null","84","NaN","","","","","","","","","","","","","","",""
"","S2","","html-keyboard-response","533","575809","0.0-1.0-760.0","0","0","77038","","null","","","null","84","","NaN","","","","","","","","","","","","","",""
"","response","","html-keyboard-response","534","576641","0.0-1.0-761.0-0.0","0","0","77038","","829","","","68","84","","","2","84","training","adjacent","BC","2","3","R.jpg","Q.jpg","1","1","1","",""
"","feedback","","html-keyboard-response","535","577649","0.0-1.0-762.0-0.0","0","0","77038","","null","","","null","84","","","","","","","","","","","","","","","",""
"","ITI","","html-keyboard-response","536","578660","0.0-1.0-765.0","0","0","77038","","null","","","null","84","","","","","","","","","","","","","","","NaN",""
"","S1","","html-keyboard-response","537","578822","0.0-1.0-767.0","0","0","77038","","null","","","null","85","","","","","","","","","","","","","","","",""
"","ISI","","html-keyboard-response","538","580830","0.0-1.0-768.0","0","0","77038","","null","","","null","85","NaN","","","","","","","","","","","","","","",""
"","S2","","html-keyboard-response","539","580987","0.0-1.0-769.0","0","0","77038","","null","","","null","85","","NaN","","","","","","","","","","","","","",""
"","response","","html-keyboard-response","540","581851","0.0-1.0-770.0-0.0","0","0","77038","","861","","","68","85","","","2","85","training","adjacent","CD","3","4","Q.jpg","P.jpg","1","1","1","",""
"","feedback","","html-keyboard-response","541","582858","0.0-1.0-771.0-0.0","0","0","77038","","null","","","null","85","","","","","","","","","","","","","","","",""
"","ITI","","html-keyboard-response","542","583861","0.0-1.0-774.0","0","0","77038","","null","","","null","85","","","","","","","","","","","","","","","NaN",""
"","S1","","html-keyboard-response","543","584018","0.0-1.0-776.0","0","0","77038","","null","","","null","86","","","","","","","","","","","","","","","",""
"","ISI","","html-keyboard-response","544","586026","0.0-1.0-777.0","0","0","77038","","null","","","null","86","NaN","","","","","","","","","","","","","","",""
"","S2","","html-keyboard-response","545","586188","0.0-1.0-778.0","0","0","77038","","null","","","null","86","","NaN","","","","","","","","","","","","","",""
"","response","","html-keyboard-response","546","586792","0.0-1.0-779.0-0.0","0","0","77038","","601","","","75","86","","","2","86","training","adjacent","CB","3","2","Q.jpg","R.jpg","0","0","1","",""
"","feedback","","html-keyboard-response","547","587802","0.0-1.0-780.0-0.0","0","0","77038","","null","","","null","86","","","","","","","","","","","","","","","",""
"","ITI","","html-keyboard-response","548","588812","0.0-1.0-783.0","0","0","77038","","null","","","null","86","","","","","","","","","","","","","","","NaN",""
"","S1","","html-keyboard-response","549","588969","0.0-1.0-785.0","0","0","77038","","null","","","null","87","","","","","","","","","","","","","","","",""
"","ISI","","html-keyboard-response","550","590978","0.0-1.0-786.0","0","0","77038","","null","","","null","87","NaN","","","","","","","","","","","","","","",""
"","S2","","html-keyboard-response","551","591140","0.0-1.0-787.0","0","0","77038","","null","","","null","87","","NaN","","","","","","","","","","","","","",""
"","response","","html-keyboard-response","552","591574","0.0-1.0-788.0-0.0","0","0","77038","","431","","","68","87","","","2","87","training","adjacent","DE","4","5","P.jpg","O.jpg","1","1","1","",""
"","feedback","","html-keyboard-response","553","592580","0.0-1.0-789.0-0.0","0","0","77038","","null","","","null","87","","","","","","","","","","","","","","","",""
"","ITI","","html-keyboard-response","554","593589","0.0-1.0-792.0","0","0","77038","","null","","","null","87","","","","","","","","","","","","","","","NaN",""
"","S1","","html-keyboard-response","555","593747","0.0-1.0-794.0","0","0","77038","","null","","","null","88","","","","","","","","","","","","","","","",""
"","ISI","","html-keyboard-response","556","595755","0.0-1.0-795.0","0","0","77038","","null","","","null","88","NaN","","","","","","","","","","","","","","",""
"","S2","","html-keyboard-response","557","595918","0.0-1.0-796.0","0","0","77038","","null","","","null","88","","NaN","","","","","","","","","","","","","",""
"","response","","html-keyboard-response","558","596440","0.0-1.0-797.0-0.0","0","0","77038","","519","","","68","88","","","2","88","training","adjacent","FG","6","7","N.jpg","L.jpg","1","1","1","",""
"","feedback","","html-keyboard-response","559","597450","0.0-1.0-798.0-0.0","0","0","77038","","null","","","null","88","","","","","","","","","","","","","","","",""
"","ITI","","html-keyboard-response","560","598459","0.0-1.0-801.0","0","0","77038","","null","","","null","88","","","","","","","","","","","","","","","NaN",""
"","S1","","html-keyboard-response","561","598618","0.0-1.0-803.0","0","0","77038","","null","","","null","89","","","","","","","","","","","","","","","",""
"","ISI","","html-keyboard-response","562","600625","0.0-1.0-804.0","0","0","77038","","null","","","null","89","NaN","","","","","","","","","","","","","","",""
"","S2","","html-keyboard-response","563","600789","0.0-1.0-805.0","0","0","77038","","null","","","null","89","","NaN","","","","","","","","","","","","","",""
"","response","","html-keyboard-response","564","601290","0.0-1.0-806.0-0.0","0","0","77038","","499","","","75","89","","","2","89","training","adjacent","DC","4","3","P.jpg","Q.jpg","0","0","1","",""
"","feedback","","html-keyboard-response","565","602298","0.0-1.0-807.0-0.0","0","0","77038","","null","","","null","89","","","","","","","","","","","","","","","",""
"","ITI","","html-keyboard-response","566","603307","0.0-1.0-810.0","0","0","77038","","null","","","null","89","","","","","","","","","","","","","","","NaN",""
"","S1","","html-keyboard-response","567","603470","0.0-1.0-812.0","0","0","77038","","null","","","null","90","","","","","","","","","","","","","","","",""
"","ISI","","html-keyboard-response","568","605479","0.0-1.0-813.0","0","0","77038","","null","","","null","90","NaN","","","","","","","","","","","","","","",""
"","S2","","html-keyboard-response","569","605636","0.0-1.0-814.0","0","0","77038","","null","","","null","90","","NaN","","","","","","","","","","","","","",""
"","response","","html-keyboard-response","570","606257","0.0-1.0-815.0-0.0","0","0","77038","","619","","","75","90","","","2","90","training","adjacent","BA","2","1","R.jpg","M.jpg","0","0","1","",""
"","feedback","","html-keyboard-response","571","607266","0.0-1.0-816.0-0.0","0","0","77038","","null","","","null","90","","","","","","","","","","","","","","","",""
"","ITI","","html-keyboard-response","572","608277","0.0-1.0-819.0","0","0","77038","","null","","","null","90","","","","","","","","","","","","","","","NaN",""
"","S1","","html-keyboard-response","573","608434","0.0-1.0-821.0","0","0","77038","","null","","","null","91","","","","","","","","","","","","","","","",""
"","ISI","","html-keyboard-response","574","610443","0.0-1.0-822.0","0","0","77038","","null","","","null","91","NaN","","","","","","","","","","","","","","",""
"","S2","","html-keyboard-response","575","610605","0.0-1.0-823.0","0","0","77038","","null","","","null","91","","NaN","","","","","","","","","","","","","",""
"","response","","html-keyboard-response","576","611004","0.0-1.0-824.0-0.0","0","0","77038","","397","","","68","91","","","2","91","training","adjacent","AB","1","2","M.jpg","R.jpg","1","1","1","",""
"","feedback","","html-keyboard-response","577","612010","0.0-1.0-825.0-0.0","0","0","77038","","null","","","null","91","","","","","","","","","","","","","","","",""
"","ITI","","html-keyboard-response","578","613014","0.0-1.0-828.0","0","0","77038","","null","","","null","91","","","","","","","","","","","","","","","NaN",""
"","S1","","html-keyboard-response","579","613171","0.0-1.0-830.0","0","0","77038","","null","","","null","92","","","","","","","","","","","","","","","",""
"","ISI","","html-keyboard-response","580","615178","0.0-1.0-831.0","0","0","77038","","null","","","null","92","NaN","","","","","","","","","","","","","","",""
