"success","ttype","start_time","trial_type","trial_index","time_elapsed","internal_node_id","warning","missed_checkup","PID","view_history","rt","responses","repeat_instructions","key_press","index","keypress_isi","keypress_S2","block","trial_num","phase","group_type","pair_type","S1_stim","S2_stim","S1_img","S2_img","S1_chosen","S1_higher","accuracy","keypress_iti","total_bonus_tally"
"true","full_screen","d08052022hr1306","fullscreen","0","13096","0.0-0.0","0","0","29884","","","","","","","","","","","","","","","","","","","","","",""
"","instructions","","instructions","1","43795","0.0-1.0-0.0-0.0","0","0","29884","[{""page_index"":0,""viewing_time"":3479},{""page_index"":1,""viewing_time"":14585},{""page_index"":2,""viewing_time"":10449},{""page_index"":3,""viewing_time"":2184}]","30697","","","","","","","","","","","","","","","","","","","",""
"","comprehension_check","","survey-multi-choice","2","64830","0.0-1.0-0.0-1.0","0","0","29884","","21030","{""Q0"":""True"",""Q1"":""D"",""Q2"":""Only when the screen 'MAKE A CHOICE' is shown"",""Q3"":""Green mark"",""Q4"":""either D or K""}","1","","","","","","","","","","","","","","","","","",""
"","missed_instruction_checkup","","html-keyboard-response","3","66360","0.0-1.0-0.0-2.0-0.0","0","1","29884","","1525","","","32","","","","","","","","","","","","","","","","",""
"","instructions","","instructions","4","78595","0.0-1.0-0.1-0.1","0","0","29884","[{""page_index"":0,""viewing_time"":2065},{""page_index"":1,""viewing_time"":7885},{""page_index"":2,""viewing_time"":1433},{""page_index"":3,""viewing_time"":850}]","12233","","","","","","","","","","","","","","","","","","","",""
"","comprehension_check","","survey-multi-choice","5","88063","0.0-1.0-0.1-1.1","0","0","29884","","9460","{""Q0"":""True"",""Q1"":""D"",""Q2"":""Once the second image appears and while the screen 'MAKE A CHOICE' is shown"",""Q3"":""Green mark"",""Q4"":""either D or K""}","0","","","","","","","","","","","","","","","","","",""
"","start_exp","","html-keyboard-response","6","89201","0.0-1.0-1.0","0","0","29884","","1134","","","32","","","","","","","","","","","","","","","","",""
"","S1","","html-keyboard-response","7","89454","0.0-1.0-2.0","0","0","29884","","null","","","null","0","","","","","","","","","","","","","","","",""
"","ISI","","html-keyboard-response","8","91457","0.0-1.0-3.0","0","0","29884","","null","","","null","0","NaN","","","","","","","","","","","","","","",""
"","S2","","html-keyboard-response","9","91713","0.0-1.0-4.0","0","0","29884","","null","","","null","0","","NaN","","","","","","","","","","","","","",""
"","response","","html-keyboard-response","10","92485","0.0-1.0-5.0-0.0","0","0","29884","","770","","","75","0","","","1","0","training","adjacent","EF","5","6","R.jpg","N.jpg","0","1","0","",""
"","feedback","","html-keyboard-response","11","93493","0.0-1.0-6.0-0.0","0","0","29884","","null","","","null","0","","","","","","","","","","","","","","","",""
"","time_out","","html-keyboard-response","12","95500","0.0-1.0-8.0-0.0","0","0","29884","","null","","","null","0","","","","","","","","","","","","","","","",""
"","ITI","","html-keyboard-response","13","96502","0.0-1.0-9.0","0","0","29884","","null","","","null","0","","","","","","","","","","","","","","","NaN",""
"","S1","","html-keyboard-response","14","96759","0.0-1.0-11.0","0","0","29884","","null","","","null","1","","","","","","","","","","","","","","","",""
"","ISI","","html-keyboard-response","15","98764","0.0-1.0-12.0","0","0","29884","","null","","","null","1","NaN","","","","","","","","","","","","","","",""
"","S2","","html-keyboard-response","16","99020","0.0-1.0-13.0","0","0","29884","","null","","","null","1","","NaN","","","","","","","","","","","","","",""
"","response","","html-keyboard-response","17","99471","0.0-1.0-14.0-0.0","0","0","29884","","450","","","68","1","","","1","1","training","adjacent","BA","2","1","P.jpg","L.jpg","1","0","0","",""
"","feedback","","html-keyboard-response","18","100476","0.0-1.0-15.0-0.0","0","0","29884","","null","","","null","1","","","","","","","","","","","","","","","",""
"","time_out","","html-keyboard-response","19","102481","0.0-1.0-17.0-0.0","0","0","29884","","null","","","null","1","","","","","","","","","","","","","","","",""
"","ITI","","html-keyboard-response","20","103484","0.0-1.0-18.0","0","0","29884","","null","","","null","1","","","","","","","","","","","","","","","NaN",""
"","S1","","html-keyboard-response","21","103740","0.0-1.0-20.0","0","0","29884","","null","","","null","2","","","","","","","","","","","","","","","",""
"","ISI","","html-keyboard-response","22","105746","0.0-1.0-21.0","0","0","29884","","null","","","null","2","NaN","","","","","","","","","","","","","","",""
"","S2","","html-keyboard-response","23","105999","0.0-1.0-22.0","0","0","29884","","null","","","null","2","","NaN","","","","","","","","","","","","","",""
"","response","","html-keyboard-response","24","106411","0.0-1.0-23.0-0.0","0","0","29884","","410","","","68","2","","","1","2","training","adjacent","BC","2","3","P.jpg","M.jpg","1","1","1","",""
"","feedback","","html-keyboard-response","25","107415","0.0-1.0-24.0-0.0","0","0","29884","","null","","","null","2","","","","","","","","","","","","","","","",""
"","ITI","","html-keyboard-response","26","108420","0.0-1.0-27.0","0","0","29884","","null","","","null","2","","","","","","","","","","","","","","","NaN",""
"","S1","","html-keyboard-response","27","108676","0.0-1.0-29.0","0","0","29884","","null","","","null","3","","","","","","","","","","","","","","","",""
"","ISI","","html-keyboard-response","28","110678","0.0-1.0-30.0","0","0","29884","","null","","","null","3","NaN","","","","","","","","","","","","","","",""
"","S2","","html-keyboard-response","29","110935","0.0-1.0-31.0","0","0","29884","","null","","","null","3","","NaN","","","","","","","","","","","","","",""
"","response","","html-keyboard-response","30","111711","0.0-1.0-32.0-0.0","0","0","29884","","775","","","75","3","","","1","3","training","adjacent","CB","3","2","M.jpg","P.jpg","0","0","1","",""
"","feedback","","html-keyboard-response","31","112716","0.0-1.0-33.0-0.0","0","0","29884","","null","","","null","3","","","","","","","","","","","","","","","",""
"","ITI","","html-keyboard-response","32","113722","0.0-1.0-36.0","0","0","29884","","null","","","null","3","","","","","","","","","","","","","","","NaN",""
"","S1","","html-keyboard-response","33","113974","0.0-1.0-38.0","0","0","29884","","null","","","null","4","","","","","","","","","","","","","","","",""
"","ISI","","html-keyboard-response","34","115980","0.0-1.0-39.0","0","0","29884","","null","","","null","4","NaN","","","","","","","","","","","","","","",""
"","S2","","html-keyboard-response","35","116236","0.0-1.0-40.0","0","0","29884","","null","","","null","4","","NaN","","","","","","","","","","","","","",""
"","response","","html-keyboard-response","36","116792","0.0-1.0-41.0-0.0","0","0","29884","","554","","","75","4","","","1","4","training","adjacent","EF","5","6","R.jpg","N.jpg","0","1","0","",""
"","feedback","","html-keyboard-response","37","117798","0.0-1.0-42.0-0.0","0","0","29884","","null","","","null","4","","","","","","","","","","","","","","","",""
"","time_out","","html-keyboard-response","38","119804","0.0-1.0-44.0-0.0","0","0","29884","","null","","","null","4","","","","","","","","","","","","","","","",""
"","ITI","","html-keyboard-response","39","120806","0.0-1.0-45.0","0","0","29884","","null","","","null","4","","","","","","","","","","","","","","","NaN",""
"","S1","","html-keyboard-response","40","121063","0.0-1.0-47.0","0","0","29884","","null","","","null","5","","","","","","","","","","","","","","","",""
"","ISI","","html-keyboard-response","41","123068","0.0-1.0-48.0","0","0","29884","","null","","","null","5","NaN","","","","","","","","","","","","","","",""
"","S2","","html-keyboard-response","42","123324","0.0-1.0-49.0","0","0","29884","","null","","","null","5","","NaN","","","","","","","","","","","","","",""
"","response","","html-keyboard-response","43","123739","0.0-1.0-50.0-0.0","0","0","29884","","414","","","68","5","","","1","5","training","adjacent","DE","4","5","O.jpg","R.jpg","1","1","1","",""
"","feedback","","html-keyboard-response","44","124742","0.0-1.0-51.0-0.0","0","0","29884","","null","","","null","5","","","","","","","","","","","","","","","",""
"","ITI","","html-keyboard-response","45","125746","0.0-1.0-54.0","0","0","29884","","null","","","null","5","","","","","","","","","","","","","","","NaN",""
"","S1","","html-keyboard-response","46","125998","0.0-1.0-56.0","0","0","29884","","null","","","null","6","","","","","","","","","","","","","","","",""
"","ISI","","html-keyboard-response","47","128001","0.0-1.0-57.0","0","0","29884","","null","","","null","6","NaN","","","","","","","","","","","","","","",""
"","S2","","html-keyboard-response","48","128256","0.0-1.0-58.0","0","0","29884","","null","","","null","6","","NaN","","","","","","","","","","","","","",""
"","response","","html-keyboard-response","49","128864","0.0-1.0-59.0-0.0","0","0","29884","","606","","","75","6","","","1","6","training","adjacent","DC","4","3","O.jpg","M.jpg","0","0","1","",""
"","feedback","","html-keyboard-response","50","129868","0.0-1.0-60.0-0.0","0","0","29884","","null","","","null","6","","","","","","","","","","","","","","","",""
"","ITI","","html-keyboard-response","51","130871","0.0-1.0-63.0","0","0","29884","","null","","","null","6","","","","","","","","","","","","","","","NaN",""
"","S1","","html-keyboard-response","52","131126","0.0-1.0-65.0","0","0","29884","","null","","","null","7","","","","","","","","","","","","","","","",""
"","ISI","","html-keyboard-response","53","133132","0.0-1.0-66.0","0","0","29884","","null","","","null","7","NaN","","","","","","","","","","","","","","",""
"","S2","","html-keyboard-response","54","133388","0.0-1.0-67.0","0","0","29884","","null","","","null","7","","NaN","","","","","","","","","","","","","",""
"","response","","html-keyboard-response","55","134285","0.0-1.0-68.0-0.0","0","0","29884","","896","","","68","7","","","1","7","training","adjacent","DC","4","3","O.jpg","M.jpg","1","0","0","",""
"","feedback","","html-keyboard-response","56","135290","0.0-1.0-69.0-0.0","0","0","29884","","null","","","null","7","","","","","","","","","","","","","","","",""
"","time_out","","html-keyboard-response","57","137295","0.0-1.0-71.0-0.0","0","0","29884","","null","","","null","7","","","","","","","","","","","","","","","",""
"","ITI","","html-keyboard-response","58","138299","0.0-1.0-72.0","0","0","29884","","null","","","null","7","","","","","","","","","","","","","","","NaN",""
"","S1","","html-keyboard-response","59","138556","0.0-1.0-74.0","0","0","29884","","null","","","null","8","","","","","","","","","","","","","","","",""
"","ISI","","html-keyboard-response","60","140561","0.0-1.0-75.0","0","0","29884","","null","","","null","8","NaN","","","","","","","","","","","","","","",""
"","S2","","html-keyboard-response","61","140817","0.0-1.0-76.0","0","0","29884","","null","","","null","8","","NaN","","","","","","","","","","","","","",""
"","response","","html-keyboard-response","62","141933","0.0-1.0-77.0-0.0","0","0","29884","","1115","","","68","8","","","1","8","training","adjacent","FE","6","5","N.jpg","R.jpg","1","0","0","",""
"","feedback","","html-keyboard-response","63","142940","0.0-1.0-78.0-0.0","0","0","29884","","null","","","null","8","","","","","","","","","","","","","","","",""
"","time_out","","html-keyboard-response","64","144945","0.0-1.0-80.0-0.0","0","0","29884","","null","","","null","8","","","","","","","","","","","","","","","",""
"","ITI","","html-keyboard-response","65","145948","0.0-1.0-81.0","0","0","29884","","null","","","null","8","","","","","","","","","","","","","","","NaN",""
"","S1","","html-keyboard-response","66","146204","0.0-1.0-83.0","0","0","29884","","null","","","null","9","","","","","","","","","","","","","","","",""
"","ISI","","html-keyboard-response","67","148209","0.0-1.0-84.0","0","0","29884","","null","","","null","9","NaN","","","","","","","","","","","","","","",""
"","S2","","html-keyboard-response","68","148465","0.0-1.0-85.0","0","0","29884","","null","","","null","9","","NaN","","","","","","","","","","","","","",""
"","response","","html-keyboard-response","69","149239","0.0-1.0-86.0-0.0","0","0","29884","","771","","","68","9","","","1","9","training","adjacent","CB","3","2","M.jpg","P.jpg","1","0","0","",""
"","feedback","","html-keyboard-response","70","150241","0.0-1.0-87.0-0.0","0","0","29884","","null","","","null","9","","","","","","","","","","","","","","","",""
"","time_out","","html-keyboard-response","71","152247","0.0-1.0-89.0-0.0","0","0","29884","","null","","","null","9","","","","","","","","","","","","","","","",""
"","ITI","","html-keyboard-response","72","153250","0.0-1.0-90.0","0","0","29884","","null","","","null","9","","","","","","","","","","","","","","","NaN",""
"","S1","","html-keyboard-response","73","153505","0.0-1.0-92.0","0","0","29884","","null","","","null","10","","","","","","","","","","","","","","","",""
"","ISI","","html-keyboard-response","74","155510","0.0-1.0-93.0","0","0","29884","","null","","","null","10","NaN","","","","","","","","","","","","","","",""
"","S2","","html-keyboard-response","75","155766","0.0-1.0-94.0","0","0","29884","","null","","","null","10","","NaN","","","","","","","","","","","","","",""
"","response","","html-keyboard-response","76","156422","0.0-1.0-95.0-0.0","0","0","29884","","654","","","68","10","","","1","10","training","adjacent","ED","5","4","R.jpg","O.jpg","1","0","0","",""
"","feedback","","html-keyboard-response","77","157427","0.0-1.0-96.0-0.0","0","0","29884","","null","","","null","10","","","","","","","","","","","","","","","",""
"","time_out","","html-keyboard-response","78","159430","0.0-1.0-98.0-0.0","0","0","29884","","null","","","null","10","","","","","","","","","","","","","","","",""
"","ITI","","html-keyboard-response","79","160436","0.0-1.0-99.0","0","0","29884","","null","","","null","10","","","","","","","","","","","","","","","NaN",""
"","S1","","html-keyboard-response","80","160689","0.0-1.0-101.0","0","0","29884","","null","","","null","11","","","","","","","","","","","","","","","",""
"","ISI","","html-keyboard-response","81","162695","0.0-1.0-102.0","0","0","29884","","null","","","null","11","NaN","","","","","","","","","","","","","","",""
"","S2","","html-keyboard-response","82","162950","0.0-1.0-103.0","0","0","29884","","null","","","null","11","","NaN","","","","","","","","","","","","","",""
"","response","","html-keyboard-response","83","162968","0.0-1.0-104.0-0.0","0","0","29884","","16","","","75","11","","","1","11","training","adjacent","FE","6","5","N.jpg","R.jpg","0","0","1","",""
"","feedback","","html-keyboard-response","84","163974","0.0-1.0-105.0-0.0","0","0","29884","","null","","","null","11","","","","","","","","","","","","","","","",""
"","ITI","","html-keyboard-response","85","164977","0.0-1.0-108.0","0","0","29884","","null","","","null","11","","","","","","","","","","","","","","","NaN",""
"","S1","","html-keyboard-response","86","165233","0.0-1.0-110.0","0","0","29884","","null","","","null","12","","","","","","","","","","","","","","","",""
"","ISI","","html-keyboard-response","87","167238","0.0-1.0-111.0","0","0","29884","","null","","","null","12","NaN","","","","","","","","","","","","","","",""
"","S2","","html-keyboard-response","88","167494","0.0-1.0-112.0","0","0","29884","","null","","","null","12","","NaN","","","","","","","","","","","","","",""
"","response","","html-keyboard-response","89","167631","0.0-1.0-113.0-0.0","0","0","29884","","135","","","75","12","","","1","12","training","adjacent","GF","7","6","Q.jpg","N.jpg","0","0","1","",""
"","feedback","","html-keyboard-response","90","168636","0.0-1.0-114.0-0.0","0","0","29884","","null","","","null","12","","","","","","","","","","","","","","","",""
"","ITI","","html-keyboard-response","91","169638","0.0-1.0-117.0","0","0","29884","","null","","","null","12","","","","","","","","","","","","","","","NaN",""
"","S1","","html-keyboard-response","92","169894","0.0-1.0-119.0","0","0","29884","","null","","","null","13","","","","","","","","","","","","","","","",""
"","ISI","","html-keyboard-response","93","171900","0.0-1.0-120.0","0","0","29884","","null","","","null","13","NaN","","","","","","","","","","","","","","",""
"","S2","","html-keyboard-response","94","172156","0.0-1.0-121.0","0","0","29884","","null","","","null","13","","NaN","","","","","","","","","","","","","",""
"","response","","html-keyboard-response","95","172185","0.0-1.0-122.0-0.0","0","0","29884","","27","","","75","13","","","1","13","training","adjacent","CD","3","4","M.jpg","O.jpg","0","1","0","",""
"","feedback","","html-keyboard-response","96","173190","0.0-1.0-123.0-0.0","0","0","29884","","null","","","null","13","","","","","","","","","","","","","","","",""
"","time_out","","html-keyboard-response","97","175196","0.0-1.0-125.0-0.0","0","0","29884","","null","","","null","13","","","","","","","","","","","","","","","",""
"","ITI","","html-keyboard-response","98","176198","0.0-1.0-126.0","0","0","29884","","null","","","null","13","","","","","","","","","","","","","","","NaN",""
"","S1","","html-keyboard-response","99","176454","0.0-1.0-128.0","0","0","29884","","null","","","null","14","","","","","","","","","","","","","","","",""
"","ISI","","html-keyboard-response","100","178460","0.0-1.0-129.0","0","0","29884","","754","","","68","14","d","","","","","","","","","","","","","","",""
"","S2","","html-keyboard-response","101","178715","0.0-1.0-130.0","0","0","29884","","null","","","null","14","","NaN","","","","","","","","","","","","","",""
"","response","","html-keyboard-response","102","179218","0.0-1.0-131.0-0.0","0","0","29884","","501","","","68","14","","","1","14","training","adjacent","AB","1","2","L.jpg","P.jpg","1","1","1","",""
"","feedback","","html-keyboard-response","103","180224","0.0-1.0-132.0-0.0","0","0","29884","","null","","","null","14","","","","","","","","","","","","","","","",""
"","ITI","","html-keyboard-response","104","181228","0.0-1.0-135.0","0","0","29884","","null","","","null","14","","","","","","","","","","","","","","","NaN",""
"","S1","","html-keyboard-response","105","181481","0.0-1.0-137.0","0","0","29884","","null","","","null","15","","","","","","","","","","","","","","","",""
"","ISI","","html-keyboard-response","106","183484","0.0-1.0-138.0","0","0","29884","","null","","","null","15","NaN","","","","","","","","","","","","","","",""
"","S2","","html-keyboard-response","107","183740","0.0-1.0-139.0","0","0","29884","","null","","","null","15","","NaN","","","","","","","","","","","","","",""
"","response","","html-keyboard-response","108","184299","0.0-1.0-140.0-0.0","0","0","29884","","558","","","75","15","","","1","15","training","adjacent","FE","6","5","N.jpg","R.jpg","0","0","1","",""
"","feedback","","html-keyboard-response","109","185302","0.0-1.0-141.0-0.0","0","0","29884","","null","","","null","15","","","","","","","","","","","","","","","",""
"","ITI","","html-keyboard-response","110","186305","0.0-1.0-144.0","0","0","29884","","null","","","null","15","","","","","","","","","","","","","","","NaN",""
"","S1","","html-keyboard-response","111","186561","0.0-1.0-146.0","0","0","29884","","null","","","null","16","","","","","","","","","","","","","","","",""
"","ISI","","html-keyboard-response","112","188566","0.0-1.0-147.0","0","0","29884","","1227","","","68","16","d","","","","","","","","","","","","","","",""
"","S2","","html-keyboard-response","113","188821","0.0-1.0-148.0","0","0","29884","","null","","","null","16","","NaN","","","","","","","","","","","","","",""
"","response","","html-keyboard-response","114","190310","0.0-1.0-149.0-0.0","0","0","29884","","1487","","","68","16","","","1","16","training","adjacent","ED","5","4","R.jpg","O.jpg","1","0","0","",""
"","feedback","","html-keyboard-response","115","191313","0.0-1.0-150.0-0.0","0","0","29884","","null","","","null","16","","","","","","","","","","","","","","","",""
"","time_out","","html-keyboard-response","116","193317","0.0-1.0-152.0-0.0","0","0","29884","","null","","","null","16","","","","","","","","","","","","","","","",""
"","ITI","","html-keyboard-response","117","194321","0.0-1.0-153.0","0","0","29884","","null","","","null","16","","","","","","","","","","","","","","","NaN",""
"","S1","","html-keyboard-response","118","194577","0.0-1.0-155.0","0","0","29884","","null","","","null","17","","","","","","","","","","","","","","","",""
"","ISI","","html-keyboard-response","119","196582","0.0-1.0-156.0","0","0","29884","","null","","","null","17","NaN","","","","","","","","","","","","","","",""
"","S2","","html-keyboard-response","120","196838","0.0-1.0-157.0","0","0","29884","","null","","","null","17","","NaN","","","","","","","","","","","","","",""
"","response","","html-keyboard-response","121","197481","0.0-1.0-158.0-0.0","0","0","29884","","641","","","75","17","","","1","17","training","adjacent","BC","2","3","P.jpg","M.jpg","0","1","0","",""
"","feedback","","html-keyboard-response","122","198486","0.0-1.0-159.0-0.0","0","0","29884","","null","","","null","17","","","","","","","","","","","","","","","",""
"","time_out","","html-keyboard-response","123","200492","0.0-1.0-161.0-0.0","0","0","29884","","null","","","null","17","","","","","","","","","","","","","","","",""
"","ITI","","html-keyboard-response","124","201496","0.0-1.0-162.0","0","0","29884","","null","","","null","17","","","","","","","","","","","","","","","NaN",""
"","S1","","html-keyboard-response","125","201753","0.0-1.0-164.0","0","0","29884","","null","","","null","18","","","","","","","","","","","","","","","",""
"","ISI","","html-keyboard-response","126","203756","0.0-1.0-165.0","0","0","29884","","null","","","null","18","NaN","","","","","","","","","","","","","","",""
"","S2","","html-keyboard-response","127","204010","0.0-1.0-166.0","0","0","29884","","null","","","null","18","","NaN","","","","","","","","","","","","","",""
"","response","","html-keyboard-response","128","204473","0.0-1.0-167.0-0.0","0","0","29884","","462","","","68","18","","","1","18","training","adjacent","CB","3","2","M.jpg","P.jpg","1","0","0","",""
"","feedback","","html-keyboard-response","129","205478","0.0-1.0-168.0-0.0","0","0","29884","","null","","","null","18","","","","","","","","","","","","","","","",""
"","time_out","","html-keyboard-response","130","207484","0.0-1.0-170.0-0.0","0","0","29884","","null","","","null","18","","","","","","","","","","","","","","","",""
"","ITI","","html-keyboard-response","131","208486","0.0-1.0-171.0","0","0","29884","","null","","","null","18","","","","","","","","","","","","","","","NaN",""
"","S1","","html-keyboard-response","132","208742","0.0-1.0-173.0","0","0","29884","","null","","","null","19","","","","","","","","","","","","","","","",""
"","ISI","","html-keyboard-response","133","210748","0.0-1.0-174.0","0","0","29884","","null","","","null","19","NaN","","","","","","","","","","","","","","",""
"","S2","","html-keyboard-response","134","211001","0.0-1.0-175.0","0","0","29884","","null","","","null","19","","NaN","","","","","","","","","","","","","",""
"","response","","html-keyboard-response","135","211820","0.0-1.0-176.0-0.0","0","0","29884","","818","","","68","19","","","1","19","training","adjacent","GF","7","6","Q.jpg","N.jpg","1","0","0","",""
"","feedback","","html-keyboard-response","136","212825","0.0-1.0-177.0-0.0","0","0","29884","","null","","","null","19","","","","","","","","","","","","","","","",""
"","time_out","","html-keyboard-response","137","214828","0.0-1.0-179.0-0.0","0","0","29884","","null","","","null","19","","","","","","","","","","","","","","","",""
"","ITI","","html-keyboard-response","138","215830","0.0-1.0-180.0","0","0","29884","","null","","","null","19","","","","","","","","","","","","","","","NaN",""
"","S1","","html-keyboard-response","139","216086","0.0-1.0-182.0","0","0","29884","","null","","","null","20","","","","","","","","","","","","","","","",""
"","ISI","","html-keyboard-response","140","218092","0.0-1.0-183.0","0","0","29884","","null","","","null","20","NaN","","","","","","","","","","","","","","",""
"","S2","","html-keyboard-response","141","218348","0.0-1.0-184.0","0","0","29884","","null","","","null","20","","NaN","","","","","","","","","","","","","",""
"","response","","html-keyboard-response","142","218743","0.0-1.0-185.0-0.0","0","0","29884","","394","","","68","20","","","1","20","training","adjacent","FG","6","7","N.jpg","Q.jpg","1","1","1","",""
"","feedback","","html-keyboard-response","143","219750","0.0-1.0-186.0-0.0","0","0","29884","","null","","","null","20","","","","","","","","","","","","","","","",""
"","ITI","","html-keyboard-response","144","220753","0.0-1.0-189.0","0","0","29884","","null","","","null","20","","","","","","","","","","","","","","","NaN",""
"","S1","","html-keyboard-response","145","221007","0.0-1.0-191.0","0","0","29884","","null","","","null","21","","","","","","","","","","","","","","","",""
"","ISI","","html-keyboard-response","146","223009","0.0-1.0-192.0","0","0","29884","","null","","","null","21","NaN","","","","","","","","","","","","","","",""
"","S2","","html-keyboard-response","147","223265","0.0-1.0-193.0","0","0","29884","","null","","","null","21","","NaN","","","","","","","","","","","","","",""
"","response","","html-keyboard-response","148","223924","0.0-1.0-194.0-0.0","0","0","29884","","657","","","75","21","","","1","21","training","adjacent","EF","5","6","R.jpg","N.jpg","0","1","0","",""
"","feedback","","html-keyboard-response","149","224929","0.0-1.0-195.0-0.0","0","0","29884","","null","","","null","21","","","","","","","","","","","","","","","",""
"","time_out","","html-keyboard-response","150","226934","0.0-1.0-197.0-0.0","0","0","29884","","null","","","null","21","","","","","","","","","","","","","","","",""
"","ITI","","html-keyboard-response","151","227937","0.0-1.0-198.0","0","0","29884","","null","","","null","21","","","","","","","","","","","","","","","NaN",""
"","S1","","html-keyboard-response","152","228193","0.0-1.0-200.0","0","0","29884","","null","","","null","22","","","","","","","","","","","","","","","",""
"","ISI","","html-keyboard-response","153","230198","0.0-1.0-201.0","0","0","29884","","null","","","null","22","NaN","","","","","","","","","","","","","","",""
"","S2","","html-keyboard-response","154","230454","0.0-1.0-202.0","0","0","29884","","null","","","null","22","","NaN","","","","","","","","","","","","","",""
"","response","","html-keyboard-response","155","230867","0.0-1.0-203.0-0.0","0","0","29884","","412","","","68","22","","","1","22","training","adjacent","DC","4","3","O.jpg","M.jpg","1","0","0","",""
"","feedback","","html-keyboard-response","156","231874","0.0-1.0-204.0-0.0","0","0","29884","","null","","","null","22","","","","","","","","","","","","","","","",""
"","time_out","","html-keyboard-response","157","233878","0.0-1.0-206.0-0.0","0","0","29884","","null","","","null","22","","","","","","","","","","","","","","","",""
"","ITI","","html-keyboard-response","158","234881","0.0-1.0-207.0","0","0","29884","","null","","","null","22","","","","","","","","","","","","","","","NaN",""
"","S1","","html-keyboard-response","159","235137","0.0-1.0-209.0","0","0","29884","","null","","","null","23","","","","","","","","","","","","","","","",""
"","ISI","","html-keyboard-response","160","237142","0.0-1.0-210.0","0","0","29884","","null","","","null","23","NaN","","","","","","","","","","","","","","",""
"","S2","","html-keyboard-response","161","237398","0.0-1.0-211.0","0","0","29884","","null","","","null","23","","NaN","","","","","","","","","","","","","",""
"","response","","html-keyboard-response","162","237636","0.0-1.0-212.0-0.0","0","0","29884","","236","","","75","23","","","1","23","training","adjacent","FG","6","7","N.jpg","Q.jpg","0","1","0","",""
"","feedback","","html-keyboard-response","163","238641","0.0-1.0-213.0-0.0","0","0","29884","","null","","","null","23","","","","","","","","","","","","","","","",""
"","time_out","","html-keyboard-response","164","240646","0.0-1.0-215.0-0.0","0","0","29884","","null","","","null","23","","","","","","","","","","","","","","","",""
"","ITI","","html-keyboard-response","165","241651","0.0-1.0-216.0","0","0","29884","","null","","","null","23","","","","","","","","","","","","","","","NaN",""
"","S1","","html-keyboard-response","166","241905","0.0-1.0-218.0","0","0","29884","","null","","","null","24","","","","","","","","","","","","","","","",""
"","ISI","","html-keyboard-response","167","243910","0.0-1.0-219.0","0","0","29884","","null","","","null","24","NaN","","","","","","","","","","","","","","",""
"","S2","","html-keyboard-response","168","244166","0.0-1.0-220.0","0","0","29884","","null","","","null","24","","NaN","","","","","","","","","","","","","",""
"","response","","html-keyboard-response","169","244544","0.0-1.0-221.0-0.0","0","0","29884","","376","","","68","24","","","1","24","training","adjacent","BC","2","3","P.jpg","M.jpg","1","1","1","",""
"","feedback","","html-keyboard-response","170","245548","0.0-1.0-222.0-0.0","0","0","29884","","null","","","null","24","","","","","","","","","","","","","","","",""
"","ITI","","html-keyboard-response","171","246550","0.0-1.0-225.0","0","0","29884","","null","","","null","24","","","","","","","","","","","","","","","NaN",""
"","S1","","html-keyboard-response","172","246806","0.0-1.0-227.0","0","0","29884","","null","","","null","25","","","","","","","","","","","","","","","",""
"","ISI","","html-keyboard-response","173","248812","0.0-1.0-228.0","0","0","29884","","null","","","null","25","NaN","","","","","","","","","","","","","","",""
"","S2","","html-keyboard-response","174","249068","0.0-1.0-229.0","0","0","29884","","null","","","null","25","","NaN","","","","","","","","","","","","","",""
"","response","","html-keyboard-response","175","249316","0.0-1.0-230.0-0.0","0","0","29884","","247","","","68","25","","","1","25","training","adjacent","EF","5","6","R.jpg","N.jpg","1","1","1","",""
"","feedback","","html-keyboard-response","176","250321","0.0-1.0-231.0-0.0","0","0","29884","","null","","","null","25","","","","","","","","","","","","","","","",""
"","ITI","","html-keyboard-response","177","251324","0.0-1.0-234.0","0","0","29884","","null","","","null","25","","","","","","","","","","","","","","","NaN",""
"","S1","","html-keyboard-response","178","251580","0.0-1.0-236.0","0","0","29884","","null","","","null","26","","","","","","","","","","","","","","","",""
"","ISI","","html-keyboard-response","179","253585","0.0-1.0-237.0","0","0","29884","","null","","","null","26","NaN","","","","","","","","","","","","","","",""
"","S2","","html-keyboard-response","180","253842","0.0-1.0-238.0","0","0","29884","","null","","","null","26","","NaN","","","","","","","","","","","","","",""
"","response","","html-keyboard-response","181","254288","0.0-1.0-239.0-0.0","0","0","29884","","444","","","75","26","","","1","26","training","adjacent","FG","6","7","N.jpg","Q.jpg","0","1","0","",""
"","feedback","","html-keyboard-response","182","255291","0.0-1.0-240.0-0.0","0","0","29884","","null","","","null","26","","","","","","","","","","","","","","","",""
"","time_out","","html-keyboard-response","183","257297","0.0-1.0-242.0-0.0","0","0","29884","","null","","","null","26","","","","","","","","","","","","","","","",""
"","ITI","","html-keyboard-response","184","258300","0.0-1.0-243.0","0","0","29884","","null","","","null","26","","","","","","","","","","","","","","","NaN",""
"","S1","","html-keyboard-response","185","258556","0.0-1.0-245.0","0","0","29884","","null","","","null","27","","","","","","","","","","","","","","","",""
"","ISI","","html-keyboard-response","186","260561","0.0-1.0-246.0","0","0","29884","","null","","","null","27","NaN","","","","","","","","","","","","","","",""
"","S2","","html-keyboard-response","187","260817","0.0-1.0-247.0","0","0","29884","","null","","","null","27","","NaN","","","","","","","","","","","","","",""
"","response","","html-keyboard-response","188","261705","0.0-1.0-248.0-0.0","0","0","29884","","887","","","68","27","","","1","27","training","adjacent","DE","4","5","O.jpg","R.jpg","1","1","1","",""
"","feedback","","html-keyboard-response","189","262710","0.0-1.0-249.0-0.0","0","0","29884","","null","","","null","27","","","","","","","","","","","","","","","",""
"","ITI","","html-keyboard-response","190","263718","0.0-1.0-252.0","0","0","29884","","null","","","null","27","","","","","","","","","","","","","","","NaN",""
"","S1","","html-keyboard-response","191","263974","0.0-1.0-254.0","0","0","29884","","null","","","null","28","","","","","","","","","","","","","","","",""
"","ISI","","html-keyboard-response","192","265980","0.0-1.0-255.0","0","0","29884","","null","","","null","28","NaN","","","","","","","","","","","","","","",""
"","S2","","html-keyboard-response","193","266236","0.0-1.0-256.0","0","0","29884","","null","","","null","28","","NaN","","","","","","","","","","","","","",""
"","response","","html-keyboard-response","194","266658","0.0-1.0-257.0-0.0","0","0","29884","","421","","","68","28","","","1","28","training","adjacent","BA","2","1","P.jpg","L.jpg","1","0","0","",""
"","feedback","","html-keyboard-response","195","267665","0.0-1.0-258.0-0.0","0","0","29884","","null","","","null","28","","","","","","","","","","","","","","","",""
"","time_out","","html-keyboard-response","196","269670","0.0-1.0-260.0-0.0","0","0","29884","","null","","","null","28","","","","","","","","","","","","","","","",""
"","ITI","","html-keyboard-response","197","270675","0.0-1.0-261.0","0","0","29884","","null","","","null","28","","","","","","","","","","","","","","","NaN",""
"","S1","","html-keyboard-response","198","270929","0.0-1.0-263.0","0","0","29884","","null","","","null","29","","","","","","","","","","","","","","","",""
"","ISI","","html-keyboard-response","199","272934","0.0-1.0-264.0","0","0","29884","","null","","","null","29","NaN","","","","","","","","","","","","","","",""
"","S2","","html-keyboard-response","200","273190","0.0-1.0-265.0","0","0","29884","","null","","","null","29","","NaN","","","","","","","","","","","","","",""
"","response","","html-keyboard-response","201","274537","0.0-1.0-266.0-0.0","0","0","29884","","1345","","","68","29","","","1","29","training","adjacent","DC","4","3","O.jpg","M.jpg","1","0","0","",""
"","feedback","","html-keyboard-response","202","275542","0.0-1.0-267.0-0.0","0","0","29884","","null","","","null","29","","","","","","","","","","","","","","","",""
"","time_out","","html-keyboard-response","203","277549","0.0-1.0-269.0-0.0","0","0","29884","","null","","","null","29","","","","","","","","","","","","","","","",""
"","ITI","","html-keyboard-response","204","278556","0.0-1.0-270.0","0","0","29884","","null","","","null","29","","","","","","","","","","","","","","","NaN",""
"","S1","","html-keyboard-response","205","278812","0.0-1.0-272.0","0","0","29884","","null","","","null","30","","","","","","","","","","","","","","","",""
"","ISI","","html-keyboard-response","206","280817","0.0-1.0-273.0","0","0","29884","","null","","","null","30","NaN","","","","","","","","","","","","","","",""
"","S2","","html-keyboard-response","207","281073","0.0-1.0-274.0","0","0","29884","","null","","","null","30","","NaN","","","","","","","","","","","","","",""
"","response","","html-keyboard-response","208","281547","0.0-1.0-275.0-0.0","0","0","29884","","472","","","75","30","","","1","30","training","adjacent","AB","1","2","L.jpg","P.jpg","0","1","0","",""
"","feedback","","html-keyboard-response","209","282550","0.0-1.0-276.0-0.0","0","0","29884","","null","","","null","30","","","","","","","","","","","","","","","",""
"","time_out","","html-keyboard-response","210","284556","0.0-1.0-278.0-0.0","0","0","29884","","null","","","null","30","","","","","","","","","","","","","","","",""
"","ITI","","html-keyboard-response","211","285560","0.0-1.0-279.0","0","0","29884","","null","","","null","30","","","","","","","","","","","","","","","NaN",""
"","S1","","html-keyboard-response","212","285814","0.0-1.0-281.0","0","0","29884","","null","","","null","31","","","","","","","","","","","","","","","",""
"","ISI","","html-keyboard-response","213","287820","0.0-1.0-282.0","0","0","29884","","null","","","null","31","NaN","","","","","","","","","","","","","","",""
"","S2","","html-keyboard-response","214","288076","0.0-1.0-283.0","0","0","29884","","null","","","null","31","","NaN","","","","","","","","","","","","","",""
"","response","","html-keyboard-response","215","288374","0.0-1.0-284.0-0.0","0","0","29884","","297","","","68","31","","","1","31","training","adjacent","DE","4","5","O.jpg","R.jpg","1","1","1","",""
"","feedback","","html-keyboard-response","216","289380","0.0-1.0-285.0-0.0","0","0","29884","","null","","","null","31","","","","","","","","","","","","","","","",""
"","ITI","","html-keyboard-response","217","290385","0.0-1.0-288.0","0","0","29884","","null","","","null","31","","","","","","","","","","","","","","","NaN",""
"","S1","","html-keyboard-response","218","290641","0.0-1.0-290.0","0","0","29884","","null","","","null","32","","","","","","","","","","","","","","","",""
"","ISI","","html-keyboard-response","219","292646","0.0-1.0-291.0","0","0","29884","","null","","","null","32","NaN","","","","","","","","","","","","","","",""
"","S2","","html-keyboard-response","220","292902","0.0-1.0-292.0","0","0","29884","","null","","","null","32","","NaN","","","","","","","","","","","","","",""
"","response","","html-keyboard-response","221","293304","0.0-1.0-293.0-0.0","0","0","29884","","400","","","75","32","","","1","32","training","adjacent","ED","5","4","R.jpg","O.jpg","0","0","1","",""
"","feedback","","html-keyboard-response","222","294310","0.0-1.0-294.0-0.0","0","0","29884","","null","","","null","32","","","","","","","","","","","","","","","",""
"","ITI","","html-keyboard-response","223","295313","0.0-1.0-297.0","0","0","29884","","null","","","null","32","","","","","","","","","","","","","","","NaN",""
"","S1","","html-keyboard-response","224","295569","0.0-1.0-299.0","0","0","29884","","null","","","null","33","","","","","","","","","","","","","","","",""
"","ISI","","html-keyboard-response","225","297574","0.0-1.0-300.0","0","0","29884","","null","","","null","33","NaN","","","","","","","","","","","","","","",""
"","S2","","html-keyboard-response","226","297830","0.0-1.0-301.0","0","0","29884","","null","","","null","33","","NaN","","","","","","","","","","","","","",""
"","response","","html-keyboard-response","227","298602","0.0-1.0-302.0-0.0","0","0","29884","","770","","","68","33","","","1","33","training","adjacent","FE","6","5","N.jpg","R.jpg","1","0","0","",""
"","feedback","","html-keyboard-response","228","299606","0.0-1.0-303.0-0.0","0","0","29884","","null","","","null","33","","","","","","","","","","","","","","","",""
"","time_out","","html-keyboard-response","229","301612","0.0-1.0-305.0-0.0","0","0","29884","","null","","","null","33","","","","","","","","","","","","","","","",""
"","ITI","","html-keyboard-response","230","302617","0.0-1.0-306.0","0","0","29884","","null","","","null","33","","","","","","","","","","","","","","","NaN",""
"","S1","","html-keyboard-response","231","302871","0.0-1.0-308.0","0","0","29884","","null","","","null","34","","","","","","","","","","","","","","","",""
"","ISI","","html-keyboard-response","232","304876","0.0-1.0-309.0","0","0","29884","","null","","","null","34","NaN","","","","","","","","","","","","","","",""
"","S2","","html-keyboard-response","233","305132","0.0-1.0-310.0","0","0","29884","","null","","","null","34","","NaN","","","","","","","","","","","","","",""
"","response","","html-keyboard-response","234","305401","0.0-1.0-311.0-0.0","0","0","29884","","268","","","68","34","","","1","34","training","adjacent","AB","1","2","L.jpg","P.jpg","1","1","1","",""
"","feedback","","html-keyboard-response","235","306408","0.0-1.0-312.0-0.0","0","0","29884","","null","","","null","34","","","","","","","","","","","","","","","",""
"","ITI","","html-keyboard-response","236","307414","0.0-1.0-315.0","0","0","29884","","null","","","null","34","","","","","","","","","","","","","","","NaN",""
"","S1","","html-keyboard-response","237","307670","0.0-1.0-317.0","0","0","29884","","null","","","null","35","","","","","","","","","","","","","","","",""
"","ISI","","html-keyboard-response","238","309675","0.0-1.0-318.0","0","0","29884","","null","","","null","35","NaN","","","","","","","","","","","","","","",""
"","S2","","html-keyboard-response","239","309932","0.0-1.0-319.0","0","0","29884","","null","","","null","35","","NaN","","","","","","","","","","","","","",""
"","response","","html-keyboard-response","240","310335","0.0-1.0-320.0-0.0","0","0","29884","","402","","","75","35","","","1","35","training","adjacent","CD","3","4","M.jpg","O.jpg","0","1","0","",""
"","feedback","","html-keyboard-response","241","311340","0.0-1.0-321.0-0.0","0","0","29884","","null","","","null","35","","","","","","","","","","","","","","","",""
"","time_out","","html-keyboard-response","242","313345","0.0-1.0-323.0-0.0","0","0","29884","","null","","","null","35","","","","","","","","","","","","","","","",""
"","ITI","","html-keyboard-response","243","314348","0.0-1.0-324.0","0","0","29884","","null","","","null","35","","","","","","","","","","","","","","","NaN",""
"","S1","","html-keyboard-response","244","314604","0.0-1.0-326.0","0","0","29884","","null","","","null","36","","","","","","","","","","","","","","","",""
"","ISI","","html-keyboard-response","245","316609","0.0-1.0-327.0","0","0","29884","","null","","","null","36","NaN","","","","","","","","","","","","","","",""
"","S2","","html-keyboard-response","246","316865","0.0-1.0-328.0","0","0","29884","","null","","","null","36","","NaN","","","","","","","","","","","","","",""
"","response","","html-keyboard-response","247","317339","0.0-1.0-329.0-0.0","0","0","29884","","473","","","68","36","","","1","36","training","adjacent","DE","4","5","O.jpg","R.jpg","1","1","1","",""
"","feedback","","html-keyboard-response","248","318342","0.0-1.0-330.0-0.0","0","0","29884","","null","","","null","36","","","","","","","","","","","","","","","",""
"","ITI","","html-keyboard-response","249","319345","0.0-1.0-333.0","0","0","29884","","null","","","null","36","","","","","","","","","","","","","","","NaN",""
"","S1","","html-keyboard-response","250","319601","0.0-1.0-335.0","0","0","29884","","null","","","null","37","","","","","","","","","","","","","","","",""
"","ISI","","html-keyboard-response","251","321606","0.0-1.0-336.0","0","0","29884","","null","","","null","37","NaN","","","","","","","","","","","","","","",""
"","S2","","html-keyboard-response","252","321863","0.0-1.0-337.0","0","0","29884","","null","","","null","37","","NaN","","","","","","","","","","","","","",""
"","response","","html-keyboard-response","253","323617","0.0-1.0-338.0-0.0","0","0","29884","","null","","","null","37","","","1","37","training","adjacent","BC","2","3","P.jpg","M.jpg","NaN","1","0","",""
"","too_slow_prompt","","html-keyboard-response","254","324619","0.0-1.0-340.0-0.0","1","0","29884","","null","","","null","","","","","","","","","","","","","","","","",""
"","time_out","","html-keyboard-response","255","326625","0.0-1.0-341.0-0.0","0","0","29884","","null","","","null","37","","","","","","","","","","","","","","","",""
"","ITI","","html-keyboard-response","256","327627","0.0-1.0-342.0","0","0","29884","","null","","","null","37","","","","","","","","","","","","","","","NaN",""
"","S1","","html-keyboard-response","257","327883","0.0-1.0-344.0","0","0","29884","","null","","","null","38","","","","","","","","","","","","","","","",""
"","ISI","","html-keyboard-response","258","329889","0.0-1.0-345.0","0","0","29884","","null","","","null","38","NaN","","","","","","","","","","","","","","",""
"","S2","","html-keyboard-response","259","330145","0.0-1.0-346.0","0","0","29884","","null","","","null","38","","NaN","","","","","","","","","","","","","",""
"","response","","html-keyboard-response","260","330519","0.0-1.0-347.0-0.0","0","0","29884","","372","","","75","38","","","1","38","training","adjacent","BA","2","1","P.jpg","L.jpg","0","0","1","",""
"","feedback","","html-keyboard-response","261","331522","0.0-1.0-348.0-0.0","0","0","29884","","null","","","null","38","","","","","","","","","","","","","","","",""
"","ITI","","html-keyboard-response","262","332529","0.0-1.0-351.0","0","0","29884","","null","","","null","38","","","","","","","","","","","","","","","NaN",""
"","S1","","html-keyboard-response","263","332785","0.0-1.0-353.0","0","0","29884","","null","","","null","39","","","","","","","","","","","","","","","",""
"","ISI","","html-keyboard-response","264","334790","0.0-1.0-354.0","0","0","29884","","null","","","null","39","NaN","","","","","","","","","","","","","","",""
"","S2","","html-keyboard-response","265","335046","0.0-1.0-355.0","0","0","29884","","null","","","null","39","","NaN","","","","","","","","","","","","","",""
"","response","","html-keyboard-response","266","335488","0.0-1.0-356.0-0.0","0","0","29884","","440","","","75","39","","","1","39","training","adjacent","GF","7","6","Q.jpg","N.jpg","0","0","1","",""
"","feedback","","html-keyboard-response","267","336492","0.0-1.0-357.0-0.0","0","0","29884","","null","","","null","39","","","","","","","","","","","","","","","",""
"","ITI","","html-keyboard-response","268","337494","0.0-1.0-360.0","0","0","29884","","null","","","null","39","","","","","","","","","","","","","","","NaN",""
"","S1","","html-keyboard-response","269","337750","0.0-1.0-362.0","0","0","29884","","null","","","null","40","","","","","","","","","","","","","","","",""
"","ISI","","html-keyboard-response","270","339755","0.0-1.0-363.0","0","0","29884","","null","","","null","40","NaN","","","","","","","","","","","","","","",""
"","S2","","html-keyboard-response","271","340009","0.0-1.0-364.0","0","0","29884","","null","","","null","40","","NaN","","","","","","","","","","","","","",""
"","response","","html-keyboard-response","272","340631","0.0-1.0-365.0-0.0","0","0","29884","","621","","","75","40","","","1","40","training","adjacent","CD","3","4","M.jpg","O.jpg","0","1","0","",""
"","feedback","","html-keyboard-response","273","341638","0.0-1.0-366.0-0.0","0","0","29884","","null","","","null","40","","","","","","","","","","","","","","","",""
"","time_out","","html-keyboard-response","274","343644","0.0-1.0-368.0-0.0","0","0","29884","","null","","","null","40","","","","","","","","","","","","","","","",""
"","ITI","","html-keyboard-response","275","344646","0.0-1.0-369.0","0","0","29884","","null","","","null","40","","","","","","","","","","","","","","","NaN",""
"","S1","","html-keyboard-response","276","344902","0.0-1.0-371.0","0","0","29884","","null","","","null","41","","","","","","","","","","","","","","","",""
"","ISI","","html-keyboard-response","277","346908","0.0-1.0-372.0","0","0","29884","","null","","","null","41","NaN","","","","","","","","","","","","","","",""
"","S2","","html-keyboard-response","278","347164","0.0-1.0-373.0","0","0","29884","","null","","","null","41","","NaN","","","","","","","","","","","","","",""
"","response","","html-keyboard-response","279","347814","0.0-1.0-374.0-0.0","0","0","29884","","649","","","68","41","","","1","41","training","adjacent","AB","1","2","L.jpg","P.jpg","1","1","1","",""
"","feedback","","html-keyboard-response","280","348817","0.0-1.0-375.0-0.0","0","0","29884","","null","","","null","41","","","","","","","","","","","","","","","",""
"","ITI","","html-keyboard-response","281","349820","0.0-1.0-378.0","0","0","29884","","null","","","null","41","","","","","","","","","","","","","","","NaN",""
"","S1","","html-keyboard-response","282","350075","0.0-1.0-380.0","0","0","29884","","null","","","null","42","","","","","","","","","","","","","","","",""
"","ISI","","html-keyboard-response","283","352081","0.0-1.0-381.0","0","0","29884","","null","","","null","42","NaN","","","","","","","","","","","","","","",""
"","S2","","html-keyboard-response","284","352337","0.0-1.0-382.0","0","0","29884","","null","","","null","42","","NaN","","","","","","","","","","","","","",""
"","response","","html-keyboard-response","285","353428","0.0-1.0-383.0-0.0","0","0","29884","","1090","","","68","42","","","1","42","training","adjacent","ED","5","4","R.jpg","O.jpg","1","0","0","",""
"","feedback","","html-keyboard-response","286","354433","0.0-1.0-384.0-0.0","0","0","29884","","null","","","null","42","","","","","","","","","","","","","","","",""
"","time_out","","html-keyboard-response","287","356440","0.0-1.0-386.0-0.0","0","0","29884","","null","","","null","42","","","","","","","","","","","","","","","",""
"","ITI","","html-keyboard-response","288","357446","0.0-1.0-387.0","0","0","29884","","null","","","null","42","","","","","","","","","","","","","","","NaN",""
"","S1","","html-keyboard-response","289","357702","0.0-1.0-389.0","0","0","29884","","null","","","null","43","","","","","","","","","","","","","","","",""
"","ISI","","html-keyboard-response","290","359708","0.0-1.0-390.0","0","0","29884","","null","","","null","43","NaN","","","","","","","","","","","","","","",""
"","S2","","html-keyboard-response","291","359963","0.0-1.0-391.0","0","0","29884","","null","","","null","43","","NaN","","","","","","","","","","","","","",""
"","response","","html-keyboard-response","292","360938","0.0-1.0-392.0-0.0","0","0","29884","","973","","","75","43","","","1","43","training","adjacent","CD","3","4","M.jpg","O.jpg","0","1","0","",""
"","feedback","","html-keyboard-response","293","361942","0.0-1.0-393.0-0.0","0","0","29884","","null","","","null","43","","","","","","","","","","","","","","","",""
"","time_out","","html-keyboard-response","294","363947","0.0-1.0-395.0-0.0","0","0","29884","","null","","","null","43","","","","","","","","","","","","","","","",""
"","ITI","","html-keyboard-response","295","364950","0.0-1.0-396.0","0","0","29884","","null","","","null","43","","","","","","","","","","","","","","","NaN",""
"","S1","","html-keyboard-response","296","365206","0.0-1.0-398.0","0","0","29884","","null","","","null","44","","","","","","","","","","","","","","","",""
"","ISI","","html-keyboard-response","297","367212","0.0-1.0-399.0","0","0","29884","","null","","","null","44","NaN","","","","","","","","","","","","","","",""
"","S2","","html-keyboard-response","298","367467","0.0-1.0-400.0","0","0","29884","","null","","","null","44","","NaN","","","","","","","","","","","","","",""
"","response","","html-keyboard-response","299","367805","0.0-1.0-401.0-0.0","0","0","29884","","336","","","68","44","","","1","44","training","adjacent","BA","2","1","P.jpg","L.jpg","1","0","0","",""
"","feedback","","html-keyboard-response","300","368811","0.0-1.0-402.0-0.0","0","0","29884","","null","","","null","44","","","","","","","","","","","","","","","",""
"","time_out","","html-keyboard-response","301","370817","0.0-1.0-404.0-0.0","0","0","29884","","null","","","null","44","","","","","","","","","","","","","","","",""
"","ITI","","html-keyboard-response","302","371820","0.0-1.0-405.0","0","0","29884","","null","","","null","44","","","","","","","","","","","","","","","NaN",""
"","S1","","html-keyboard-response","303","372075","0.0-1.0-407.0","0","0","29884","","null","","","null","45","","","","","","","","","","","","","","","",""
"","ISI","","html-keyboard-response","304","374080","0.0-1.0-408.0","0","0","29884","","null","","","null","45","NaN","","","","","","","","","","","","","","",""
"","S2","","html-keyboard-response","305","374337","0.0-1.0-409.0","0","0","29884","","null","","","null","45","","NaN","","","","","","","","","","","","","",""
"","response","","html-keyboard-response","306","374352","0.0-1.0-410.0-0.0","0","0","29884","","14","","","75","45","","","1","45","training","adjacent","CB","3","2","M.jpg","P.jpg","0","0","1","",""
"","feedback","","html-keyboard-response","307","375359","0.0-1.0-411.0-0.0","0","0","29884","","null","","","null","45","","","","","","","","","","","","","","","",""
"","ITI","","html-keyboard-response","308","376363","0.0-1.0-414.0","0","0","29884","","null","","","null","45","","","","","","","","","","","","","","","NaN",""
"","S1","","html-keyboard-response","309","376620","0.0-1.0-416.0","0","0","29884","","null","","","null","46","","","","","","","","","","","","","","","",""
"","ISI","","html-keyboard-response","310","378625","0.0-1.0-417.0","0","0","29884","","null","","","null","46","NaN","","","","","","","","","","","","","","",""
"","S2","","html-keyboard-response","311","378881","0.0-1.0-418.0","0","0","29884","","null","","","null","46","","NaN","","","","","","","","","","","","","",""
"","response","","html-keyboard-response","312","379291","0.0-1.0-419.0-0.0","0","0","29884","","408","","","75","46","","","1","46","training","adjacent","GF","7","6","Q.jpg","N.jpg","0","0","1","",""
"","feedback","","html-keyboard-response","313","380294","0.0-1.0-420.0-0.0","0","0","29884","","null","","","null","46","","","","","","","","","","","","","","","",""
"","ITI","","html-keyboard-response","314","381297","0.0-1.0-423.0","0","0","29884","","null","","","null","46","","","","","","","","","","","","","","","NaN",""
"","S1","","html-keyboard-response","315","381550","0.0-1.0-425.0","0","0","29884","","null","","","null","47","","","","","","","","","","","","","","","",""
"","ISI","","html-keyboard-response","316","383553","0.0-1.0-426.0","0","0","29884","","null","","","null","47","NaN","","","","","","","","","","","","","","",""
"","S2","","html-keyboard-response","317","383809","0.0-1.0-427.0","0","0","29884","","null","","","null","47","","NaN","","","","","","","","","","","","","",""
"","response","","html-keyboard-response","318","384307","0.0-1.0-428.0-0.0","0","0","29884","","497","","","68","47","","","1","47","training","adjacent","FG","6","7","N.jpg","Q.jpg","1","1","1","",""
"","feedback","","html-keyboard-response","319","385313","0.0-1.0-429.0-0.0","0","0","29884","","null","","","null","47","","","","","","","","","","","","","","","",""
"","ITI","","html-keyboard-response","320","386316","0.0-1.0-432.0","0","0","29884","","null","","","null","47","","","","","","","","","","","","","","","NaN",""
"","block_over","","html-keyboard-response","321","389557","0.0-1.0-433.0-0.0","0","0","29884","","3239","","","32","47","","","","","","","","","","","","","","","",""
"","S1","","html-keyboard-response","322","389809","0.0-1.0-434.0","0","0","29884","","null","","","null","48","","","","","","","","","","","","","","","",""
"","ISI","","html-keyboard-response","323","391813","0.0-1.0-435.0","0","0","29884","","554","","","68","48","d","","","","","","","","","","","","","","",""
"","S2","","html-keyboard-response","324","392070","0.0-1.0-436.0","0","0","29884","","null","","","null","48","","NaN","","","","","","","","","","","","","",""
"","response","","html-keyboard-response","325","392508","0.0-1.0-437.0-0.0","0","0","29884","","436","","","75","48","","","2","48","training","adjacent","AB","1","2","L.jpg","P.jpg","0","1","0","",""
"","feedback","","html-keyboard-response","326","393513","0.0-1.0-438.0-0.0","0","0","29884","","null","","","null","48","","","","","","","","","","","","","","","",""
"","time_out","","html-keyboard-response","327","395516","0.0-1.0-440.0-0.0","0","0","29884","","null","","","null","48","","","","","","","","","","","","","","","",""
"","ITI","","html-keyboard-response","328","396518","0.0-1.0-441.0","0","0","29884","","null","","","null","48","","","","","","","","","","","","","","","NaN",""
"","S1","","html-keyboard-response","329","396774","0.0-1.0-443.0","0","0","29884","","null","","","null","49","","","","","","","","","","","","","","","",""
"","ISI","","html-keyboard-response","330","398779","0.0-1.0-444.0","0","0","29884","","null","","","null","49","NaN","","","","","","","","","","","","","","",""
"","S2","","html-keyboard-response","331","399035","0.0-1.0-445.0","0","0","29884","","null","","","null","49","","NaN","","","","","","","","","","","","","",""
"","response","","html-keyboard-response","332","399139","0.0-1.0-446.0-0.0","0","0","29884","","102","","","68","49","","","2","49","training","adjacent","EF","5","6","R.jpg","N.jpg","1","1","1","",""
"","feedback","","html-keyboard-response","333","400144","0.0-1.0-447.0-0.0","0","0","29884","","null","","","null","49","","","","","","","","","","","","","","","",""
"","ITI","","html-keyboard-response","334","401147","0.0-1.0-450.0","0","0","29884","","null","","","null","49","","","","","","","","","","","","","","","NaN",""
"","S1","","html-keyboard-response","335","401403","0.0-1.0-452.0","0","0","29884","","null","","","null","50","","","","","","","","","","","","","","","",""
"","ISI","","html-keyboard-response","336","403409","0.0-1.0-453.0","0","0","29884","","null","","","null","50","NaN","","","","","","","","","","","","","","",""
"","S2","","html-keyboard-response","337","403665","0.0-1.0-454.0","0","0","29884","","null","","","null","50","","NaN","","","","","","","","","","","","","",""
"","response","","html-keyboard-response","338","404168","0.0-1.0-455.0-0.0","0","0","29884","","502","","","75","50","","","2","50","training","adjacent","AB","1","2","L.jpg","P.jpg","0","1","0","",""
"","feedback","","html-keyboard-response","339","405174","0.0-1.0-456.0-0.0","0","0","29884","","null","","","null","50","","","","","","","","","","","","","","","",""
"","time_out","","html-keyboard-response","340","407180","0.0-1.0-458.0-0.0","0","0","29884","","null","","","null","50","","","","","","","","","","","","","","","",""
"","ITI","","html-keyboard-response","341","408184","0.0-1.0-459.0","0","0","29884","","null","","","null","50","","","","","","","","","","","","","","","NaN",""
"","S1","","html-keyboard-response","342","408439","0.0-1.0-461.0","0","0","29884","","null","","","null","51","","","","","","","","","","","","","","","",""
"","ISI","","html-keyboard-response","343","410444","0.0-1.0-462.0","0","0","29884","","null","","","null","51","NaN","","","","","","","","","","","","","","",""
"","S2","","html-keyboard-response","344","410700","0.0-1.0-463.0","0","0","29884","","null","","","null","51","","NaN","","","","","","","","","","","","","",""
"","response","","html-keyboard-response","345","410962","0.0-1.0-464.0-0.0","0","0","29884","","261","","","68","51","","","2","51","training","adjacent","GF","7","6","Q.jpg","N.jpg","1","0","0","",""
"","feedback","","html-keyboard-response","346","411969","0.0-1.0-465.0-0.0","0","0","29884","","null","","","null","51","","","","","","","","","","","","","","","",""
"","time_out","","html-keyboard-response","347","413974","0.0-1.0-467.0-0.0","0","0","29884","","null","","","null","51","","","","","","","","","","","","","","","",""
"","ITI","","html-keyboard-response","348","414981","0.0-1.0-468.0","0","0","29884","","null","","","null","51","","","","","","","","","","","","","","","NaN",""
"","S1","","html-keyboard-response","349","415232","0.0-1.0-470.0","0","0","29884","","null","","","null","52","","","","","","","","","","","","","","","",""
"","ISI","","html-keyboard-response","350","417238","0.0-1.0-471.0","0","0","29884","","null","","","null","52","NaN","","","","","","","","","","","","","","",""
"","S2","","html-keyboard-response","351","417494","0.0-1.0-472.0","0","0","29884","","null","","","null","52","","NaN","","","","","","","","","","","","","",""
"","response","","html-keyboard-response","352","417748","0.0-1.0-473.0-0.0","0","0","29884","","252","","","68","52","","","2","52","training","adjacent","ED","5","4","R.jpg","O.jpg","1","0","0","",""
"","feedback","","html-keyboard-response","353","418752","0.0-1.0-474.0-0.0","0","0","29884","","null","","","null","52","","","","","","","","","","","","","","","",""
"","time_out","","html-keyboard-response","354","420758","0.0-1.0-476.0-0.0","0","0","29884","","null","","","null","52","","","","","","","","","","","","","","","",""
"","ITI","","html-keyboard-response","355","421761","0.0-1.0-477.0","0","0","29884","","null","","","null","52","","","","","","","","","","","","","","","NaN",""
"","S1","","html-keyboard-response","356","422017","0.0-1.0-479.0","0","0","29884","","null","","","null","53","","","","","","","","","","","","","","","",""
"","ISI","","html-keyboard-response","357","424022","0.0-1.0-480.0","0","0","29884","","866","","","75","53","k","","","","","","","","","","","","","","",""
"","S2","","html-keyboard-response","358","424278","0.0-1.0-481.0","0","0","29884","","null","","","null","53","","NaN","","","","","","","","","","","","","",""
"","response","","html-keyboard-response","359","424614","0.0-1.0-482.0-0.0","0","0","29884","","334","","","75","53","","","2","53","training","adjacent","CB","3","2","M.jpg","P.jpg","0","0","1","",""
"","feedback","","html-keyboard-response","360","425617","0.0-1.0-483.0-0.0","0","0","29884","","null","","","null","53","","","","","","","","","","","","","","","",""
"","ITI","","html-keyboard-response","361","426619","0.0-1.0-486.0","0","0","29884","","null","","","null","53","","","","","","","","","","","","","","","NaN",""
"","S1","","html-keyboard-response","362","426876","0.0-1.0-488.0","0","0","29884","","null","","","null","54","","","","","","","","","","","","","","","",""
"","ISI","","html-keyboard-response","363","428881","0.0-1.0-489.0","0","0","29884","","null","","","null","54","NaN","","","","","","","","","","","","","","",""
"","S2","","html-keyboard-response","364","429137","0.0-1.0-490.0","0","0","29884","","null","","","null","54","","NaN","","","","","","","","","","","","","",""
"","response","","html-keyboard-response","365","429466","0.0-1.0-491.0-0.0","0","0","29884","","327","","","75","54","","","2","54","training","adjacent","CD","3","4","M.jpg","O.jpg","0","1","0","",""
"","feedback","","html-keyboard-response","366","430470","0.0-1.0-492.0-0.0","0","0","29884","","null","","","null","54","","","","","","","","","","","","","","","",""
"","time_out","","html-keyboard-response","367","432475","0.0-1.0-494.0-0.0","0","0","29884","","null","","","null","54","","","","","","","","","","","","","","","",""
"","ITI","","html-keyboard-response","368","433481","0.0-1.0-495.0","0","0","29884","","null","","","null","54","","","","","","","","","","","","","","","NaN",""
"","S1","","html-keyboard-response","369","433734","0.0-1.0-497.0","0","0","29884","","null","","","null","55","","","","","","","","","","","","","","","",""
"","ISI","","html-keyboard-response","370","435739","0.0-1.0-498.0","0","0","29884","","null","","","null","55","NaN","","","","","","","","","","","","","","",""
"","S2","","html-keyboard-response","371","435995","0.0-1.0-499.0","0","0","29884","","null","","","null","55","","NaN","","","","","","","","","","","","","",""
"","response","","html-keyboard-response","372","436297","0.0-1.0-500.0-0.0","0","0","29884","","300","","","68","55","","","2","55","training","adjacent","BC","2","3","P.jpg","M.jpg","1","1","1","",""
"","feedback","","html-keyboard-response","373","437302","0.0-1.0-501.0-0.0","0","0","29884","","null","","","null","55","","","","","","","","","","","","","","","",""
"","ITI","","html-keyboard-response","374","438305","0.0-1.0-504.0","0","0","29884","","null","","","null","55","","","","","","","","","","","","","","","NaN",""
"","S1","","html-keyboard-response","375","438561","0.0-1.0-506.0","0","0","29884","","null","","","null","56","","","","","","","","","","","","","","","",""
"","ISI","","html-keyboard-response","376","440566","0.0-1.0-507.0","0","0","29884","","null","","","null","56","NaN","","","","","","","","","","","","","","",""
"","S2","","html-keyboard-response","377","440822","0.0-1.0-508.0","0","0","29884","","null","","","null","56","","NaN","","","","","","","","","","","","","",""
"","response","","html-keyboard-response","378","441209","0.0-1.0-509.0-0.0","0","0","29884","","386","","","68","56","","","2","56","training","adjacent","ED","5","4","R.jpg","O.jpg","1","0","0","",""
"","feedback","","html-keyboard-response","379","442214","0.0-1.0-510.0-0.0","0","0","29884","","null","","","null","56","","","","","","","","","","","","","","","",""
"","time_out","","html-keyboard-response","380","444219","0.0-1.0-512.0-0.0","0","0","29884","","null","","","null","56","","","","","","","","","","","","","","","",""
"","ITI","","html-keyboard-response","381","445221","0.0-1.0-513.0","0","0","29884","","null","","","null","56","","","","","","","","","","","","","","","NaN",""
"","S1","","html-keyboard-response","382","445477","0.0-1.0-515.0","0","0","29884","","null","","","null","57","","","","","","","","","","","","","","","",""
"","ISI","","html-keyboard-response","383","447483","0.0-1.0-516.0","0","0","29884","","null","","","null","57","NaN","","","","","","","","","","","","","","",""
"","S2","","html-keyboard-response","384","447739","0.0-1.0-517.0","0","0","29884","","null","","","null","57","","NaN","","","","","","","","","","","","","",""
"","response","","html-keyboard-response","385","448236","0.0-1.0-518.0-0.0","0","0","29884","","496","","","75","57","","","2","57","training","adjacent","FG","6","7","N.jpg","Q.jpg","0","1","0","",""
"","feedback","","html-keyboard-response","386","449244","0.0-1.0-519.0-0.0","0","0","29884","","null","","","null","57","","","","","","","","","","","","","","","",""
"","time_out","","html-keyboard-response","387","451249","0.0-1.0-521.0-0.0","0","0","29884","","null","","","null","57","","","","","","","","","","","","","","","",""
"","ITI","","html-keyboard-response","388","452252","0.0-1.0-522.0","0","0","29884","","null","","","null","57","","","","","","","","","","","","","","","NaN",""
"","S1","","html-keyboard-response","389","452508","0.0-1.0-524.0","0","0","29884","","null","","","null","58","","","","","","","","","","","","","","","",""
"","ISI","","html-keyboard-response","390","454513","0.0-1.0-525.0","0","0","29884","","null","","","null","58","NaN","","","","","","","","","","","","","","",""
"","S2","","html-keyboard-response","391","454769","0.0-1.0-526.0","0","0","29884","","null","","","null","58","","NaN","","","","","","","","","","","","","",""
"","response","","html-keyboard-response","392","455214","0.0-1.0-527.0-0.0","0","0","29884","","444","","","68","58","","","2","58","training","adjacent","FG","6","7","N.jpg","Q.jpg","1","1","1","",""
"","feedback","","html-keyboard-response","393","456220","0.0-1.0-528.0-0.0","0","0","29884","","null","","","null","58","","","","","","","","","","","","","","","",""
"","ITI","","html-keyboard-response","394","457227","0.0-1.0-531.0","0","0","29884","","null","","","null","58","","","","","","","","","","","","","","","NaN",""
"","S1","","html-keyboard-response","395","457483","0.0-1.0-533.0","0","0","29884","","null","","","null","59","","","","","","","","","","","","","","","",""
"","ISI","","html-keyboard-response","396","459489","0.0-1.0-534.0","0","0","29884","","null","","","null","59","NaN","","","","","","","","","","","","","","",""
"","S2","","html-keyboard-response","397","459746","0.0-1.0-535.0","0","0","29884","","null","","","null","59","","NaN","","","","","","","","","","","","","",""
"","response","","html-keyboard-response","398","460255","0.0-1.0-536.0-0.0","0","0","29884","","507","","","75","59","","","2","59","training","adjacent","FE","6","5","N.jpg","R.jpg","0","0","1","",""
"","feedback","","html-keyboard-response","399","461259","0.0-1.0-537.0-0.0","0","0","29884","","null","","","null","59","","","","","","","","","","","","","","","",""
"","ITI","","html-keyboard-response","400","462262","0.0-1.0-540.0","0","0","29884","","null","","","null","59","","","","","","","","","","","","","","","NaN",""
"","S1","","html-keyboard-response","401","462517","0.0-1.0-542.0","0","0","29884","","null","","","null","60","","","","","","","","","","","","","","","",""
"","ISI","","html-keyboard-response","402","464522","0.0-1.0-543.0","0","0","29884","","null","","","null","60","NaN","","","","","","","","","","","","","","",""
"","S2","","html-keyboard-response","403","464778","0.0-1.0-544.0","0","0","29884","","null","","","null","60","","NaN","","","","","","","","","","","","","",""
"","response","","html-keyboard-response","404","465444","0.0-1.0-545.0-0.0","0","0","29884","","664","","","75","60","","","2","60","training","adjacent","FG","6","7","N.jpg","Q.jpg","0","1","0","",""
"","feedback","","html-keyboard-response","405","466449","0.0-1.0-546.0-0.0","0","0","29884","","null","","","null","60","","","","","","","","","","","","","","","",""
"","time_out","","html-keyboard-response","406","468454","0.0-1.0-548.0-0.0","0","0","29884","","null","","","null","60","","","","","","","","","","","","","","","",""
"","ITI","","html-keyboard-response","407","469457","0.0-1.0-549.0","0","0","29884","","null","","","null","60","","","","","","","","","","","","","","","NaN",""
"","S1","","html-keyboard-response","408","469713","0.0-1.0-551.0","0","0","29884","","null","","","null","61","","","","","","","","","","","","","","","",""
"","ISI","","html-keyboard-response","409","471718","0.0-1.0-552.0","0","0","29884","","null","","","null","61","NaN","","","","","","","","","","","","","","",""
"","S2","","html-keyboard-response","410","471974","0.0-1.0-553.0","0","0","29884","","null","","","null","61","","NaN","","","","","","","","","","","","","",""
"","response","","html-keyboard-response","411","472442","0.0-1.0-554.0-0.0","0","0","29884","","466","","","68","61","","","2","61","training","adjacent","GF","7","6","Q.jpg","N.jpg","1","0","0","",""
"","feedback","","html-keyboard-response","412","473448","0.0-1.0-555.0-0.0","0","0","29884","","null","","","null","61","","","","","","","","","","","","","","","",""
"","time_out","","html-keyboard-response","413","475453","0.0-1.0-557.0-0.0","0","0","29884","","null","","","null","61","","","","","","","","","","","","","","","",""
"","ITI","","html-keyboard-response","414","476459","0.0-1.0-558.0","0","0","29884","","null","","","null","61","","","","","","","","","","","","","","","NaN",""
"","S1","","html-keyboard-response","415","476716","0.0-1.0-560.0","0","0","29884","","null","","","null","62","","","","","","","","","","","","","","","",""
"","ISI","","html-keyboard-response","416","478721","0.0-1.0-561.0","0","0","29884","","null","","","null","62","NaN","","","","","","","","","","","","","","",""
"","S2","","html-keyboard-response","417","478977","0.0-1.0-562.0","0","0","29884","","null","","","null","62","","NaN","","","","","","","","","","","","","",""
"","response","","html-keyboard-response","418","479368","0.0-1.0-563.0-0.0","0","0","29884","","390","","","75","62","","","2","62","training","adjacent","BC","2","3","P.jpg","M.jpg","0","1","0","",""
"","feedback","","html-keyboard-response","419","480374","0.0-1.0-564.0-0.0","0","0","29884","","null","","","null","62","","","","","","","","","","","","","","","",""
"","time_out","","html-keyboard-response","420","482379","0.0-1.0-566.0-0.0","0","0","29884","","null","","","null","62","","","","","","","","","","","","","","","",""
"","ITI","","html-keyboard-response","421","483382","0.0-1.0-567.0","0","0","29884","","null","","","null","62","","","","","","","","","","","","","","","NaN",""
"","S1","","html-keyboard-response","422","483638","0.0-1.0-569.0","0","0","29884","","null","","","null","63","","","","","","","","","","","","","","","",""
"","ISI","","html-keyboard-response","423","485643","0.0-1.0-570.0","0","0","29884","","null","","","null","63","NaN","","","","","","","","","","","","","","",""
"","S2","","html-keyboard-response","424","485900","0.0-1.0-571.0","0","0","29884","","null","","","null","63","","NaN","","","","","","","","","","","","","",""
"","response","","html-keyboard-response","425","486230","0.0-1.0-572.0-0.0","0","0","29884","","329","","","68","63","","","2","63","training","adjacent","BA","2","1","P.jpg","L.jpg","1","0","0","",""
"","feedback","","html-keyboard-response","426","487233","0.0-1.0-573.0-0.0","0","0","29884","","null","","","null","63","","","","","","","","","","","","","","","",""
"","time_out","","html-keyboard-response","427","489239","0.0-1.0-575.0-0.0","0","0","29884","","null","","","null","63","","","","","","","","","","","","","","","",""
"","ITI","","html-keyboard-response","428","490245","0.0-1.0-576.0","0","0","29884","","null","","","null","63","","","","","","","","","","","","","","","NaN",""
"","S1","","html-keyboard-response","429","490502","0.0-1.0-578.0","0","0","29884","","null","","","null","64","","","","","","","","","","","","","","","",""
"","ISI","","html-keyboard-response","430","492508","0.0-1.0-579.0","0","0","29884","","null","","","null","64","NaN","","","","","","","","","","","","","","",""
"","S2","","html-keyboard-response","431","492733","0.0-1.0-580.0","0","0","29884","","224","","","68","64","","d","2","64","training","adjacent","BC","2","3","P.jpg","M.jpg","1","1","1","",""
"","feedback","","html-keyboard-response","432","493739","0.0-1.0-582.0-0.0","0","0","29884","","null","","","null","64","","","","","","","","","","","","","","","",""
"","ITI","","html-keyboard-response","433","494742","0.0-1.0-585.0","0","0","29884","","null","","","null","64","","","","","","","","","","","","","","","NaN",""
"","S1","","html-keyboard-response","434","494999","0.0-1.0-587.0","0","0","29884","","null","","","null","65","","","","","","","","","","","","","","","",""
"","ISI","","html-keyboard-response","435","497002","0.0-1.0-588.0","0","0","29884","","null","","","null","65","NaN","","","","","","","","","","","","","","",""
"","S2","","html-keyboard-response","436","497033","0.0-1.0-589.0","0","0","29884","","29","","","75","65","","k","2","65","training","adjacent","FE","6","5","N.jpg","R.jpg","0","0","1","",""
"","feedback","","html-keyboard-response","437","498038","0.0-1.0-591.0-0.0","0","0","29884","","null","","","null","65","","","","","","","","","","","","","","","",""
"","ITI","","html-keyboard-response","438","499041","0.0-1.0-594.0","0","0","29884","","null","","","null","65","","","","","","","","","","","","","","","NaN",""
"","S1","","html-keyboard-response","439","499297","0.0-1.0-596.0","0","0","29884","","null","","","null","66","","","","","","","","","","","","","","","",""
"","ISI","","html-keyboard-response","440","501302","0.0-1.0-597.0","0","0","29884","","null","","","null","66","NaN","","","","","","","","","","","","","","",""
"","S2","","html-keyboard-response","441","501536","0.0-1.0-598.0","0","0","29884","","232","","","75","66","","k","2","66","training","adjacent","BC","2","3","P.jpg","M.jpg","0","1","0","",""
"","feedback","","html-keyboard-response","442","502542","0.0-1.0-600.0-0.0","0","0","29884","","null","","","null","66","","","","","","","","","","","","","","","",""
"","time_out","","html-keyboard-response","443","504545","0.0-1.0-602.0-0.0","0","0","29884","","null","","","null","66","","","","","","","","","","","","","","","",""
"","ITI","","html-keyboard-response","444","505547","0.0-1.0-603.0","0","0","29884","","428","","","68","66","","","","","","","","","","","","","","","d",""
"","S1","","html-keyboard-response","445","505803","0.0-1.0-605.0","0","0","29884","","null","","","null","67","","","","","","","","","","","","","","","",""
"","ISI","","html-keyboard-response","446","507809","0.0-1.0-606.0","0","0","29884","","223","","","68","67","d","","","","","","","","","","","","","","",""
"","S2","","html-keyboard-response","447","508022","0.0-1.0-607.0","0","0","29884","","212","","","68","67","","d","2","67","training","adjacent","CD","3","4","M.jpg","O.jpg","1","1","1","",""
"","feedback","","html-keyboard-response","448","509025","0.0-1.0-609.0-0.0","0","0","29884","","null","","","null","67","","","","","","","","","","","","","","","",""
"","ITI","","html-keyboard-response","449","510031","0.0-1.0-612.0","0","0","29884","","null","","","null","67","","","","","","","","","","","","","","","NaN",""
"","S1","","html-keyboard-response","450","510285","0.0-1.0-614.0","0","0","29884","","null","","","null","68","","","","","","","","","","","","","","","",""
"","ISI","","html-keyboard-response","451","512289","0.0-1.0-615.0","0","0","29884","","355","","","68","68","d","","","","","","","","","","","","","","",""
"","S2","","html-keyboard-response","452","512545","0.0-1.0-616.0","0","0","29884","","null","","","null","68","","NaN","","","","","","","","","","","","","",""
"","response","","html-keyboard-response","453","512614","0.0-1.0-617.0-0.0","0","0","29884","","68","","","68","68","","","2","68","training","adjacent","AB","1","2","L.jpg","P.jpg","1","1","1","",""
"","feedback","","html-keyboard-response","454","513617","0.0-1.0-618.0-0.0","0","0","29884","","null","","","null","68","","","","","","","","","","","","","","","",""
"","ITI","","html-keyboard-response","455","514622","0.0-1.0-621.0","0","0","29884","","null","","","null","68","","","","","","","","","","","","","","","NaN",""
"","S1","","html-keyboard-response","456","514875","0.0-1.0-623.0","0","0","29884","","null","","","null","69","","","","","","","","","","","","","","","",""
"","ISI","","html-keyboard-response","457","516881","0.0-1.0-624.0","0","0","29884","","null","","","null","69","NaN","","","","","","","","","","","","","","",""
"","S2","","html-keyboard-response","458","517136","0.0-1.0-625.0","0","0","29884","","null","","","null","69","","NaN","","","","","","","","","","","","","",""
"","response","","html-keyboard-response","459","517580","0.0-1.0-626.0-0.0","0","0","29884","","442","","","75","69","","","2","69","training","adjacent","EF","5","6","R.jpg","N.jpg","0","1","0","",""
"","feedback","","html-keyboard-response","460","518587","0.0-1.0-627.0-0.0","0","0","29884","","null","","","null","69","","","","","","","","","","","","","","","",""
"","time_out","","html-keyboard-response","461","520594","0.0-1.0-629.0-0.0","0","0","29884","","null","","","null","69","","","","","","","","","","","","","","","",""
"","ITI","","html-keyboard-response","462","521601","0.0-1.0-630.0","0","0","29884","","null","","","null","69","","","","","","","","","","","","","","","NaN",""
"","S1","","html-keyboard-response","463","521857","0.0-1.0-632.0","0","0","29884","","null","","","null","70","","","","","","","","","","","","","","","",""
"","ISI","","html-keyboard-response","464","523863","0.0-1.0-633.0","0","0","29884","","null","","","null","70","NaN","","","","","","","","","","","","","","",""
"","S2","","html-keyboard-response","465","524118","0.0-1.0-634.0","0","0","29884","","null","","","null","70","","NaN","","","","","","","","","","","","","",""
"","response","","html-keyboard-response","466","524809","0.0-1.0-635.0-0.0","0","0","29884","","689","","","68","70","","","2","70","training","adjacent","DE","4","5","O.jpg","R.jpg","1","1","1","",""
"","feedback","","html-keyboard-response","467","525817","0.0-1.0-636.0-0.0","0","0","29884","","null","","","null","70","","","","","","","","","","","","","","","",""
"","ITI","","html-keyboard-response","468","526822","0.0-1.0-639.0","0","0","29884","","null","","","null","70","","","","","","","","","","","","","","","NaN",""
"","S1","","html-keyboard-response","469","527078","0.0-1.0-641.0","0","0","29884","","null","","","null","71","","","","","","","","","","","","","","","",""
"","ISI","","html-keyboard-response","470","529083","0.0-1.0-642.0","0","0","29884","","null","","","null","71","NaN","","","","","","","","","","","","","","",""
"","S2","","html-keyboard-response","471","529339","0.0-1.0-643.0","0","0","29884","","null","","","null","71","","NaN","","","","","","","","","","","","","",""
"","response","","html-keyboard-response","472","529877","0.0-1.0-644.0-0.0","0","0","29884","","535","","","75","71","","","2","71","training","adjacent","BA","2","1","P.jpg","L.jpg","0","0","1","",""
"","feedback","","html-keyboard-response","473","530881","0.0-1.0-645.0-0.0","0","0","29884","","null","","","null","71","","","","","","","","","","","","","","","",""
"","ITI","","html-keyboard-response","474","531883","0.0-1.0-648.0","0","0","29884","","null","","","null","71","","","","","","","","","","","","","","","NaN",""
"","S1","","html-keyboard-response","475","532139","0.0-1.0-650.0","0","0","29884","","null","","","null","72","","","","","","","","","","","","","","","",""
"","ISI","","html-keyboard-response","476","534145","0.0-1.0-651.0","0","0","29884","","null","","","null","72","NaN","","","","","","","","","","","","","","",""
"","S2","","html-keyboard-response","477","534400","0.0-1.0-652.0","0","0","29884","","null","","","null","72","","NaN","","","","","","","","","","","","","",""
"","response","","html-keyboard-response","478","535027","0.0-1.0-653.0-0.0","0","0","29884","","625","","","75","72","","","2","72","training","adjacent","FE","6","5","N.jpg","R.jpg","0","0","1","",""
"","feedback","","html-keyboard-response","479","536033","0.0-1.0-654.0-0.0","0","0","29884","","null","","","null","72","","","","","","","","","","","","","","","",""
"","ITI","","html-keyboard-response","480","537035","0.0-1.0-657.0","0","0","29884","","null","","","null","72","","","","","","","","","","","","","","","NaN",""
"","S1","","html-keyboard-response","481","537291","0.0-1.0-659.0","0","0","29884","","null","","","null","73","","","","","","","","","","","","","","","",""
"","ISI","","html-keyboard-response","482","539297","0.0-1.0-660.0","0","0","29884","","null","","","null","73","NaN","","","","","","","","","","","","","","",""
"","S2","","html-keyboard-response","483","539553","0.0-1.0-661.0","0","0","29884","","null","","","null","73","","NaN","","","","","","","","","","","","","",""
"","response","","html-keyboard-response","484","539936","0.0-1.0-662.0-0.0","0","0","29884","","382","","","68","73","","","2","73","training","adjacent","EF","5","6","R.jpg","N.jpg","1","1","1","",""
"","feedback","","html-keyboard-response","485","540939","0.0-1.0-663.0-0.0","0","0","29884","","null","","","null","73","","","","","","","","","","","","","","","",""
"","ITI","","html-keyboard-response","486","541942","0.0-1.0-666.0","0","0","29884","","null","","","null","73","","","","","","","","","","","","","","","NaN",""
"","S1","","html-keyboard-response","487","542198","0.0-1.0-668.0","0","0","29884","","null","","","null","74","","","","","","","","","","","","","","","",""
"","ISI","","html-keyboard-response","488","544203","0.0-1.0-669.0","0","0","29884","","null","","","null","74","NaN","","","","","","","","","","","","","","",""
"","S2","","html-keyboard-response","489","544460","0.0-1.0-670.0","0","0","29884","","null","","","null","74","","NaN","","","","","","","","","","","","","",""
"","response","","html-keyboard-response","490","545286","0.0-1.0-671.0-0.0","0","0","29884","","824","","","75","74","","","2","74","training","adjacent","CD","3","4","M.jpg","O.jpg","0","1","0","",""
"","feedback","","html-keyboard-response","491","546290","0.0-1.0-672.0-0.0","0","0","29884","","null","","","null","74","","","","","","","","","","","","","","","",""
"","time_out","","html-keyboard-response","492","548293","0.0-1.0-674.0-0.0","0","0","29884","","null","","","null","74","","","","","","","","","","","","","","","",""
"","ITI","","html-keyboard-response","493","549300","0.0-1.0-675.0","0","0","29884","","null","","","null","74","","","","","","","","","","","","","","","NaN",""
"","S1","","html-keyboard-response","494","549556","0.0-1.0-677.0","0","0","29884","","null","","","null","75","","","","","","","","","","","","","","","",""
"","ISI","","html-keyboard-response","495","551559","0.0-1.0-678.0","0","0","29884","","null","","","null","75","NaN","","","","","","","","","","","","","","",""
"","S2","","html-keyboard-response","496","551814","0.0-1.0-679.0","0","0","29884","","null","","","null","75","","NaN","","","","","","","","","","","","","",""
"","response","","html-keyboard-response","497","552219","0.0-1.0-680.0-0.0","0","0","29884","","404","","","75","75","","","2","75","training","adjacent","DE","4","5","O.jpg","R.jpg","0","1","0","",""
"","feedback","","html-keyboard-response","498","553222","0.0-1.0-681.0-0.0","0","0","29884","","null","","","null","75","","","","","","","","","","","","","","","",""
"","time_out","","html-keyboard-response","499","555227","0.0-1.0-683.0-0.0","0","0","29884","","null","","","null","75","","","","","","","","","","","","","","","",""
"","ITI","","html-keyboard-response","500","556230","0.0-1.0-684.0","0","0","29884","","null","","","null","75","","","","","","","","","","","","","","","NaN",""
"","S1","","html-keyboard-response","501","556486","0.0-1.0-686.0","0","0","29884","","null","","","null","76","","","","","","","","","","","","","","","",""
"","ISI","","html-keyboard-response","502","558491","0.0-1.0-687.0","0","0","29884","","null","","","null","76","NaN","","","","","","","","","","","","","","",""
"","S2","","html-keyboard-response","503","558747","0.0-1.0-688.0","0","0","29884","","null","","","null","76","","NaN","","","","","","","","","","","","","",""
"","response","","html-keyboard-response","504","559516","0.0-1.0-689.0-0.0","0","0","29884","","768","","","68","76","","","2","76","training","adjacent","FG","6","7","N.jpg","Q.jpg","1","1","1","",""
"","feedback","","html-keyboard-response","505","560522","0.0-1.0-690.0-0.0","0","0","29884","","null","","","null","76","","","","","","","","","","","","","","","",""
"","ITI","","html-keyboard-response","506","561526","0.0-1.0-693.0","0","0","29884","","null","","","null","76","","","","","","","","","","","","","","","NaN",""
"","S1","","html-keyboard-response","507","561782","0.0-1.0-695.0","0","0","29884","","null","","","null","77","","","","","","","","","","","","","","","",""
"","ISI","","html-keyboard-response","508","563789","0.0-1.0-696.0","0","0","29884","","null","","","null","77","NaN","","","","","","","","","","","","","","",""
"","S2","","html-keyboard-response","509","564045","0.0-1.0-697.0","0","0","29884","","null","","","null","77","","NaN","","","","","","","","","","","","","",""
"","response","","html-keyboard-response","510","565431","0.0-1.0-698.0-0.0","0","0","29884","","1385","","","68","77","","","2","77","training","adjacent","GF","7","6","Q.jpg","N.jpg","1","0","0","",""
"","feedback","","html-keyboard-response","511","566438","0.0-1.0-699.0-0.0","0","0","29884","","null","","","null","77","","","","","","","","","","","","","","","",""
"","time_out","","html-keyboard-response","512","568443","0.0-1.0-701.0-0.0","0","0","29884","","null","","","null","77","","","","","","","","","","","","","","","",""
"","ITI","","html-keyboard-response","513","569448","0.0-1.0-702.0","0","0","29884","","null","","","null","77","","","","","","","","","","","","","","","NaN",""
"","S1","","html-keyboard-response","514","569702","0.0-1.0-704.0","0","0","29884","","null","","","null","78","","","","","","","","","","","","","","","",""
"","ISI","","html-keyboard-response","515","571707","0.0-1.0-705.0","0","0","29884","","null","","","null","78","NaN","","","","","","","","","","","","","","",""
"","S2","","html-keyboard-response","516","571963","0.0-1.0-706.0","0","0","29884","","null","","","null","78","","NaN","","","","","","","","","","","","","",""
"","response","","html-keyboard-response","517","572460","0.0-1.0-707.0-0.0","0","0","29884","","495","","","68","78","","","2","78","training","adjacent","DE","4","5","O.jpg","R.jpg","1","1","1","",""
"","feedback","","html-keyboard-response","518","573467","0.0-1.0-708.0-0.0","0","0","29884","","null","","","null","78","","","","","","","","","","","","","","","",""
"","ITI","","html-keyboard-response","519","574474","0.0-1.0-711.0","0","0","29884","","null","","","null","78","","","","","","","","","","","","","","","NaN",""
"","S1","","html-keyboard-response","520","574726","0.0-1.0-713.0","0","0","29884","","null","","","null","79","","","","","","","","","","","","","","","",""
"","ISI","","html-keyboard-response","521","576729","0.0-1.0-714.0","0","0","29884","","null","","","null","79","NaN","","","","","","","","","","","","","","",""
"","S2","","html-keyboard-response","522","576982","0.0-1.0-715.0","0","0","29884","","null","","","null","79","","NaN","","","","","","","","","","","","","",""
"","response","","html-keyboard-response","523","577609","0.0-1.0-716.0-0.0","0","0","29884","","625","","","75","79","","","2","79","training","adjacent","CB","3","2","M.jpg","P.jpg","0","0","1","",""
"","feedback","","html-keyboard-response","524","578614","0.0-1.0-717.0-0.0","0","0","29884","","null","","","null","79","","","","","","","","","","","","","","","",""
"","ITI","","html-keyboard-response","525","579618","0.0-1.0-720.0","0","0","29884","","null","","","null","79","","","","","","","","","","","","","","","NaN",""
"","S1","","html-keyboard-response","526","579874","0.0-1.0-722.0","0","0","29884","","null","","","null","80","","","","","","","","","","","","","","","",""
"","ISI","","html-keyboard-response","527","581878","0.0-1.0-723.0","0","0","29884","","null","","","null","80","NaN","","","","","","","","","","","","","","",""
"","S2","","html-keyboard-response","528","582134","0.0-1.0-724.0","0","0","29884","","null","","","null","80","","NaN","","","","","","","","","","","","","",""
"","response","","html-keyboard-response","529","583284","0.0-1.0-725.0-0.0","0","0","29884","","1148","","","68","80","","","2","80","training","adjacent","CD","3","4","M.jpg","O.jpg","1","1","1","",""
"","feedback","","html-keyboard-response","530","584289","0.0-1.0-726.0-0.0","0","0","29884","","null","","","null","80","","","","","","","","","","","","","","","",""
"","ITI","","html-keyboard-response","531","585291","0.0-1.0-729.0","0","0","29884","","null","","","null","80","","","","","","","","","","","","","","","NaN",""
"","S1","","html-keyboard-response","532","585547","0.0-1.0-731.0","0","0","29884","","null","","","null","81","","","","","","","","","","","","","","","",""
"","ISI","","html-keyboard-response","533","587552","0.0-1.0-732.0","0","0","29884","","null","","","null","81","NaN","","","","","","","","","","","","","","",""
"","S2","","html-keyboard-response","534","587809","0.0-1.0-733.0","0","0","29884","","null","","","null","81","","NaN","","","","","","","","","","","","","",""
"","response","","html-keyboard-response","535","588300","0.0-1.0-734.0-0.0","0","0","29884","","490","","","75","81","","","2","81","training","adjacent","BA","2","1","P.jpg","L.jpg","0","0","1","",""
"","feedback","","html-keyboard-response","536","589302","0.0-1.0-735.0-0.0","0","0","29884","","null","","","null","81","","","","","","","","","","","","","","","",""
"","ITI","","html-keyboard-response","537","590310","0.0-1.0-738.0","0","0","29884","","null","","","null","81","","","","","","","","","","","","","","","NaN",""
"","S1","","html-keyboard-response","538","590563","0.0-1.0-740.0","0","0","29884","","null","","","null","82","","","","","","","","","","","","","","","",""
"","ISI","","html-keyboard-response","539","592566","0.0-1.0-741.0","0","0","29884","","null","","","null","82","NaN","","","","","","","","","","","","","","",""
"","S2","","html-keyboard-response","540","592822","0.0-1.0-742.0","0","0","29884","","null","","","null","82","","NaN","","","","","","","","","","","","","",""
"","response","","html-keyboard-response","541","593918","0.0-1.0-743.0-0.0","0","0","29884","","1095","","","68","82","","","2","82","training","adjacent","FE","6","5","N.jpg","R.jpg","1","0","0","",""
"","feedback","","html-keyboard-response","542","594923","0.0-1.0-744.0-0.0","0","0","29884","","null","","","null","82","","","","","","","","","","","","","","","",""
"","time_out","","html-keyboard-response","543","596928","0.0-1.0-746.0-0.0","0","0","29884","","null","","","null","82","","","","","","","","","","","","","","","",""
"","ITI","","html-keyboard-response","544","597931","0.0-1.0-747.0","0","0","29884","","null","","","null","82","","","","","","","","","","","","","","","NaN",""
"","S1","","html-keyboard-response","545","598187","0.0-1.0-749.0","0","0","29884","","null","","","null","83","","","","","","","","","","","","","","","",""
"","ISI","","html-keyboard-response","546","600193","0.0-1.0-750.0","0","0","29884","","null","","","null","83","NaN","","","","","","","","","","","","","","",""
"","S2","","html-keyboard-response","547","600448","0.0-1.0-751.0","0","0","29884","","null","","","null","83","","NaN","","","","","","","","","","","","","",""
"","response","","html-keyboard-response","548","601211","0.0-1.0-752.0-0.0","0","0","29884","","761","","","75","83","","","2","83","training","adjacent","ED","5","4","R.jpg","O.jpg","0","0","1","",""
"","feedback","","html-keyboard-response","549","602214","0.0-1.0-753.0-0.0","0","0","29884","","null","","","null","83","","","","","","","","","","","","","","","",""
"","ITI","","html-keyboard-response","550","603219","0.0-1.0-756.0","0","0","29884","","null","","","null","83","","","","","","","","","","","","","","","NaN",""
"","S1","","html-keyboard-response","551","603473","0.0-1.0-758.0","0","0","29884","","null","","","null","84","","","","","","","","","","","","","","","",""
"","ISI","","html-keyboard-response","552","605478","0.0-1.0-759.0","0","0","29884","","null","","","null","84","NaN","","","","","","","","","","","","","","",""
"","S2","","html-keyboard-response","553","605734","0.0-1.0-760.0","0","0","29884","","null","","","null","84","","NaN","","","","","","","","","","","","","",""
"","response","","html-keyboard-response","554","606895","0.0-1.0-761.0-0.0","0","0","29884","","1159","","","75","84","","","2","84","training","adjacent","GF","7","6","Q.jpg","N.jpg","0","0","1","",""
"","feedback","","html-keyboard-response","555","607900","0.0-1.0-762.0-0.0","0","0","29884","","null","","","null","84","","","","","","","","","","","","","","","",""
"","ITI","","html-keyboard-response","556","608904","0.0-1.0-765.0","0","0","29884","","null","","","null","84","","","","","","","","","","","","","","","NaN",""
"","S1","","html-keyboard-response","557","609158","0.0-1.0-767.0","0","0","29884","","null","","","null","85","","","","","","","","","","","","","","","",""
"","ISI","","html-keyboard-response","558","611163","0.0-1.0-768.0","0","0","29884","","null","","","null","85","NaN","","","","","","","","","","","","","","",""
"","S2","","html-keyboard-response","559","611419","0.0-1.0-769.0","0","0","29884","","null","","","null","85","","NaN","","","","","","","","","","","","","",""
"","response","","html-keyboard-response","560","612083","0.0-1.0-770.0-0.0","0","0","29884","","662","","","75","85","","","2","85","training","adjacent","DC","4","3","O.jpg","M.jpg","0","0","1","",""
"","feedback","","html-keyboard-response","561","613088","0.0-1.0-771.0-0.0","0","0","29884","","null","","","null","85","","","","","","","","","","","","","","","",""
"","ITI","","html-keyboard-response","562","614094","0.0-1.0-774.0","0","0","29884","","null","","","null","85","","","","","","","","","","","","","","","NaN",""
"","S1","","html-keyboard-response","563","614347","0.0-1.0-776.0","0","0","29884","","null","","","null","86","","","","","","","","","","","","","","","",""
"","ISI","","html-keyboard-response","564","616352","0.0-1.0-777.0","0","0","29884","","null","","","null","86","NaN","","","","","","","","","","","","","","",""
"","S2","","html-keyboard-response","565","616609","0.0-1.0-778.0","0","0","29884","","null","","","null","86","","NaN","","","","","","","","","","","","","",""
"","response","","html-keyboard-response","566","617284","0.0-1.0-779.0-0.0","0","0","29884","","674","","","75","86","","","2","86","training","adjacent","BA","2","1","P.jpg","L.jpg","0","0","1","",""
"","feedback","","html-keyboard-response","567","618289","0.0-1.0-780.0-0.0","0","0","29884","","null","","","null","86","","","","","","","","","","","","","","","",""
"","ITI","","html-keyboard-response","568","619291","0.0-1.0-783.0","0","0","29884","","null","","","null","86","","","","","","","","","","","","","","","NaN",""
"","S1","","html-keyboard-response","569","619547","0.0-1.0-785.0","0","0","29884","","null","","","null","87","","","","","","","","","","","","","","","",""
"","ISI","","html-keyboard-response","570","621553","0.0-1.0-786.0","0","0","29884","","null","","","null","87","NaN","","","","","","","","","","","","","","",""
"","S2","","html-keyboard-response","571","621809","0.0-1.0-787.0","0","0","29884","","null","","","null","87","","NaN","","","","","","","","","","","","","",""
"","response","","html-keyboard-response","572","622253","0.0-1.0-788.0-0.0","0","0","29884","","443","","","68","87","","","2","87","training","adjacent","ED","5","4","R.jpg","O.jpg","1","0","0","",""
"","feedback","","html-keyboard-response","573","623259","0.0-1.0-789.0-0.0","0","0","29884","","null","","","null","87","","","","","","","","","","","","","","","",""
"","time_out","","html-keyboard-response","574","625266","0.0-1.0-791.0-0.0","0","0","29884","","null","","","null","87","","","","","","","","","","","","","","","",""
"","ITI","","html-keyboard-response","575","626271","0.0-1.0-792.0","0","0","29884","","null","","","null","87","","","","","","","","","","","","","","","NaN",""
"","S1","","html-keyboard-response","576","626524","0.0-1.0-794.0","0","0","29884","","null","","","null","88","","","","","","","","","","","","","","","",""
"","ISI","","html-keyboard-response","577","628532","0.0-1.0-795.0","0","0","29884","","null","","","null","88","NaN","","","","","","","","","","","","","","",""
"","S2","","html-keyboard-response","578","628788","0.0-1.0-796.0","0","0","29884","","null","","","null","88","","NaN","","","","","","","","","","","","","",""
"","response","","html-keyboard-response","579","629347","0.0-1.0-797.0-0.0","0","0","29884","","557","","","75","88","","","2","88","training","adjacent","DC","4","3","O.jpg","M.jpg","0","0","1","",""
"","feedback","","html-keyboard-response","580","630353","0.0-1.0-798.0-0.0","0","0","29884","","null","","","null","88","","","","","","","","","","","","","","","",""
"","ITI","","html-keyboard-response","581","631358","0.0-1.0-801.0","0","0","29884","","null","","","null","88","","","","","","","","","","","","","","","NaN",""
