"success","ttype","start_time","trial_type","trial_index","time_elapsed","internal_node_id","warning","missed_checkup","PID","view_history","rt","responses","repeat_instructions","key_press","index","keypress_isi","keypress_S2","block","trial_num","phase","group_type","pair_type","S1_stim","S2_stim","S1_img","S2_img","S1_chosen","S1_higher","accuracy","keypress_iti","total_bonus_tally"
"true","full_screen","d08052022hr1630","fullscreen","0","4525","0.0-0.0","0","0","67857","","","","","","","","","","","","","","","","","","","","","",""
"","instructions","","instructions","1","11617","0.0-1.0-0.0-0.0","0","0","67857","[{""page_index"":0,""viewing_time"":2629},{""page_index"":1,""viewing_time"":1656},{""page_index"":2,""viewing_time"":1583},{""page_index"":3,""viewing_time"":1199}]","7070","","","","","","","","","","","","","","","","","","","",""
"","comprehension_check","","survey-multi-choice","2","20822","0.0-1.0-0.0-1.0","0","0","67857","","9182","{""Q0"":""True"",""Q1"":""K"",""Q2"":""Once the second image appears and while the screen 'MAKE A CHOICE' is shown"",""Q3"":""Green mark"",""Q4"":""either D or K""}","0","","","","","","","","","","","","","","","","","",""
"","start_exp","","html-keyboard-response","3","22711","0.0-1.0-1.0","0","0","67857","","1843","","","32","","","","","","","","","","","","","","","","",""
"","S1","","html-keyboard-response","4","22990","0.0-1.0-2.0","0","0","67857","","null","","","null","0","","","","","","","","","","","","","","","",""
"","ISI","","html-keyboard-response","5","25005","0.0-1.0-3.0","0","0","67857","","null","","","null","0","NaN","","","","","","","","","","","","","","",""
"","S2","","html-keyboard-response","6","25265","0.0-1.0-4.0","0","0","67857","","null","","","null","0","","NaN","","","","","","","","","","","","","",""
"","response","","html-keyboard-response","7","25658","0.0-1.0-5.0-0.0","0","0","67857","","383","","","75","0","","","1","0","training","adjacent","BC","2","3","R.jpg","M.jpg","1","1","1","",""
"","feedback","","html-keyboard-response","8","26669","0.0-1.0-6.0-0.0","0","0","67857","","null","","","null","0","","","","","","","","","","","","","","","",""
"","ITI","","html-keyboard-response","9","27678","0.0-1.0-9.0","0","0","67857","","null","","","null","0","","","","","","","","","","","","","","","NaN",""
"","S1","","html-keyboard-response","10","27942","0.0-1.0-11.0","0","0","67857","","null","","","null","1","","","","","","","","","","","","","","","",""
"","ISI","","html-keyboard-response","11","29951","0.0-1.0-12.0","0","0","67857","","null","","","null","1","NaN","","","","","","","","","","","","","","",""
"","S2","","html-keyboard-response","12","30215","0.0-1.0-13.0","0","0","67857","","null","","","null","1","","NaN","","","","","","","","","","","","","",""
"","response","","html-keyboard-response","13","30511","0.0-1.0-14.0-0.0","0","0","67857","","286","","","68","1","","","1","1","training","adjacent","DE","4","5","Q.jpg","N.jpg","0","1","0","",""
"","feedback","","html-keyboard-response","14","31520","0.0-1.0-15.0-0.0","0","0","67857","","null","","","null","1","","","","","","","","","","","","","","","",""
"","time_out","","html-keyboard-response","15","33530","0.0-1.0-17.0-0.0","0","0","67857","","null","","","null","1","","","","","","","","","","","","","","","",""
"","ITI","","html-keyboard-response","16","34538","0.0-1.0-18.0","0","0","67857","","null","","","null","1","","","","","","","","","","","","","","","NaN",""
"","S1","","html-keyboard-response","17","34796","0.0-1.0-20.0","0","0","67857","","null","","","null","2","","","","","","","","","","","","","","","",""
"","ISI","","html-keyboard-response","18","36809","0.0-1.0-21.0","0","0","67857","","null","","","null","2","NaN","","","","","","","","","","","","","","",""
"","S2","","html-keyboard-response","19","37070","0.0-1.0-22.0","0","0","67857","","null","","","null","2","","NaN","","","","","","","","","","","","","",""
"","response","","html-keyboard-response","20","37389","0.0-1.0-23.0-0.0","0","0","67857","","306","","","75","2","","","1","2","training","adjacent","FG","6","7","L.jpg","P.jpg","1","1","1","",""
"","feedback","","html-keyboard-response","21","38398","0.0-1.0-24.0-0.0","0","0","67857","","null","","","null","2","","","","","","","","","","","","","","","",""
"","ITI","","html-keyboard-response","22","39406","0.0-1.0-27.0","0","0","67857","","null","","","null","2","","","","","","","","","","","","","","","NaN",""
"","S1","","html-keyboard-response","23","39673","0.0-1.0-29.0","0","0","67857","","null","","","null","3","","","","","","","","","","","","","","","",""
"","ISI","","html-keyboard-response","24","41683","0.0-1.0-30.0","0","0","67857","","null","","","null","3","NaN","","","","","","","","","","","","","","",""
"","S2","","html-keyboard-response","25","41935","0.0-1.0-31.0","0","0","67857","","242","","","68","3","","d","1","3","training","adjacent","CD","3","4","M.jpg","Q.jpg","0","1","0","",""
"","feedback","","html-keyboard-response","26","42945","0.0-1.0-33.0-0.0","0","0","67857","","null","","","null","3","","","","","","","","","","","","","","","",""
"","time_out","","html-keyboard-response","27","44952","0.0-1.0-35.0-0.0","0","0","67857","","null","","","null","3","","","","","","","","","","","","","","","",""
"","ITI","","html-keyboard-response","28","45968","0.0-1.0-36.0","0","0","67857","","null","","","null","3","","","","","","","","","","","","","","","NaN",""
"","S1","","html-keyboard-response","29","46231","0.0-1.0-38.0","0","0","67857","","null","","","null","4","","","","","","","","","","","","","","","",""
"","ISI","","html-keyboard-response","30","48237","0.0-1.0-39.0","0","0","67857","","null","","","null","4","NaN","","","","","","","","","","","","","","",""
"","S2","","html-keyboard-response","31","48465","0.0-1.0-40.0","0","0","67857","","215","","","75","4","","k","1","4","training","adjacent","ED","5","4","N.jpg","Q.jpg","1","0","0","",""
"","feedback","","html-keyboard-response","32","49473","0.0-1.0-42.0-0.0","0","0","67857","","null","","","null","4","","","","","","","","","","","","","","","",""
"","time_out","","html-keyboard-response","33","51486","0.0-1.0-44.0-0.0","0","0","67857","","null","","","null","4","","","","","","","","","","","","","","","",""
"","ITI","","html-keyboard-response","34","52494","0.0-1.0-45.0","0","0","67857","","null","","","null","4","","","","","","","","","","","","","","","NaN",""
"","S1","","html-keyboard-response","35","52757","0.0-1.0-47.0","0","0","67857","","null","","","null","5","","","","","","","","","","","","","","","",""
"","ISI","","html-keyboard-response","36","54769","0.0-1.0-48.0","0","0","67857","","214","","","68","5","d","","","","","","","","","","","","","","",""
"","S2","","html-keyboard-response","37","55035","0.0-1.0-49.0","0","0","67857","","null","","","null","5","","NaN","","","","","","","","","","","","","",""
"","response","","html-keyboard-response","38","55573","0.0-1.0-50.0-0.0","0","0","67857","","530","","","68","5","","","1","5","training","adjacent","BA","2","1","R.jpg","O.jpg","0","0","1","",""
"","feedback","","html-keyboard-response","39","56581","0.0-1.0-51.0-0.0","0","0","67857","","null","","","null","5","","","","","","","","","","","","","","","",""
"","ITI","","html-keyboard-response","40","57593","0.0-1.0-54.0","0","0","67857","","null","","","null","5","","","","","","","","","","","","","","","NaN",""
"","S1","","html-keyboard-response","41","57855","0.0-1.0-56.0","0","0","67857","","null","","","null","6","","","","","","","","","","","","","","","",""
"","ISI","","html-keyboard-response","42","59862","0.0-1.0-57.0","0","0","67857","","null","","","null","6","NaN","","","","","","","","","","","","","","",""
"","S2","","html-keyboard-response","43","60126","0.0-1.0-58.0","0","0","67857","","null","","","null","6","","NaN","","","","","","","","","","","","","",""
"","response","","html-keyboard-response","44","60150","0.0-1.0-59.0-0.0","0","0","67857","","3","","","75","6","","","1","6","training","adjacent","GF","7","6","P.jpg","L.jpg","1","0","0","",""
"","feedback","","html-keyboard-response","45","61168","0.0-1.0-60.0-0.0","0","0","67857","","null","","","null","6","","","","","","","","","","","","","","","",""
"","time_out","","html-keyboard-response","46","63175","0.0-1.0-62.0-0.0","0","0","67857","","null","","","null","6","","","","","","","","","","","","","","","",""
"","ITI","","html-keyboard-response","47","64191","0.0-1.0-63.0","0","0","67857","","null","","","null","6","","","","","","","","","","","","","","","NaN",""
"","S1","","html-keyboard-response","48","64449","0.0-1.0-65.0","0","0","67857","","null","","","null","7","","","","","","","","","","","","","","","",""
"","ISI","","html-keyboard-response","49","66457","0.0-1.0-66.0","0","0","67857","","null","","","null","7","NaN","","","","","","","","","","","","","","",""
"","S2","","html-keyboard-response","50","66715","0.0-1.0-67.0","0","0","67857","","null","","","null","7","","NaN","","","","","","","","","","","","","",""
"","response","","html-keyboard-response","51","66770","0.0-1.0-68.0-0.0","0","0","67857","","45","","","68","7","","","1","7","training","adjacent","AB","1","2","O.jpg","R.jpg","0","1","0","",""
"","feedback","","html-keyboard-response","52","67778","0.0-1.0-69.0-0.0","0","0","67857","","null","","","null","7","","","","","","","","","","","","","","","",""
"","time_out","","html-keyboard-response","53","69786","0.0-1.0-71.0-0.0","0","0","67857","","null","","","null","7","","","","","","","","","","","","","","","",""
"","ITI","","html-keyboard-response","54","70794","0.0-1.0-72.0","0","0","67857","","null","","","null","7","","","","","","","","","","","","","","","NaN",""
"","S1","","html-keyboard-response","55","71055","0.0-1.0-74.0","0","0","67857","","null","","","null","8","","","","","","","","","","","","","","","",""
"","ISI","","html-keyboard-response","56","73066","0.0-1.0-75.0","0","0","67857","","null","","","null","8","NaN","","","","","","","","","","","","","","",""
"","S2","","html-keyboard-response","57","73332","0.0-1.0-76.0","0","0","67857","","null","","","null","8","","NaN","","","","","","","","","","","","","",""
"","response","","html-keyboard-response","58","73514","0.0-1.0-77.0-0.0","0","0","67857","","174","","","75","8","","","1","8","training","adjacent","ED","5","4","N.jpg","Q.jpg","1","0","0","",""
"","feedback","","html-keyboard-response","59","74522","0.0-1.0-78.0-0.0","0","0","67857","","null","","","null","8","","","","","","","","","","","","","","","",""
"","time_out","","html-keyboard-response","60","76530","0.0-1.0-80.0-0.0","0","0","67857","","null","","","null","8","","","","","","","","","","","","","","","",""
"","ITI","","html-keyboard-response","61","77536","0.0-1.0-81.0","0","0","67857","","null","","","null","8","","","","","","","","","","","","","","","NaN",""
"","S1","","html-keyboard-response","62","77794","0.0-1.0-83.0","0","0","67857","","null","","","null","9","","","","","","","","","","","","","","","",""
"","ISI","","html-keyboard-response","63","79803","0.0-1.0-84.0","0","0","67857","","null","","","null","9","NaN","","","","","","","","","","","","","","",""
"","S2","","html-keyboard-response","64","80070","0.0-1.0-85.0","0","0","67857","","null","","","null","9","","NaN","","","","","","","","","","","","","",""
"","response","","html-keyboard-response","65","80089","0.0-1.0-86.0-0.0","0","0","67857","","12","","","68","9","","","1","9","training","adjacent","BC","2","3","R.jpg","M.jpg","0","1","0","",""
"","feedback","","html-keyboard-response","66","81106","0.0-1.0-87.0-0.0","0","0","67857","","null","","","null","9","","","","","","","","","","","","","","","",""
"","time_out","","html-keyboard-response","67","83113","0.0-1.0-89.0-0.0","0","0","67857","","null","","","null","9","","","","","","","","","","","","","","","",""
"","ITI","","html-keyboard-response","68","84120","0.0-1.0-90.0","0","0","67857","","null","","","null","9","","","","","","","","","","","","","","","NaN",""
"","S1","","html-keyboard-response","69","84380","0.0-1.0-92.0","0","0","67857","","null","","","null","10","","","","","","","","","","","","","","","",""
"","ISI","","html-keyboard-response","70","86388","0.0-1.0-93.0","0","0","67857","","null","","","null","10","NaN","","","","","","","","","","","","","","",""
"","S2","","html-keyboard-response","71","86652","0.0-1.0-94.0","0","0","67857","","null","","","null","10","","NaN","","","","","","","","","","","","","",""
"","response","","html-keyboard-response","72","86683","0.0-1.0-95.0-0.0","0","0","67857","","13","","","75","10","","","1","10","training","adjacent","CD","3","4","M.jpg","Q.jpg","1","1","1","",""
"","feedback","","html-keyboard-response","73","87692","0.0-1.0-96.0-0.0","0","0","67857","","null","","","null","10","","","","","","","","","","","","","","","",""
"","ITI","","html-keyboard-response","74","88699","0.0-1.0-99.0","0","0","67857","","null","","","null","10","","","","","","","","","","","","","","","NaN",""
"","S1","","html-keyboard-response","75","88957","0.0-1.0-101.0","0","0","67857","","null","","","null","11","","","","","","","","","","","","","","","",""
"","ISI","","html-keyboard-response","76","90967","0.0-1.0-102.0","0","0","67857","","null","","","null","11","NaN","","","","","","","","","","","","","","",""
"","S2","","html-keyboard-response","77","91224","0.0-1.0-103.0","0","0","67857","","null","","","null","11","","NaN","","","","","","","","","","","","","",""
"","response","","html-keyboard-response","78","91560","0.0-1.0-104.0-0.0","0","0","67857","","328","","","68","11","","","1","11","training","adjacent","CB","3","2","M.jpg","R.jpg","0","0","1","",""
"","feedback","","html-keyboard-response","79","92568","0.0-1.0-105.0-0.0","0","0","67857","","null","","","null","11","","","","","","","","","","","","","","","",""
"","ITI","","html-keyboard-response","80","93581","0.0-1.0-108.0","0","0","67857","","null","","","null","11","","","","","","","","","","","","","","","NaN",""
"","S1","","html-keyboard-response","81","93838","0.0-1.0-110.0","0","0","67857","","null","","","null","12","","","","","","","","","","","","","","","",""
"","ISI","","html-keyboard-response","82","95852","0.0-1.0-111.0","0","0","67857","","null","","","null","12","NaN","","","","","","","","","","","","","","",""
"","S2","","html-keyboard-response","83","96112","0.0-1.0-112.0","0","0","67857","","null","","","null","12","","NaN","","","","","","","","","","","","","",""
"","response","","html-keyboard-response","84","96312","0.0-1.0-113.0-0.0","0","0","67857","","189","","","75","12","","","1","12","training","adjacent","DC","4","3","Q.jpg","M.jpg","1","0","0","",""
"","feedback","","html-keyboard-response","85","97320","0.0-1.0-114.0-0.0","0","0","67857","","null","","","null","12","","","","","","","","","","","","","","","",""
"","time_out","","html-keyboard-response","86","99330","0.0-1.0-116.0-0.0","0","0","67857","","null","","","null","12","","","","","","","","","","","","","","","",""
"","ITI","","html-keyboard-response","87","100338","0.0-1.0-117.0","0","0","67857","","null","","","null","12","","","","","","","","","","","","","","","NaN",""
"","S1","","html-keyboard-response","88","100602","0.0-1.0-119.0","0","0","67857","","null","","","null","13","","","","","","","","","","","","","","","",""
"","ISI","","html-keyboard-response","89","102614","0.0-1.0-120.0","0","0","67857","","null","","","null","13","NaN","","","","","","","","","","","","","","",""
"","S2","","html-keyboard-response","90","102865","0.0-1.0-121.0","0","0","67857","","241","","","68","13","","d","1","13","training","adjacent","GF","7","6","P.jpg","L.jpg","0","0","1","",""
"","feedback","","html-keyboard-response","91","103874","0.0-1.0-123.0-0.0","0","0","67857","","null","","","null","13","","","","","","","","","","","","","","","",""
"","ITI","","html-keyboard-response","92","104887","0.0-1.0-126.0","0","0","67857","","null","","","null","13","","","","","","","","","","","","","","","NaN",""
"","S1","","html-keyboard-response","93","105146","0.0-1.0-128.0","0","0","67857","","null","","","null","14","","","","","","","","","","","","","","","",""
"","ISI","","html-keyboard-response","94","107154","0.0-1.0-129.0","0","0","67857","","null","","","null","14","NaN","","","","","","","","","","","","","","",""
"","S2","","html-keyboard-response","95","107367","0.0-1.0-130.0","0","0","67857","","204","","","75","14","","k","1","14","training","adjacent","AB","1","2","O.jpg","R.jpg","1","1","1","",""
"","feedback","","html-keyboard-response","96","108378","0.0-1.0-132.0-0.0","0","0","67857","","null","","","null","14","","","","","","","","","","","","","","","",""
"","ITI","","html-keyboard-response","97","109386","0.0-1.0-135.0","0","0","67857","","null","","","null","14","","","","","","","","","","","","","","","NaN",""
"","S1","","html-keyboard-response","98","109643","0.0-1.0-137.0","0","0","67857","","null","","","null","15","","","","","","","","","","","","","","","",""
"","ISI","","html-keyboard-response","99","111650","0.0-1.0-138.0","0","0","67857","","null","","","null","15","NaN","","","","","","","","","","","","","","",""
"","S2","","html-keyboard-response","100","111898","0.0-1.0-139.0","0","0","67857","","234","","","68","15","","d","1","15","training","adjacent","FE","6","5","L.jpg","N.jpg","0","0","1","",""
"","feedback","","html-keyboard-response","101","112906","0.0-1.0-141.0-0.0","0","0","67857","","null","","","null","15","","","","","","","","","","","","","","","",""
"","ITI","","html-keyboard-response","102","113921","0.0-1.0-144.0","0","0","67857","","null","","","null","15","","","","","","","","","","","","","","","NaN",""
"","S1","","html-keyboard-response","103","114178","0.0-1.0-146.0","0","0","67857","","null","","","null","16","","","","","","","","","","","","","","","",""
"","ISI","","html-keyboard-response","104","116186","0.0-1.0-147.0","0","0","67857","","null","","","null","16","NaN","","","","","","","","","","","","","","",""
"","S2","","html-keyboard-response","105","116444","0.0-1.0-148.0","0","0","67857","","null","","","null","16","","NaN","","","","","","","","","","","","","",""
"","response","","html-keyboard-response","106","116512","0.0-1.0-149.0-0.0","0","0","67857","","61","","","75","16","","","1","16","training","adjacent","BC","2","3","R.jpg","M.jpg","1","1","1","",""
"","feedback","","html-keyboard-response","107","117531","0.0-1.0-150.0-0.0","0","0","67857","","null","","","null","16","","","","","","","","","","","","","","","",""
"","ITI","","html-keyboard-response","108","118539","0.0-1.0-153.0","0","0","67857","","null","","","null","16","","","","","","","","","","","","","","","NaN",""
"","S1","","html-keyboard-response","109","118797","0.0-1.0-155.0","0","0","67857","","null","","","null","17","","","","","","","","","","","","","","","",""
"","ISI","","html-keyboard-response","110","120805","0.0-1.0-156.0","0","0","67857","","null","","","null","17","NaN","","","","","","","","","","","","","","",""
"","S2","","html-keyboard-response","111","121013","0.0-1.0-157.0","0","0","67857","","199","","","68","17","","d","1","17","training","adjacent","FG","6","7","L.jpg","P.jpg","0","1","0","",""
"","feedback","","html-keyboard-response","112","122029","0.0-1.0-159.0-0.0","0","0","67857","","null","","","null","17","","","","","","","","","","","","","","","",""
"","time_out","","html-keyboard-response","113","124039","0.0-1.0-161.0-0.0","0","0","67857","","null","","","null","17","","","","","","","","","","","","","","","",""
"","ITI","","html-keyboard-response","114","125047","0.0-1.0-162.0","0","0","67857","","null","","","null","17","","","","","","","","","","","","","","","NaN",""
"","S1","","html-keyboard-response","115","125309","0.0-1.0-164.0","0","0","67857","","null","","","null","18","","","","","","","","","","","","","","","",""
"","ISI","","html-keyboard-response","116","127319","0.0-1.0-165.0","0","0","67857","","null","","","null","18","NaN","","","","","","","","","","","","","","",""
"","S2","","html-keyboard-response","117","127418","0.0-1.0-166.0","0","0","67857","","78","","","75","18","","k","1","18","training","adjacent","EF","5","6","N.jpg","L.jpg","1","1","1","",""
"","feedback","","html-keyboard-response","118","128441","0.0-1.0-168.0-0.0","0","0","67857","","null","","","null","18","","","","","","","","","","","","","","","",""
"","ITI","","html-keyboard-response","119","129458","0.0-1.0-171.0","0","0","67857","","null","","","null","18","","","","","","","","","","","","","","","NaN",""
"","S1","","html-keyboard-response","120","129717","0.0-1.0-173.0","0","0","67857","","null","","","null","19","","","","","","","","","","","","","","","",""
"","ISI","","html-keyboard-response","121","131724","0.0-1.0-174.0","0","0","67857","","1980","","","68","19","d","","","","","","","","","","","","","","",""
"","S2","","html-keyboard-response","122","131990","0.0-1.0-175.0","0","0","67857","","null","","","null","19","","NaN","","","","","","","","","","","","","",""
"","response","","html-keyboard-response","123","132137","0.0-1.0-176.0-0.0","0","0","67857","","133","","","68","19","","","1","19","training","adjacent","GF","7","6","P.jpg","L.jpg","0","0","1","",""
"","feedback","","html-keyboard-response","124","133145","0.0-1.0-177.0-0.0","0","0","67857","","null","","","null","19","","","","","","","","","","","","","","","",""
"","ITI","","html-keyboard-response","125","134162","0.0-1.0-180.0","0","0","67857","","null","","","null","19","","","","","","","","","","","","","","","NaN",""
"","S1","","html-keyboard-response","126","134419","0.0-1.0-182.0","0","0","67857","","null","","","null","20","","","","","","","","","","","","","","","",""
"","ISI","","html-keyboard-response","127","136436","0.0-1.0-183.0","0","0","67857","","null","","","null","20","NaN","","","","","","","","","","","","","","",""
"","S2","","html-keyboard-response","128","136696","0.0-1.0-184.0","0","0","67857","","null","","","null","20","","NaN","","","","","","","","","","","","","",""
"","response","","html-keyboard-response","129","136949","0.0-1.0-185.0-0.0","0","0","67857","","245","","","75","20","","","1","20","training","adjacent","FG","6","7","L.jpg","P.jpg","1","1","1","",""
"","feedback","","html-keyboard-response","130","137961","0.0-1.0-186.0-0.0","0","0","67857","","null","","","null","20","","","","","","","","","","","","","","","",""
"","ITI","","html-keyboard-response","131","138975","0.0-1.0-189.0","0","0","67857","","null","","","null","20","","","","","","","","","","","","","","","NaN",""
"","S1","","html-keyboard-response","132","139234","0.0-1.0-191.0","0","0","67857","","null","","","null","21","","","","","","","","","","","","","","","",""
"","ISI","","html-keyboard-response","133","141244","0.0-1.0-192.0","0","0","67857","","null","","","null","21","NaN","","","","","","","","","","","","","","",""
"","S2","","html-keyboard-response","134","141502","0.0-1.0-193.0","0","0","67857","","null","","","null","21","","NaN","","","","","","","","","","","","","",""
"","response","","html-keyboard-response","135","141528","0.0-1.0-194.0-0.0","0","0","67857","","14","","","68","21","","","1","21","training","adjacent","EF","5","6","N.jpg","L.jpg","0","1","0","",""
"","feedback","","html-keyboard-response","136","142537","0.0-1.0-195.0-0.0","0","0","67857","","null","","","null","21","","","","","","","","","","","","","","","",""
"","time_out","","html-keyboard-response","137","144544","0.0-1.0-197.0-0.0","0","0","67857","","null","","","null","21","","","","","","","","","","","","","","","",""
"","ITI","","html-keyboard-response","138","145552","0.0-1.0-198.0","0","0","67857","","null","","","null","21","","","","","","","","","","","","","","","NaN",""
"","S1","","html-keyboard-response","139","145820","0.0-1.0-200.0","0","0","67857","","null","","","null","22","","","","","","","","","","","","","","","",""
"","ISI","","html-keyboard-response","140","147828","0.0-1.0-201.0","0","0","67857","","null","","","null","22","NaN","","","","","","","","","","","","","","",""
"","S2","","html-keyboard-response","141","148086","0.0-1.0-202.0","0","0","67857","","247","","","75","22","","k","1","22","training","adjacent","BA","2","1","R.jpg","O.jpg","1","0","0","",""
"","feedback","","html-keyboard-response","142","149093","0.0-1.0-204.0-0.0","0","0","67857","","null","","","null","22","","","","","","","","","","","","","","","",""
"","time_out","","html-keyboard-response","143","151101","0.0-1.0-206.0-0.0","0","0","67857","","null","","","null","22","","","","","","","","","","","","","","","",""
"","ITI","","html-keyboard-response","144","152109","0.0-1.0-207.0","0","0","67857","","null","","","null","22","","","","","","","","","","","","","","","NaN",""
"","S1","","html-keyboard-response","145","152377","0.0-1.0-209.0","0","0","67857","","null","","","null","23","","","","","","","","","","","","","","","",""
"","ISI","","html-keyboard-response","146","154385","0.0-1.0-210.0","0","0","67857","","null","","","null","23","NaN","","","","","","","","","","","","","","",""
"","S2","","html-keyboard-response","147","154644","0.0-1.0-211.0","0","0","67857","","null","","","null","23","","NaN","","","","","","","","","","","","","",""
"","response","","html-keyboard-response","148","154671","0.0-1.0-212.0-0.0","0","0","67857","","19","","","68","23","","","1","23","training","adjacent","DC","4","3","Q.jpg","M.jpg","0","0","1","",""
"","feedback","","html-keyboard-response","149","155678","0.0-1.0-213.0-0.0","0","0","67857","","null","","","null","23","","","","","","","","","","","","","","","",""
"","ITI","","html-keyboard-response","150","156686","0.0-1.0-216.0","0","0","67857","","null","","","null","23","","","","","","","","","","","","","","","NaN",""
"","S1","","html-keyboard-response","151","156944","0.0-1.0-218.0","0","0","67857","","null","","","null","24","","","","","","","","","","","","","","","",""
"","ISI","","html-keyboard-response","152","158952","0.0-1.0-219.0","0","0","67857","","null","","","null","24","NaN","","","","","","","","","","","","","","",""
"","S2","","html-keyboard-response","153","159211","0.0-1.0-220.0","0","0","67857","","null","","","null","24","","NaN","","","","","","","","","","","","","",""
"","response","","html-keyboard-response","154","159578","0.0-1.0-221.0-0.0","0","0","67857","","359","","","75","24","","","1","24","training","adjacent","CB","3","2","M.jpg","R.jpg","1","0","0","",""
"","feedback","","html-keyboard-response","155","160587","0.0-1.0-222.0-0.0","0","0","67857","","null","","","null","24","","","","","","","","","","","","","","","",""
"","time_out","","html-keyboard-response","156","162595","0.0-1.0-224.0-0.0","0","0","67857","","null","","","null","24","","","","","","","","","","","","","","","",""
"","ITI","","html-keyboard-response","157","163604","0.0-1.0-225.0","0","0","67857","","null","","","null","24","","","","","","","","","","","","","","","NaN",""
"","S1","","html-keyboard-response","158","163867","0.0-1.0-227.0","0","0","67857","","null","","","null","25","","","","","","","","","","","","","","","",""
"","ISI","","html-keyboard-response","159","165878","0.0-1.0-228.0","0","0","67857","","null","","","null","25","NaN","","","","","","","","","","","","","","",""
"","S2","","html-keyboard-response","160","166139","0.0-1.0-229.0","0","0","67857","","null","","","null","25","","NaN","","","","","","","","","","","","","",""
"","response","","html-keyboard-response","161","166187","0.0-1.0-230.0-0.0","0","0","67857","","23","","","68","25","","","1","25","training","adjacent","DE","4","5","Q.jpg","N.jpg","0","1","0","",""
"","feedback","","html-keyboard-response","162","167207","0.0-1.0-231.0-0.0","0","0","67857","","null","","","null","25","","","","","","","","","","","","","","","",""
"","time_out","","html-keyboard-response","163","169214","0.0-1.0-233.0-0.0","0","0","67857","","null","","","null","25","","","","","","","","","","","","","","","",""
"","ITI","","html-keyboard-response","164","170224","0.0-1.0-234.0","0","0","67857","","null","","","null","25","","","","","","","","","","","","","","","NaN",""
"","S1","","html-keyboard-response","165","170485","0.0-1.0-236.0","0","0","67857","","null","","","null","26","","","","","","","","","","","","","","","",""
"","ISI","","html-keyboard-response","166","172493","0.0-1.0-237.0","0","0","67857","","null","","","null","26","NaN","","","","","","","","","","","","","","",""
"","S2","","html-keyboard-response","167","172753","0.0-1.0-238.0","0","0","67857","","null","","","null","26","","NaN","","","","","","","","","","","","","",""
"","response","","html-keyboard-response","168","172865","0.0-1.0-239.0-0.0","0","0","67857","","93","","","75","26","","","1","26","training","adjacent","CB","3","2","M.jpg","R.jpg","1","0","0","",""
"","feedback","","html-keyboard-response","169","173882","0.0-1.0-240.0-0.0","0","0","67857","","null","","","null","26","","","","","","","","","","","","","","","",""
"","time_out","","html-keyboard-response","170","175892","0.0-1.0-242.0-0.0","0","0","67857","","null","","","null","26","","","","","","","","","","","","","","","",""
"","ITI","","html-keyboard-response","171","176902","0.0-1.0-243.0","0","0","67857","","null","","","null","26","","","","","","","","","","","","","","","NaN",""
"","S1","","html-keyboard-response","172","177165","0.0-1.0-245.0","0","0","67857","","null","","","null","27","","","","","","","","","","","","","","","",""
"","ISI","","html-keyboard-response","173","179172","0.0-1.0-246.0","0","0","67857","","null","","","null","27","NaN","","","","","","","","","","","","","","",""
"","S2","","html-keyboard-response","174","179433","0.0-1.0-247.0","0","0","67857","","239","","","68","27","","d","1","27","training","adjacent","FE","6","5","L.jpg","N.jpg","0","0","1","",""
"","feedback","","html-keyboard-response","175","180460","0.0-1.0-249.0-0.0","0","0","67857","","null","","","null","27","","","","","","","","","","","","","","","",""
"","ITI","","html-keyboard-response","176","181468","0.0-1.0-252.0","0","0","67857","","null","","","null","27","","","","","","","","","","","","","","","NaN",""
"","S1","","html-keyboard-response","177","181727","0.0-1.0-254.0","0","0","67857","","null","","","null","28","","","","","","","","","","","","","","","",""
"","ISI","","html-keyboard-response","178","183739","0.0-1.0-255.0","0","0","67857","","null","","","null","28","NaN","","","","","","","","","","","","","","",""
"","S2","","html-keyboard-response","179","183997","0.0-1.0-256.0","0","0","67857","","null","","","null","28","","NaN","","","","","","","","","","","","","",""
"","response","","html-keyboard-response","180","184353","0.0-1.0-257.0-0.0","0","0","67857","","350","","","75","28","","","1","28","training","adjacent","DE","4","5","Q.jpg","N.jpg","1","1","1","",""
"","feedback","","html-keyboard-response","181","185361","0.0-1.0-258.0-0.0","0","0","67857","","null","","","null","28","","","","","","","","","","","","","","","",""
"","ITI","","html-keyboard-response","182","186369","0.0-1.0-261.0","0","0","67857","","null","","","null","28","","","","","","","","","","","","","","","NaN",""
"","S1","","html-keyboard-response","183","186626","0.0-1.0-263.0","0","0","67857","","null","","","null","29","","","","","","","","","","","","","","","",""
"","ISI","","html-keyboard-response","184","188639","0.0-1.0-264.0","0","0","67857","","null","","","null","29","NaN","","","","","","","","","","","","","","",""
"","S2","","html-keyboard-response","185","188897","0.0-1.0-265.0","0","0","67857","","null","","","null","29","","NaN","","","","","","","","","","","","","",""
"","response","","html-keyboard-response","186","189100","0.0-1.0-266.0-0.0","0","0","67857","","194","","","68","29","","","1","29","training","adjacent","DC","4","3","Q.jpg","M.jpg","0","0","1","",""
"","feedback","","html-keyboard-response","187","190116","0.0-1.0-267.0-0.0","0","0","67857","","null","","","null","29","","","","","","","","","","","","","","","",""
"","ITI","","html-keyboard-response","188","191133","0.0-1.0-270.0","0","0","67857","","null","","","null","29","","","","","","","","","","","","","","","NaN",""
"","S1","","html-keyboard-response","189","191395","0.0-1.0-272.0","0","0","67857","","null","","","null","30","","","","","","","","","","","","","","","",""
"","ISI","","html-keyboard-response","190","193406","0.0-1.0-273.0","0","0","67857","","null","","","null","30","NaN","","","","","","","","","","","","","","",""
"","S2","","html-keyboard-response","191","193669","0.0-1.0-274.0","0","0","67857","","239","","","75","30","","k","1","30","training","adjacent","BC","2","3","R.jpg","M.jpg","1","1","1","",""
"","feedback","","html-keyboard-response","192","194711","0.0-1.0-276.0-0.0","0","0","67857","","null","","","null","30","","","","","","","","","","","","","","","",""
"","ITI","","html-keyboard-response","193","195724","0.0-1.0-279.0","0","0","67857","","null","","","null","30","","","","","","","","","","","","","","","NaN",""
"","S1","","html-keyboard-response","194","195986","0.0-1.0-281.0","0","0","67857","","null","","","null","31","","","","","","","","","","","","","","","",""
"","ISI","","html-keyboard-response","195","198001","0.0-1.0-282.0","0","0","67857","","null","","","null","31","NaN","","","","","","","","","","","","","","",""
"","S2","","html-keyboard-response","196","198283","0.0-1.0-283.0","0","0","67857","","null","","","null","31","","NaN","","","","","","","","","","","","","",""
"","response","","html-keyboard-response","197","198295","0.0-1.0-284.0-0.0","0","0","67857","","4","","","68","31","","","1","31","training","adjacent","CD","3","4","M.jpg","Q.jpg","0","1","0","",""
"","feedback","","html-keyboard-response","198","199313","0.0-1.0-285.0-0.0","0","0","67857","","null","","","null","31","","","","","","","","","","","","","","","",""
"","time_out","","html-keyboard-response","199","201341","0.0-1.0-287.0-0.0","0","0","67857","","null","","","null","31","","","","","","","","","","","","","","","",""
"","ITI","","html-keyboard-response","200","202351","0.0-1.0-288.0","0","0","67857","","null","","","null","31","","","","","","","","","","","","","","","NaN",""
"","S1","","html-keyboard-response","201","202611","0.0-1.0-290.0","0","0","67857","","null","","","null","32","","","","","","","","","","","","","","","",""
"","ISI","","html-keyboard-response","202","204623","0.0-1.0-291.0","0","0","67857","","null","","","null","32","NaN","","","","","","","","","","","","","","",""
"","S2","","html-keyboard-response","203","204883","0.0-1.0-292.0","0","0","67857","","null","","","null","32","","NaN","","","","","","","","","","","","","",""
"","response","","html-keyboard-response","204","204920","0.0-1.0-293.0-0.0","0","0","67857","","26","","","75","32","","","1","32","training","adjacent","AB","1","2","O.jpg","R.jpg","1","1","1","",""
"","feedback","","html-keyboard-response","205","205928","0.0-1.0-294.0-0.0","0","0","67857","","null","","","null","32","","","","","","","","","","","","","","","",""
"","ITI","","html-keyboard-response","206","206941","0.0-1.0-297.0","0","0","67857","","null","","","null","32","","","","","","","","","","","","","","","NaN",""
"","S1","","html-keyboard-response","207","207200","0.0-1.0-299.0","0","0","67857","","null","","","null","33","","","","","","","","","","","","","","","",""
"","ISI","","html-keyboard-response","208","209208","0.0-1.0-300.0","0","0","67857","","null","","","null","33","NaN","","","","","","","","","","","","","","",""
"","S2","","html-keyboard-response","209","209483","0.0-1.0-301.0","0","0","67857","","null","","","null","33","","NaN","","","","","","","","","","","","","",""
"","response","","html-keyboard-response","210","209766","0.0-1.0-302.0-0.0","0","0","67857","","274","","","68","33","","","1","33","training","adjacent","FE","6","5","L.jpg","N.jpg","0","0","1","",""
"","feedback","","html-keyboard-response","211","210777","0.0-1.0-303.0-0.0","0","0","67857","","null","","","null","33","","","","","","","","","","","","","","","",""
"","ITI","","html-keyboard-response","212","211785","0.0-1.0-306.0","0","0","67857","","null","","","null","33","","","","","","","","","","","","","","","NaN",""
"","S1","","html-keyboard-response","213","212043","0.0-1.0-308.0","0","0","67857","","null","","","null","34","","","","","","","","","","","","","","","",""
"","ISI","","html-keyboard-response","214","214050","0.0-1.0-309.0","0","0","67857","","null","","","null","34","NaN","","","","","","","","","","","","","","",""
"","S2","","html-keyboard-response","215","214277","0.0-1.0-310.0","0","0","67857","","215","","","75","34","","k","1","34","training","adjacent","AB","1","2","O.jpg","R.jpg","1","1","1","",""
"","feedback","","html-keyboard-response","216","215292","0.0-1.0-312.0-0.0","0","0","67857","","null","","","null","34","","","","","","","","","","","","","","","",""
"","ITI","","html-keyboard-response","217","216299","0.0-1.0-315.0","0","0","67857","","null","","","null","34","","","","","","","","","","","","","","","NaN",""
"","S1","","html-keyboard-response","218","216557","0.0-1.0-317.0","0","0","67857","","null","","","null","35","","","","","","","","","","","","","","","",""
"","ISI","","html-keyboard-response","219","218568","0.0-1.0-318.0","0","0","67857","","null","","","null","35","NaN","","","","","","","","","","","","","","",""
"","S2","","html-keyboard-response","220","218826","0.0-1.0-319.0","0","0","67857","","null","","","null","35","","NaN","","","","","","","","","","","","","",""
"","response","","html-keyboard-response","221","218865","0.0-1.0-320.0-0.0","0","0","67857","","21","","","68","35","","","1","35","training","adjacent","ED","5","4","N.jpg","Q.jpg","0","0","1","",""
"","feedback","","html-keyboard-response","222","219879","0.0-1.0-321.0-0.0","0","0","67857","","null","","","null","35","","","","","","","","","","","","","","","",""
"","ITI","","html-keyboard-response","223","220889","0.0-1.0-324.0","0","0","67857","","null","","","null","35","","","","","","","","","","","","","","","NaN",""
"","S1","","html-keyboard-response","224","221147","0.0-1.0-326.0","0","0","67857","","null","","","null","36","","","","","","","","","","","","","","","",""
"","ISI","","html-keyboard-response","225","223154","0.0-1.0-327.0","0","0","67857","","null","","","null","36","NaN","","","","","","","","","","","","","","",""
"","S2","","html-keyboard-response","226","223413","0.0-1.0-328.0","0","0","67857","","null","","","null","36","","NaN","","","","","","","","","","","","","",""
"","response","","html-keyboard-response","227","223551","0.0-1.0-329.0-0.0","0","0","67857","","128","","","75","36","","","1","36","training","adjacent","BA","2","1","R.jpg","O.jpg","1","0","0","",""
"","feedback","","html-keyboard-response","228","224573","0.0-1.0-330.0-0.0","0","0","67857","","null","","","null","36","","","","","","","","","","","","","","","",""
"","time_out","","html-keyboard-response","229","226582","0.0-1.0-332.0-0.0","0","0","67857","","null","","","null","36","","","","","","","","","","","","","","","",""
"","ITI","","html-keyboard-response","230","227589","0.0-1.0-333.0","0","0","67857","","null","","","null","36","","","","","","","","","","","","","","","NaN",""
"","S1","","html-keyboard-response","231","227853","0.0-1.0-335.0","0","0","67857","","null","","","null","37","","","","","","","","","","","","","","","",""
"","ISI","","html-keyboard-response","232","229863","0.0-1.0-336.0","0","0","67857","","null","","","null","37","NaN","","","","","","","","","","","","","","",""
"","S2","","html-keyboard-response","233","230124","0.0-1.0-337.0","0","0","67857","","null","","","null","37","","NaN","","","","","","","","","","","","","",""
"","response","","html-keyboard-response","234","230142","0.0-1.0-338.0-0.0","0","0","67857","","11","","","68","37","","","1","37","training","adjacent","DE","4","5","Q.jpg","N.jpg","0","1","0","",""
"","feedback","","html-keyboard-response","235","231151","0.0-1.0-339.0-0.0","0","0","67857","","null","","","null","37","","","","","","","","","","","","","","","",""
"","time_out","","html-keyboard-response","236","233163","0.0-1.0-341.0-0.0","0","0","67857","","null","","","null","37","","","","","","","","","","","","","","","",""
"","ITI","","html-keyboard-response","237","234171","0.0-1.0-342.0","0","0","67857","","null","","","null","37","","","","","","","","","","","","","","","NaN",""
"","S1","","html-keyboard-response","238","234429","0.0-1.0-344.0","0","0","67857","","null","","","null","38","","","","","","","","","","","","","","","",""
"","ISI","","html-keyboard-response","239","236436","0.0-1.0-345.0","0","0","67857","","null","","","null","38","NaN","","","","","","","","","","","","","","",""
"","S2","","html-keyboard-response","240","236695","0.0-1.0-346.0","0","0","67857","","null","","","null","38","","NaN","","","","","","","","","","","","","",""
"","response","","html-keyboard-response","241","236927","0.0-1.0-347.0-0.0","0","0","67857","","218","","","75","38","","","1","38","training","adjacent","FG","6","7","L.jpg","P.jpg","1","1","1","",""
"","feedback","","html-keyboard-response","242","237935","0.0-1.0-348.0-0.0","0","0","67857","","null","","","null","38","","","","","","","","","","","","","","","",""
"","ITI","","html-keyboard-response","243","238942","0.0-1.0-351.0","0","0","67857","","null","","","null","38","","","","","","","","","","","","","","","NaN",""
"","S1","","html-keyboard-response","244","239204","0.0-1.0-353.0","0","0","67857","","null","","","null","39","","","","","","","","","","","","","","","",""
"","ISI","","html-keyboard-response","245","241211","0.0-1.0-354.0","0","0","67857","","null","","","null","39","NaN","","","","","","","","","","","","","","",""
"","S2","","html-keyboard-response","246","241476","0.0-1.0-355.0","0","0","67857","","null","","","null","39","","NaN","","","","","","","","","","","","","",""
"","response","","html-keyboard-response","247","241505","0.0-1.0-356.0-0.0","0","0","67857","","19","","","68","39","","","1","39","training","adjacent","GF","7","6","P.jpg","L.jpg","0","0","1","",""
"","feedback","","html-keyboard-response","248","242515","0.0-1.0-357.0-0.0","0","0","67857","","null","","","null","39","","","","","","","","","","","","","","","",""
"","ITI","","html-keyboard-response","249","243523","0.0-1.0-360.0","0","0","67857","","null","","","null","39","","","","","","","","","","","","","","","NaN",""
"","S1","","html-keyboard-response","250","243782","0.0-1.0-362.0","0","0","67857","","null","","","null","40","","","","","","","","","","","","","","","",""
"","ISI","","html-keyboard-response","251","245790","0.0-1.0-363.0","0","0","67857","","null","","","null","40","NaN","","","","","","","","","","","","","","",""
"","S2","","html-keyboard-response","252","246038","0.0-1.0-364.0","0","0","67857","","239","","","75","40","","k","1","40","training","adjacent","CD","3","4","M.jpg","Q.jpg","1","1","1","",""
"","feedback","","html-keyboard-response","253","247052","0.0-1.0-366.0-0.0","0","0","67857","","null","","","null","40","","","","","","","","","","","","","","","",""
"","ITI","","html-keyboard-response","254","248060","0.0-1.0-369.0","0","0","67857","","null","","","null","40","","","","","","","","","","","","","","","NaN",""
"","S1","","html-keyboard-response","255","248318","0.0-1.0-371.0","0","0","67857","","null","","","null","41","","","","","","","","","","","","","","","",""
"","ISI","","html-keyboard-response","256","250330","0.0-1.0-372.0","0","0","67857","","null","","","null","41","NaN","","","","","","","","","","","","","","",""
"","S2","","html-keyboard-response","257","250589","0.0-1.0-373.0","0","0","67857","","null","","","null","41","","NaN","","","","","","","","","","","","","",""
"","response","","html-keyboard-response","258","250788","0.0-1.0-374.0-0.0","0","0","67857","","180","","","68","41","","","1","41","training","adjacent","ED","5","4","N.jpg","Q.jpg","0","0","1","",""
"","feedback","","html-keyboard-response","259","251811","0.0-1.0-375.0-0.0","0","0","67857","","null","","","null","41","","","","","","","","","","","","","","","",""
"","ITI","","html-keyboard-response","260","252822","0.0-1.0-378.0","0","0","67857","","null","","","null","41","","","","","","","","","","","","","","","NaN",""
"","S1","","html-keyboard-response","261","253084","0.0-1.0-380.0","0","0","67857","","null","","","null","42","","","","","","","","","","","","","","","",""
"","ISI","","html-keyboard-response","262","255101","0.0-1.0-381.0","0","0","67857","","null","","","null","42","NaN","","","","","","","","","","","","","","",""
"","S2","","html-keyboard-response","263","255363","0.0-1.0-382.0","0","0","67857","","null","","","null","42","","NaN","","","","","","","","","","","","","",""
"","response","","html-keyboard-response","264","255434","0.0-1.0-383.0-0.0","0","0","67857","","61","","","75","42","","","1","42","training","adjacent","CB","3","2","M.jpg","R.jpg","1","0","0","",""
"","feedback","","html-keyboard-response","265","256448","0.0-1.0-384.0-0.0","0","0","67857","","null","","","null","42","","","","","","","","","","","","","","","",""
"","time_out","","html-keyboard-response","266","258460","0.0-1.0-386.0-0.0","0","0","67857","","null","","","null","42","","","","","","","","","","","","","","","",""
"","ITI","","html-keyboard-response","267","259468","0.0-1.0-387.0","0","0","67857","","155","","","68","42","","","","","","","","","","","","","","","d",""
"","S1","","html-keyboard-response","268","259729","0.0-1.0-389.0","0","0","67857","","null","","","null","43","","","","","","","","","","","","","","","",""
"","ISI","","html-keyboard-response","269","261736","0.0-1.0-390.0","0","0","67857","","131","","","68","43","d","","","","","","","","","","","","","","",""
"","S2","","html-keyboard-response","270","262022","0.0-1.0-391.0","0","0","67857","","null","","","null","43","","NaN","","","","","","","","","","","","","",""
"","response","","html-keyboard-response","271","262253","0.0-1.0-392.0-0.0","0","0","67857","","221","","","68","43","","","1","43","training","adjacent","FE","6","5","L.jpg","N.jpg","0","0","1","",""
"","feedback","","html-keyboard-response","272","263267","0.0-1.0-393.0-0.0","0","0","67857","","null","","","null","43","","","","","","","","","","","","","","","",""
"","ITI","","html-keyboard-response","273","264275","0.0-1.0-396.0","0","0","67857","","null","","","null","43","","","","","","","","","","","","","","","NaN",""
"","S1","","html-keyboard-response","274","264546","0.0-1.0-398.0","0","0","67857","","null","","","null","44","","","","","","","","","","","","","","","",""
"","ISI","","html-keyboard-response","275","266553","0.0-1.0-399.0","0","0","67857","","null","","","null","44","NaN","","","","","","","","","","","","","","",""
"","S2","","html-keyboard-response","276","266813","0.0-1.0-400.0","0","0","67857","","null","","","null","44","","NaN","","","","","","","","","","","","","",""
"","response","","html-keyboard-response","277","267068","0.0-1.0-401.0-0.0","0","0","67857","","238","","","68","44","","","1","44","training","adjacent","DC","4","3","Q.jpg","M.jpg","0","0","1","",""
"","feedback","","html-keyboard-response","278","268082","0.0-1.0-402.0-0.0","0","0","67857","","null","","","null","44","","","","","","","","","","","","","","","",""
"","ITI","","html-keyboard-response","279","269100","0.0-1.0-405.0","0","0","67857","","null","","","null","44","","","","","","","","","","","","","","","NaN",""
"","S1","","html-keyboard-response","280","269358","0.0-1.0-407.0","0","0","67857","","null","","","null","45","","","","","","","","","","","","","","","",""
"","ISI","","html-keyboard-response","281","271366","0.0-1.0-408.0","0","0","67857","","null","","","null","45","NaN","","","","","","","","","","","","","","",""
"","S2","","html-keyboard-response","282","271624","0.0-1.0-409.0","0","0","67857","","null","","","null","45","","NaN","","","","","","","","","","","","","",""
"","response","","html-keyboard-response","283","271830","0.0-1.0-410.0-0.0","0","0","67857","","198","","","75","45","","","1","45","training","adjacent","EF","5","6","N.jpg","L.jpg","1","1","1","",""
"","feedback","","html-keyboard-response","284","272842","0.0-1.0-411.0-0.0","0","0","67857","","null","","","null","45","","","","","","","","","","","","","","","",""
"","ITI","","html-keyboard-response","285","273852","0.0-1.0-414.0","0","0","67857","","null","","","null","45","","","","","","","","","","","","","","","NaN",""
"","S1","","html-keyboard-response","286","274115","0.0-1.0-416.0","0","0","67857","","null","","","null","46","","","","","","","","","","","","","","","",""
"","ISI","","html-keyboard-response","287","276128","0.0-1.0-417.0","0","0","67857","","null","","","null","46","NaN","","","","","","","","","","","","","","",""
"","S2","","html-keyboard-response","288","276390","0.0-1.0-418.0","0","0","67857","","null","","","null","46","","NaN","","","","","","","","","","","","","",""
"","response","","html-keyboard-response","289","276421","0.0-1.0-419.0-0.0","0","0","67857","","19","","","75","46","","","1","46","training","adjacent","EF","5","6","N.jpg","L.jpg","1","1","1","",""
"","feedback","","html-keyboard-response","290","277445","0.0-1.0-420.0-0.0","0","0","67857","","null","","","null","46","","","","","","","","","","","","","","","",""
"","ITI","","html-keyboard-response","291","278453","0.0-1.0-423.0","0","0","67857","","null","","","null","46","","","","","","","","","","","","","","","NaN",""
"","S1","","html-keyboard-response","292","278717","0.0-1.0-425.0","0","0","67857","","null","","","null","47","","","","","","","","","","","","","","","",""
"","ISI","","html-keyboard-response","293","280723","0.0-1.0-426.0","0","0","67857","","null","","","null","47","NaN","","","","","","","","","","","","","","",""
"","S2","","html-keyboard-response","294","280968","0.0-1.0-427.0","0","0","67857","","234","","","68","47","","d","1","47","training","adjacent","BA","2","1","R.jpg","O.jpg","0","0","1","",""
"","feedback","","html-keyboard-response","295","281984","0.0-1.0-429.0-0.0","0","0","67857","","null","","","null","47","","","","","","","","","","","","","","","",""
"","ITI","","html-keyboard-response","296","282991","0.0-1.0-432.0","0","0","67857","","null","","","null","47","","","","","","","","","","","","","","","NaN",""
"","block_over","","html-keyboard-response","297","474507","0.0-1.0-433.0-0.0","0","0","67857","","191504","","","32","47","","","","","","","","","","","","","","","",""
"","S1","","html-keyboard-response","298","474765","0.0-1.0-434.0","0","0","67857","","null","","","null","48","","","","","","","","","","","","","","","",""
"","ISI","","html-keyboard-response","299","476784","0.0-1.0-435.0","0","0","67857","","null","","","null","48","NaN","","","","","","","","","","","","","","",""
"","S2","","html-keyboard-response","300","477046","0.0-1.0-436.0","0","0","67857","","null","","","null","48","","NaN","","","","","","","","","","","","","",""
"","response","","html-keyboard-response","301","477309","0.0-1.0-437.0-0.0","0","0","67857","","256","","","68","48","","","2","48","training","adjacent","DE","4","5","Q.jpg","N.jpg","0","1","0","",""
"","feedback","","html-keyboard-response","302","478319","0.0-1.0-438.0-0.0","0","0","67857","","null","","","null","48","","","","","","","","","","","","","","","",""
"","time_out","","html-keyboard-response","303","480328","0.0-1.0-440.0-0.0","0","0","67857","","null","","","null","48","","","","","","","","","","","","","","","",""
"","ITI","","html-keyboard-response","304","481340","0.0-1.0-441.0","0","0","67857","","null","","","null","48","","","","","","","","","","","","","","","NaN",""
"","S1","","html-keyboard-response","305","481602","0.0-1.0-443.0","0","0","67857","","null","","","null","49","","","","","","","","","","","","","","","",""
"","ISI","","html-keyboard-response","306","483609","0.0-1.0-444.0","0","0","67857","","null","","","null","49","NaN","","","","","","","","","","","","","","",""
"","S2","","html-keyboard-response","307","483868","0.0-1.0-445.0","0","0","67857","","null","","","null","49","","NaN","","","","","","","","","","","","","",""
"","response","","html-keyboard-response","308","483930","0.0-1.0-446.0-0.0","0","0","67857","","53","","","68","49","","","2","49","training","adjacent","GF","7","6","P.jpg","L.jpg","0","0","1","",""
"","feedback","","html-keyboard-response","309","484938","0.0-1.0-447.0-0.0","0","0","67857","","null","","","null","49","","","","","","","","","","","","","","","",""
"","ITI","","html-keyboard-response","310","485945","0.0-1.0-450.0","0","0","67857","","null","","","null","49","","","","","","","","","","","","","","","NaN",""
"","S1","","html-keyboard-response","311","486203","0.0-1.0-452.0","0","0","67857","","null","","","null","50","","","","","","","","","","","","","","","",""
"","ISI","","html-keyboard-response","312","488218","0.0-1.0-453.0","0","0","67857","","null","","","null","50","NaN","","","","","","","","","","","","","","",""
"","S2","","html-keyboard-response","313","488491","0.0-1.0-454.0","0","0","67857","","null","","","null","50","","NaN","","","","","","","","","","","","","",""
"","response","","html-keyboard-response","314","488528","0.0-1.0-455.0-0.0","0","0","67857","","29","","","75","50","","","2","50","training","adjacent","FG","6","7","L.jpg","P.jpg","1","1","1","",""
"","feedback","","html-keyboard-response","315","489537","0.0-1.0-456.0-0.0","0","0","67857","","null","","","null","50","","","","","","","","","","","","","","","",""
"","ITI","","html-keyboard-response","316","490549","0.0-1.0-459.0","0","0","67857","","null","","","null","50","","","","","","","","","","","","","","","NaN",""
"","S1","","html-keyboard-response","317","490807","0.0-1.0-461.0","0","0","67857","","null","","","null","51","","","","","","","","","","","","","","","",""
"","ISI","","html-keyboard-response","318","492815","0.0-1.0-462.0","0","0","67857","","null","","","null","51","NaN","","","","","","","","","","","","","","",""
"","S2","","html-keyboard-response","319","493073","0.0-1.0-463.0","0","0","67857","","null","","","null","51","","NaN","","","","","","","","","","","","","",""
"","response","","html-keyboard-response","320","493310","0.0-1.0-464.0-0.0","0","0","67857","","221","","","75","51","","","2","51","training","adjacent","AB","1","2","O.jpg","R.jpg","1","1","1","",""
"","feedback","","html-keyboard-response","321","494319","0.0-1.0-465.0-0.0","0","0","67857","","null","","","null","51","","","","","","","","","","","","","","","",""
"","ITI","","html-keyboard-response","322","495327","0.0-1.0-468.0","0","0","67857","","null","","","null","51","","","","","","","","","","","","","","","NaN",""
"","S1","","html-keyboard-response","323","495584","0.0-1.0-470.0","0","0","67857","","null","","","null","52","","","","","","","","","","","","","","","",""
"","ISI","","html-keyboard-response","324","497595","0.0-1.0-471.0","0","0","67857","","null","","","null","52","NaN","","","","","","","","","","","","","","",""
"","S2","","html-keyboard-response","325","497862","0.0-1.0-472.0","0","0","67857","","null","","","null","52","","NaN","","","","","","","","","","","","","",""
"","response","","html-keyboard-response","326","498092","0.0-1.0-473.0-0.0","0","0","67857","","222","","","68","52","","","2","52","training","adjacent","BA","2","1","R.jpg","O.jpg","0","0","1","",""
"","feedback","","html-keyboard-response","327","499106","0.0-1.0-474.0-0.0","0","0","67857","","null","","","null","52","","","","","","","","","","","","","","","",""
"","ITI","","html-keyboard-response","328","500122","0.0-1.0-477.0","0","0","67857","","null","","","null","52","","","","","","","","","","","","","","","NaN",""
"","S1","","html-keyboard-response","329","500383","0.0-1.0-479.0","0","0","67857","","null","","","null","53","","","","","","","","","","","","","","","",""
"","ISI","","html-keyboard-response","330","502394","0.0-1.0-480.0","0","0","67857","","null","","","null","53","NaN","","","","","","","","","","","","","","",""
"","S2","","html-keyboard-response","331","502631","0.0-1.0-481.0","0","0","67857","","228","","","75","53","","k","2","53","training","adjacent","DC","4","3","Q.jpg","M.jpg","1","0","0","",""
"","feedback","","html-keyboard-response","332","503640","0.0-1.0-483.0-0.0","0","0","67857","","null","","","null","53","","","","","","","","","","","","","","","",""
"","time_out","","html-keyboard-response","333","505653","0.0-1.0-485.0-0.0","0","0","67857","","null","","","null","53","","","","","","","","","","","","","","","",""
"","ITI","","html-keyboard-response","334","506667","0.0-1.0-486.0","0","0","67857","","null","","","null","53","","","","","","","","","","","","","","","NaN",""
"","S1","","html-keyboard-response","335","506925","0.0-1.0-488.0","0","0","67857","","null","","","null","54","","","","","","","","","","","","","","","",""
"","ISI","","html-keyboard-response","336","508932","0.0-1.0-489.0","0","0","67857","","179","","","75","54","k","","","","","","","","","","","","","","",""
"","S2","","html-keyboard-response","337","509175","0.0-1.0-490.0","0","0","67857","","233","","","75","54","","k","2","54","training","adjacent","BC","2","3","R.jpg","M.jpg","1","1","1","",""
"","feedback","","html-keyboard-response","338","510204","0.0-1.0-492.0-0.0","0","0","67857","","null","","","null","54","","","","","","","","","","","","","","","",""
"","ITI","","html-keyboard-response","339","511216","0.0-1.0-495.0","0","0","67857","","null","","","null","54","","","","","","","","","","","","","","","NaN",""
"","S1","","html-keyboard-response","340","511476","0.0-1.0-497.0","0","0","67857","","null","","","null","55","","","","","","","","","","","","","","","",""
"","ISI","","html-keyboard-response","341","513486","0.0-1.0-498.0","0","0","67857","","null","","","null","55","NaN","","","","","","","","","","","","","","",""
"","S2","","html-keyboard-response","342","513749","0.0-1.0-499.0","0","0","67857","","null","","","null","55","","NaN","","","","","","","","","","","","","",""
"","response","","html-keyboard-response","343","513898","0.0-1.0-500.0-0.0","0","0","67857","","138","","","68","55","","","2","55","training","adjacent","BC","2","3","R.jpg","M.jpg","0","1","0","",""
"","feedback","","html-keyboard-response","344","514908","0.0-1.0-501.0-0.0","0","0","67857","","null","","","null","55","","","","","","","","","","","","","","","",""
"","time_out","","html-keyboard-response","345","516917","0.0-1.0-503.0-0.0","0","0","67857","","null","","","null","55","","","","","","","","","","","","","","","",""
"","ITI","","html-keyboard-response","346","517925","0.0-1.0-504.0","0","0","67857","","null","","","null","55","","","","","","","","","","","","","","","NaN",""
"","S1","","html-keyboard-response","347","518184","0.0-1.0-506.0","0","0","67857","","null","","","null","56","","","","","","","","","","","","","","","",""
"","ISI","","html-keyboard-response","348","520196","0.0-1.0-507.0","0","0","67857","","255","","","68","56","d","","","","","","","","","","","","","","",""
"","S2","","html-keyboard-response","349","520458","0.0-1.0-508.0","0","0","67857","","null","","","null","56","","NaN","","","","","","","","","","","","","",""
"","response","","html-keyboard-response","350","520521","0.0-1.0-509.0-0.0","0","0","67857","","54","","","68","56","","","2","56","training","adjacent","DC","4","3","Q.jpg","M.jpg","0","0","1","",""
"","feedback","","html-keyboard-response","351","521533","0.0-1.0-510.0-0.0","0","0","67857","","null","","","null","56","","","","","","","","","","","","","","","",""
"","ITI","","html-keyboard-response","352","522541","0.0-1.0-513.0","0","0","67857","","null","","","null","56","","","","","","","","","","","","","","","NaN",""
"","S1","","html-keyboard-response","353","522804","0.0-1.0-515.0","0","0","67857","","null","","","null","57","","","","","","","","","","","","","","","",""
"","ISI","","html-keyboard-response","354","524812","0.0-1.0-516.0","0","0","67857","","null","","","null","57","NaN","","","","","","","","","","","","","","",""
"","S2","","html-keyboard-response","355","525070","0.0-1.0-517.0","0","0","67857","","null","","","null","57","","NaN","","","","","","","","","","","","","",""
"","response","","html-keyboard-response","356","525336","0.0-1.0-518.0-0.0","0","0","67857","","259","","","68","57","","","2","57","training","adjacent","CD","3","4","M.jpg","Q.jpg","0","1","0","",""
"","feedback","","html-keyboard-response","357","526346","0.0-1.0-519.0-0.0","0","0","67857","","null","","","null","57","","","","","","","","","","","","","","","",""
"","time_out","","html-keyboard-response","358","528359","0.0-1.0-521.0-0.0","0","0","67857","","null","","","null","57","","","","","","","","","","","","","","","",""
"","ITI","","html-keyboard-response","359","529371","0.0-1.0-522.0","0","0","67857","","null","","","null","57","","","","","","","","","","","","","","","NaN",""
"","S1","","html-keyboard-response","360","529635","0.0-1.0-524.0","0","0","67857","","null","","","null","58","","","","","","","","","","","","","","","",""
"","ISI","","html-keyboard-response","361","531643","0.0-1.0-525.0","0","0","67857","","null","","","null","58","NaN","","","","","","","","","","","","","","",""
"","S2","","html-keyboard-response","362","531903","0.0-1.0-526.0","0","0","67857","","null","","","null","58","","NaN","","","","","","","","","","","","","",""
"","response","","html-keyboard-response","363","531965","0.0-1.0-527.0-0.0","0","0","67857","","55","","","68","58","","","2","58","training","adjacent","CD","3","4","M.jpg","Q.jpg","0","1","0","",""
"","feedback","","html-keyboard-response","364","532974","0.0-1.0-528.0-0.0","0","0","67857","","null","","","null","58","","","","","","","","","","","","","","","",""
"","time_out","","html-keyboard-response","365","534981","0.0-1.0-530.0-0.0","0","0","67857","","null","","","null","58","","","","","","","","","","","","","","","",""
"","ITI","","html-keyboard-response","366","535992","0.0-1.0-531.0","0","0","67857","","null","","","null","58","","","","","","","","","","","","","","","NaN",""
"","S1","","html-keyboard-response","367","536250","0.0-1.0-533.0","0","0","67857","","null","","","null","59","","","","","","","","","","","","","","","",""
"","ISI","","html-keyboard-response","368","538259","0.0-1.0-534.0","0","0","67857","","null","","","null","59","NaN","","","","","","","","","","","","","","",""
"","S2","","html-keyboard-response","369","538539","0.0-1.0-535.0","0","0","67857","","null","","","null","59","","NaN","","","","","","","","","","","","","",""
"","response","","html-keyboard-response","370","538761","0.0-1.0-536.0-0.0","0","0","67857","","203","","","75","59","","","2","59","training","adjacent","ED","5","4","N.jpg","Q.jpg","1","0","0","",""
"","feedback","","html-keyboard-response","371","539775","0.0-1.0-537.0-0.0","0","0","67857","","null","","","null","59","","","","","","","","","","","","","","","",""
"","time_out","","html-keyboard-response","372","541788","0.0-1.0-539.0-0.0","0","0","67857","","null","","","null","59","","","","","","","","","","","","","","","",""
"","ITI","","html-keyboard-response","373","542802","0.0-1.0-540.0","0","0","67857","","null","","","null","59","","","","","","","","","","","","","","","NaN",""
"","S1","","html-keyboard-response","374","543074","0.0-1.0-542.0","0","0","67857","","null","","","null","60","","","","","","","","","","","","","","","",""
"","ISI","","html-keyboard-response","375","545082","0.0-1.0-543.0","0","0","67857","","null","","","null","60","NaN","","","","","","","","","","","","","","",""
"","S2","","html-keyboard-response","376","545346","0.0-1.0-544.0","0","0","67857","","null","","","null","60","","NaN","","","","","","","","","","","","","",""
"","response","","html-keyboard-response","377","545354","0.0-1.0-545.0-0.0","0","0","67857","","1","","","75","60","","","2","60","training","adjacent","DC","4","3","Q.jpg","M.jpg","1","0","0","",""
"","feedback","","html-keyboard-response","378","546362","0.0-1.0-546.0-0.0","0","0","67857","","null","","","null","60","","","","","","","","","","","","","","","",""
"","time_out","","html-keyboard-response","379","548377","0.0-1.0-548.0-0.0","0","0","67857","","null","","","null","60","","","","","","","","","","","","","","","",""
"","ITI","","html-keyboard-response","380","549385","0.0-1.0-549.0","0","0","67857","","null","","","null","60","","","","","","","","","","","","","","","NaN",""
"","S1","","html-keyboard-response","381","549645","0.0-1.0-551.0","0","0","67857","","null","","","null","61","","","","","","","","","","","","","","","",""
"","ISI","","html-keyboard-response","382","551653","0.0-1.0-552.0","0","0","67857","","null","","","null","61","NaN","","","","","","","","","","","","","","",""
"","S2","","html-keyboard-response","383","551914","0.0-1.0-553.0","0","0","67857","","null","","","null","61","","NaN","","","","","","","","","","","","","",""
"","response","","html-keyboard-response","384","551930","0.0-1.0-554.0-0.0","0","0","67857","","10","","","75","61","","","2","61","training","adjacent","CB","3","2","M.jpg","R.jpg","1","0","0","",""
"","feedback","","html-keyboard-response","385","552947","0.0-1.0-555.0-0.0","0","0","67857","","null","","","null","61","","","","","","","","","","","","","","","",""
"","time_out","","html-keyboard-response","386","554954","0.0-1.0-557.0-0.0","0","0","67857","","null","","","null","61","","","","","","","","","","","","","","","",""
"","ITI","","html-keyboard-response","387","555961","0.0-1.0-558.0","0","0","67857","","null","","","null","61","","","","","","","","","","","","","","","NaN",""
"","S1","","html-keyboard-response","388","556224","0.0-1.0-560.0","0","0","67857","","null","","","null","62","","","","","","","","","","","","","","","",""
"","ISI","","html-keyboard-response","389","558231","0.0-1.0-561.0","0","0","67857","","null","","","null","62","NaN","","","","","","","","","","","","","","",""
"","S2","","html-keyboard-response","390","558473","0.0-1.0-562.0","0","0","67857","","233","","","75","62","","k","2","62","training","adjacent","FE","6","5","L.jpg","N.jpg","1","0","0","",""
"","feedback","","html-keyboard-response","391","559487","0.0-1.0-564.0-0.0","0","0","67857","","null","","","null","62","","","","","","","","","","","","","","","",""
"","time_out","","html-keyboard-response","392","561504","0.0-1.0-566.0-0.0","0","0","67857","","null","","","null","62","","","","","","","","","","","","","","","",""
"","ITI","","html-keyboard-response","393","562514","0.0-1.0-567.0","0","0","67857","","null","","","null","62","","","","","","","","","","","","","","","NaN",""
"","S1","","html-keyboard-response","394","562771","0.0-1.0-569.0","0","0","67857","","null","","","null","63","","","","","","","","","","","","","","","",""
"","ISI","","html-keyboard-response","395","564783","0.0-1.0-570.0","0","0","67857","","null","","","null","63","NaN","","","","","","","","","","","","","","",""
"","S2","","html-keyboard-response","396","565038","0.0-1.0-571.0","0","0","67857","","232","","","75","63","","k","2","63","training","adjacent","FE","6","5","L.jpg","N.jpg","1","0","0","",""
"","feedback","","html-keyboard-response","397","566046","0.0-1.0-573.0-0.0","0","0","67857","","null","","","null","63","","","","","","","","","","","","","","","",""
"","time_out","","html-keyboard-response","398","568054","0.0-1.0-575.0-0.0","0","0","67857","","null","","","null","63","","","","","","","","","","","","","","","",""
"","ITI","","html-keyboard-response","399","569064","0.0-1.0-576.0","0","0","67857","","null","","","null","63","","","","","","","","","","","","","","","NaN",""
"","S1","","html-keyboard-response","400","569322","0.0-1.0-578.0","0","0","67857","","null","","","null","64","","","","","","","","","","","","","","","",""
"","ISI","","html-keyboard-response","401","571334","0.0-1.0-579.0","0","0","67857","","null","","","null","64","NaN","","","","","","","","","","","","","","",""
"","S2","","html-keyboard-response","402","571574","0.0-1.0-580.0","0","0","67857","","226","","","68","64","","d","2","64","training","adjacent","EF","5","6","N.jpg","L.jpg","0","1","0","",""
"","feedback","","html-keyboard-response","403","572593","0.0-1.0-582.0-0.0","0","0","67857","","null","","","null","64","","","","","","","","","","","","","","","",""
"","time_out","","html-keyboard-response","404","574609","0.0-1.0-584.0-0.0","0","0","67857","","null","","","null","64","","","","","","","","","","","","","","","",""
"","ITI","","html-keyboard-response","405","575620","0.0-1.0-585.0","0","0","67857","","null","","","null","64","","","","","","","","","","","","","","","NaN",""
"","S1","","html-keyboard-response","406","575878","0.0-1.0-587.0","0","0","67857","","null","","","null","65","","","","","","","","","","","","","","","",""
"","ISI","","html-keyboard-response","407","577890","0.0-1.0-588.0","0","0","67857","","null","","","null","65","NaN","","","","","","","","","","","","","","",""
"","S2","","html-keyboard-response","408","578151","0.0-1.0-589.0","0","0","67857","","null","","","null","65","","NaN","","","","","","","","","","","","","",""
"","response","","html-keyboard-response","409","578187","0.0-1.0-590.0-0.0","0","0","67857","","28","","","68","65","","","2","65","training","adjacent","DE","4","5","Q.jpg","N.jpg","0","1","0","",""
"","feedback","","html-keyboard-response","410","579207","0.0-1.0-591.0-0.0","0","0","67857","","null","","","null","65","","","","","","","","","","","","","","","",""
"","time_out","","html-keyboard-response","411","581218","0.0-1.0-593.0-0.0","0","0","67857","","null","","","null","65","","","","","","","","","","","","","","","",""
"","ITI","","html-keyboard-response","412","582230","0.0-1.0-594.0","0","0","67857","","null","","","null","65","","","","","","","","","","","","","","","NaN",""
"","S1","","html-keyboard-response","413","582492","0.0-1.0-596.0","0","0","67857","","null","","","null","66","","","","","","","","","","","","","","","",""
"","ISI","","html-keyboard-response","414","584499","0.0-1.0-597.0","0","0","67857","","null","","","null","66","NaN","","","","","","","","","","","","","","",""
"","S2","","html-keyboard-response","415","584765","0.0-1.0-598.0","0","0","67857","","null","","","null","66","","NaN","","","","","","","","","","","","","",""
"","response","","html-keyboard-response","416","584958","0.0-1.0-599.0-0.0","0","0","67857","","186","","","68","66","","","2","66","training","adjacent","CB","3","2","M.jpg","R.jpg","0","0","1","",""
"","feedback","","html-keyboard-response","417","585973","0.0-1.0-600.0-0.0","0","0","67857","","null","","","null","66","","","","","","","","","","","","","","","",""
"","ITI","","html-keyboard-response","418","586988","0.0-1.0-603.0","0","0","67857","","null","","","null","66","","","","","","","","","","","","","","","NaN",""
"","S1","","html-keyboard-response","419","587248","0.0-1.0-605.0","0","0","67857","","null","","","null","67","","","","","","","","","","","","","","","",""
"","ISI","","html-keyboard-response","420","589256","0.0-1.0-606.0","0","0","67857","","null","","","null","67","NaN","","","","","","","","","","","","","","",""
"","S2","","html-keyboard-response","421","589518","0.0-1.0-607.0","0","0","67857","","null","","","null","67","","NaN","","","","","","","","","","","","","",""
"","response","","html-keyboard-response","422","589662","0.0-1.0-608.0-0.0","0","0","67857","","119","","","68","67","","","2","67","training","adjacent","AB","1","2","O.jpg","R.jpg","0","1","0","",""
"","feedback","","html-keyboard-response","423","590671","0.0-1.0-609.0-0.0","0","0","67857","","null","","","null","67","","","","","","","","","","","","","","","",""
"","time_out","","html-keyboard-response","424","592679","0.0-1.0-611.0-0.0","0","0","67857","","null","","","null","67","","","","","","","","","","","","","","","",""
"","ITI","","html-keyboard-response","425","593687","0.0-1.0-612.0","0","0","67857","","null","","","null","67","","","","","","","","","","","","","","","NaN",""
"","S1","","html-keyboard-response","426","593952","0.0-1.0-614.0","0","0","67857","","null","","","null","68","","","","","","","","","","","","","","","",""
"","ISI","","html-keyboard-response","427","595961","0.0-1.0-615.0","0","0","67857","","null","","","null","68","NaN","","","","","","","","","","","","","","",""
"","S2","","html-keyboard-response","428","596208","0.0-1.0-616.0","0","0","67857","","238","","","68","68","","d","2","68","training","adjacent","BA","2","1","R.jpg","O.jpg","0","0","1","",""
"","feedback","","html-keyboard-response","429","597238","0.0-1.0-618.0-0.0","0","0","67857","","null","","","null","68","","","","","","","","","","","","","","","",""
"","ITI","","html-keyboard-response","430","598246","0.0-1.0-621.0","0","0","67857","","null","","","null","68","","","","","","","","","","","","","","","NaN",""
"","S1","","html-keyboard-response","431","598506","0.0-1.0-623.0","0","0","67857","","null","","","null","69","","","","","","","","","","","","","","","",""
"","ISI","","html-keyboard-response","432","600513","0.0-1.0-624.0","0","0","67857","","null","","","null","69","NaN","","","","","","","","","","","","","","",""
"","S2","","html-keyboard-response","433","600757","0.0-1.0-625.0","0","0","67857","","228","","","75","69","","k","2","69","training","adjacent","GF","7","6","P.jpg","L.jpg","1","0","0","",""
"","feedback","","html-keyboard-response","434","601765","0.0-1.0-627.0-0.0","0","0","67857","","null","","","null","69","","","","","","","","","","","","","","","",""
"","time_out","","html-keyboard-response","435","603772","0.0-1.0-629.0-0.0","0","0","67857","","null","","","null","69","","","","","","","","","","","","","","","",""
"","ITI","","html-keyboard-response","436","604779","0.0-1.0-630.0","0","0","67857","","null","","","null","69","","","","","","","","","","","","","","","NaN",""
"","S1","","html-keyboard-response","437","605043","0.0-1.0-632.0","0","0","67857","","null","","","null","70","","","","","","","","","","","","","","","",""
"","ISI","","html-keyboard-response","438","607057","0.0-1.0-633.0","0","0","67857","","null","","","null","70","NaN","","","","","","","","","","","","","","",""
"","S2","","html-keyboard-response","439","607316","0.0-1.0-634.0","0","0","67857","","null","","","null","70","","NaN","","","","","","","","","","","","","",""
"","response","","html-keyboard-response","440","607434","0.0-1.0-635.0-0.0","0","0","67857","","105","","","68","70","","","2","70","training","adjacent","FE","6","5","L.jpg","N.jpg","0","0","1","",""
"","feedback","","html-keyboard-response","441","608444","0.0-1.0-636.0-0.0","0","0","67857","","null","","","null","70","","","","","","","","","","","","","","","",""
"","ITI","","html-keyboard-response","442","609457","0.0-1.0-639.0","0","0","67857","","null","","","null","70","","","","","","","","","","","","","","","NaN",""
"","S1","","html-keyboard-response","443","609717","0.0-1.0-641.0","0","0","67857","","null","","","null","71","","","","","","","","","","","","","","","",""
"","ISI","","html-keyboard-response","444","611725","0.0-1.0-642.0","0","0","67857","","null","","","null","71","NaN","","","","","","","","","","","","","","",""
"","S2","","html-keyboard-response","445","611989","0.0-1.0-643.0","0","0","67857","","null","","","null","71","","NaN","","","","","","","","","","","","","",""
"","response","","html-keyboard-response","446","612291","0.0-1.0-644.0-0.0","0","0","67857","","294","","","75","71","","","2","71","training","adjacent","BC","2","3","R.jpg","M.jpg","1","1","1","",""
"","feedback","","html-keyboard-response","447","613299","0.0-1.0-645.0-0.0","0","0","67857","","null","","","null","71","","","","","","","","","","","","","","","",""
"","ITI","","html-keyboard-response","448","614307","0.0-1.0-648.0","0","0","67857","","null","","","null","71","","","","","","","","","","","","","","","NaN",""
"","S1","","html-keyboard-response","449","614565","0.0-1.0-650.0","0","0","67857","","null","","","null","72","","","","","","","","","","","","","","","",""
"","ISI","","html-keyboard-response","450","616573","0.0-1.0-651.0","0","0","67857","","null","","","null","72","NaN","","","","","","","","","","","","","","",""
"","S2","","html-keyboard-response","451","616832","0.0-1.0-652.0","0","0","67857","","null","","","null","72","","NaN","","","","","","","","","","","","","",""
"","response","","html-keyboard-response","452","617085","0.0-1.0-653.0-0.0","0","0","67857","","242","","","68","72","","","2","72","training","adjacent","AB","1","2","O.jpg","R.jpg","0","1","0","",""
"","feedback","","html-keyboard-response","453","618096","0.0-1.0-654.0-0.0","0","0","67857","","null","","","null","72","","","","","","","","","","","","","","","",""
"","time_out","","html-keyboard-response","454","620107","0.0-1.0-656.0-0.0","0","0","67857","","null","","","null","72","","","","","","","","","","","","","","","",""
"","ITI","","html-keyboard-response","455","621115","0.0-1.0-657.0","0","0","67857","","null","","","null","72","","","","","","","","","","","","","","","NaN",""
"","S1","","html-keyboard-response","456","621372","0.0-1.0-659.0","0","0","67857","","null","","","null","73","","","","","","","","","","","","","","","",""
"","ISI","","html-keyboard-response","457","623379","0.0-1.0-660.0","0","0","67857","","null","","","null","73","NaN","","","","","","","","","","","","","","",""
"","S2","","html-keyboard-response","458","623644","0.0-1.0-661.0","0","0","67857","","null","","","null","73","","NaN","","","","","","","","","","","","","",""
"","response","","html-keyboard-response","459","623883","0.0-1.0-662.0-0.0","0","0","67857","","230","","","75","73","","","2","73","training","adjacent","BC","2","3","R.jpg","M.jpg","1","1","1","",""
"","feedback","","html-keyboard-response","460","624893","0.0-1.0-663.0-0.0","0","0","67857","","null","","","null","73","","","","","","","","","","","","","","","",""
"","ITI","","html-keyboard-response","461","625902","0.0-1.0-666.0","0","0","67857","","null","","","null","73","","","","","","","","","","","","","","","NaN",""
"","S1","","html-keyboard-response","462","626164","0.0-1.0-668.0","0","0","67857","","null","","","null","74","","","","","","","","","","","","","","","",""
"","ISI","","html-keyboard-response","463","628174","0.0-1.0-669.0","0","0","67857","","null","","","null","74","NaN","","","","","","","","","","","","","","",""
"","S2","","html-keyboard-response","464","628432","0.0-1.0-670.0","0","0","67857","","null","","","null","74","","NaN","","","","","","","","","","","","","",""
"","response","","html-keyboard-response","465","628628","0.0-1.0-671.0-0.0","0","0","67857","","182","","","68","74","","","2","74","training","adjacent","DE","4","5","Q.jpg","N.jpg","0","1","0","",""
"","feedback","","html-keyboard-response","466","629655","0.0-1.0-672.0-0.0","0","0","67857","","null","","","null","74","","","","","","","","","","","","","","","",""
"","time_out","","html-keyboard-response","467","631662","0.0-1.0-674.0-0.0","0","0","67857","","null","","","null","74","","","","","","","","","","","","","","","",""
"","ITI","","html-keyboard-response","468","632669","0.0-1.0-675.0","0","0","67857","","null","","","null","74","","","","","","","","","","","","","","","NaN",""
"","S1","","html-keyboard-response","469","632940","0.0-1.0-677.0","0","0","67857","","null","","","null","75","","","","","","","","","","","","","","","",""
"","ISI","","html-keyboard-response","470","634949","0.0-1.0-678.0","0","0","67857","","null","","","null","75","NaN","","","","","","","","","","","","","","",""
"","S2","","html-keyboard-response","471","635208","0.0-1.0-679.0","0","0","67857","","null","","","null","75","","NaN","","","","","","","","","","","","","",""
"","response","","html-keyboard-response","472","635452","0.0-1.0-680.0-0.0","0","0","67857","","234","","","75","75","","","2","75","training","adjacent","CB","3","2","M.jpg","R.jpg","1","0","0","",""
"","feedback","","html-keyboard-response","473","636467","0.0-1.0-681.0-0.0","0","0","67857","","null","","","null","75","","","","","","","","","","","","","","","",""
"","time_out","","html-keyboard-response","474","638479","0.0-1.0-683.0-0.0","0","0","67857","","null","","","null","75","","","","","","","","","","","","","","","",""
"","ITI","","html-keyboard-response","475","639489","0.0-1.0-684.0","0","0","67857","","null","","","null","75","","","","","","","","","","","","","","","NaN",""
"","S1","","html-keyboard-response","476","639762","0.0-1.0-686.0","0","0","67857","","null","","","null","76","","","","","","","","","","","","","","","",""
"","ISI","","html-keyboard-response","477","641769","0.0-1.0-687.0","0","0","67857","","null","","","null","76","NaN","","","","","","","","","","","","","","",""
"","S2","","html-keyboard-response","478","642029","0.0-1.0-688.0","0","0","67857","","null","","","null","76","","NaN","","","","","","","","","","","","","",""
"","response","","html-keyboard-response","479","642279","0.0-1.0-689.0-0.0","0","0","67857","","240","","","75","76","","","2","76","training","adjacent","ED","5","4","N.jpg","Q.jpg","1","0","0","",""
"","feedback","","html-keyboard-response","480","643288","0.0-1.0-690.0-0.0","0","0","67857","","null","","","null","76","","","","","","","","","","","","","","","",""
"","time_out","","html-keyboard-response","481","645296","0.0-1.0-692.0-0.0","0","0","67857","","null","","","null","76","","","","","","","","","","","","","","","",""
"","ITI","","html-keyboard-response","482","646316","0.0-1.0-693.0","0","0","67857","","null","","","null","76","","","","","","","","","","","","","","","NaN",""
"","S1","","html-keyboard-response","483","646574","0.0-1.0-695.0","0","0","67857","","null","","","null","77","","","","","","","","","","","","","","","",""
"","ISI","","html-keyboard-response","484","648583","0.0-1.0-696.0","0","0","67857","","null","","","null","77","NaN","","","","","","","","","","","","","","",""
"","S2","","html-keyboard-response","485","648846","0.0-1.0-697.0","0","0","67857","","null","","","null","77","","NaN","","","","","","","","","","","","","",""
"","response","","html-keyboard-response","486","649052","0.0-1.0-698.0-0.0","0","0","67857","","196","","","75","77","","","2","77","training","adjacent","FG","6","7","L.jpg","P.jpg","1","1","1","",""
"","feedback","","html-keyboard-response","487","650063","0.0-1.0-699.0-0.0","0","0","67857","","null","","","null","77","","","","","","","","","","","","","","","",""
"","ITI","","html-keyboard-response","488","651072","0.0-1.0-702.0","0","0","67857","","null","","","null","77","","","","","","","","","","","","","","","NaN",""
"","S1","","html-keyboard-response","489","651338","0.0-1.0-704.0","0","0","67857","","null","","","null","78","","","","","","","","","","","","","","","",""
"","ISI","","html-keyboard-response","490","653353","0.0-1.0-705.0","0","0","67857","","null","","","null","78","NaN","","","","","","","","","","","","","","",""
"","S2","","html-keyboard-response","491","653612","0.0-1.0-706.0","0","0","67857","","null","","","null","78","","NaN","","","","","","","","","","","","","",""
"","response","","html-keyboard-response","492","653726","0.0-1.0-707.0-0.0","0","0","67857","","107","","","68","78","","","2","78","training","adjacent","BA","2","1","R.jpg","O.jpg","0","0","1","",""
"","feedback","","html-keyboard-response","493","654746","0.0-1.0-708.0-0.0","0","0","67857","","null","","","null","78","","","","","","","","","","","","","","","",""
"","ITI","","html-keyboard-response","494","655754","0.0-1.0-711.0","0","0","67857","","null","","","null","78","","","","","","","","","","","","","","","NaN",""
"","S1","","html-keyboard-response","495","656018","0.0-1.0-713.0","0","0","67857","","null","","","null","79","","","","","","","","","","","","","","","",""
"","ISI","","html-keyboard-response","496","658026","0.0-1.0-714.0","0","0","67857","","null","","","null","79","NaN","","","","","","","","","","","","","","",""
"","S2","","html-keyboard-response","497","658289","0.0-1.0-715.0","0","0","67857","","null","","","null","79","","NaN","","","","","","","","","","","","","",""
"","response","","html-keyboard-response","498","658557","0.0-1.0-716.0-0.0","0","0","67857","","250","","","75","79","","","2","79","training","adjacent","DC","4","3","Q.jpg","M.jpg","1","0","0","",""
"","feedback","","html-keyboard-response","499","659575","0.0-1.0-717.0-0.0","0","0","67857","","null","","","null","79","","","","","","","","","","","","","","","",""
"","time_out","","html-keyboard-response","500","661583","0.0-1.0-719.0-0.0","0","0","67857","","null","","","null","79","","","","","","","","","","","","","","","",""
"","ITI","","html-keyboard-response","501","662590","0.0-1.0-720.0","0","0","67857","","null","","","null","79","","","","","","","","","","","","","","","NaN",""
"","S1","","html-keyboard-response","502","662856","0.0-1.0-722.0","0","0","67857","","null","","","null","80","","","","","","","","","","","","","","","",""
"","ISI","","html-keyboard-response","503","664864","0.0-1.0-723.0","0","0","67857","","null","","","null","80","NaN","","","","","","","","","","","","","","",""
"","S2","","html-keyboard-response","504","665148","0.0-1.0-724.0","0","0","67857","","null","","","null","80","","NaN","","","","","","","","","","","","","",""
"","response","","html-keyboard-response","505","665371","0.0-1.0-725.0-0.0","0","0","67857","","216","","","75","80","","","2","80","training","adjacent","EF","5","6","N.jpg","L.jpg","1","1","1","",""
"","feedback","","html-keyboard-response","506","666388","0.0-1.0-726.0-0.0","0","0","67857","","null","","","null","80","","","","","","","","","","","","","","","",""
"","ITI","","html-keyboard-response","507","667398","0.0-1.0-729.0","0","0","67857","","null","","","null","80","","","","","","","","","","","","","","","NaN",""
"","S1","","html-keyboard-response","508","667660","0.0-1.0-731.0","0","0","67857","","null","","","null","81","","","","","","","","","","","","","","","",""
"","ISI","","html-keyboard-response","509","669669","0.0-1.0-732.0","0","0","67857","","null","","","null","81","NaN","","","","","","","","","","","","","","",""
"","S2","","html-keyboard-response","510","669926","0.0-1.0-733.0","0","0","67857","","240","","","68","81","","d","2","81","training","adjacent","EF","5","6","N.jpg","L.jpg","0","1","0","",""
"","feedback","","html-keyboard-response","511","670940","0.0-1.0-735.0-0.0","0","0","67857","","null","","","null","81","","","","","","","","","","","","","","","",""
"","time_out","","html-keyboard-response","512","672950","0.0-1.0-737.0-0.0","0","0","67857","","null","","","null","81","","","","","","","","","","","","","","","",""
"","ITI","","html-keyboard-response","513","673959","0.0-1.0-738.0","0","0","67857","","null","","","null","81","","","","","","","","","","","","","","","NaN",""
"","S1","","html-keyboard-response","514","674218","0.0-1.0-740.0","0","0","67857","","null","","","null","82","","","","","","","","","","","","","","","",""
"","ISI","","html-keyboard-response","515","676226","0.0-1.0-741.0","0","0","67857","","null","","","null","82","NaN","","","","","","","","","","","","","","",""
"","S2","","html-keyboard-response","516","676469","0.0-1.0-742.0","0","0","67857","","233","","","75","82","","k","2","82","training","adjacent","ED","5","4","N.jpg","Q.jpg","1","0","0","",""
"","feedback","","html-keyboard-response","517","677492","0.0-1.0-744.0-0.0","0","0","67857","","null","","","null","82","","","","","","","","","","","","","","","",""
"","time_out","","html-keyboard-response","518","679507","0.0-1.0-746.0-0.0","0","0","67857","","null","","","null","82","","","","","","","","","","","","","","","",""
"","ITI","","html-keyboard-response","519","680518","0.0-1.0-747.0","0","0","67857","","null","","","null","82","","","","","","","","","","","","","","","NaN",""
"","S1","","html-keyboard-response","520","680778","0.0-1.0-749.0","0","0","67857","","null","","","null","83","","","","","","","","","","","","","","","",""
"","ISI","","html-keyboard-response","521","682787","0.0-1.0-750.0","0","0","67857","","null","","","null","83","NaN","","","","","","","","","","","","","","",""
"","S2","","html-keyboard-response","522","683028","0.0-1.0-751.0","0","0","67857","","231","","","68","83","","d","2","83","training","adjacent","DE","4","5","Q.jpg","N.jpg","0","1","0","",""
"","feedback","","html-keyboard-response","523","684037","0.0-1.0-753.0-0.0","0","0","67857","","null","","","null","83","","","","","","","","","","","","","","","",""
"","time_out","","html-keyboard-response","524","686051","0.0-1.0-755.0-0.0","0","0","67857","","null","","","null","83","","","","","","","","","","","","","","","",""
"","ITI","","html-keyboard-response","525","687063","0.0-1.0-756.0","0","0","67857","","null","","","null","83","","","","","","","","","","","","","","","NaN",""
"","S1","","html-keyboard-response","526","687323","0.0-1.0-758.0","0","0","67857","","null","","","null","84","","","","","","","","","","","","","","","",""
"","ISI","","html-keyboard-response","527","689332","0.0-1.0-759.0","0","0","67857","","null","","","null","84","NaN","","","","","","","","","","","","","","",""
"","S2","","html-keyboard-response","528","689592","0.0-1.0-760.0","0","0","67857","","null","","","null","84","","NaN","","","","","","","","","","","","","",""
"","response","","html-keyboard-response","529","689821","0.0-1.0-761.0-0.0","0","0","67857","","218","","","68","84","","","2","84","training","adjacent","BA","2","1","R.jpg","O.jpg","0","0","1","",""
"","feedback","","html-keyboard-response","530","690834","0.0-1.0-762.0-0.0","0","0","67857","","null","","","null","84","","","","","","","","","","","","","","","",""
"","ITI","","html-keyboard-response","531","691843","0.0-1.0-765.0","0","0","67857","","null","","","null","84","","","","","","","","","","","","","","","NaN",""
"","S1","","html-keyboard-response","532","692107","0.0-1.0-767.0","0","0","67857","","null","","","null","85","","","","","","","","","","","","","","","",""
"","ISI","","html-keyboard-response","533","694114","0.0-1.0-768.0","0","0","67857","","null","","","null","85","NaN","","","","","","","","","","","","","","",""
"","S2","","html-keyboard-response","534","694378","0.0-1.0-769.0","0","0","67857","","null","","","null","85","","NaN","","","","","","","","","","","","","",""
"","response","","html-keyboard-response","535","694411","0.0-1.0-770.0-0.0","0","0","67857","","25","","","75","85","","","2","85","training","adjacent","FG","6","7","L.jpg","P.jpg","1","1","1","",""
"","feedback","","html-keyboard-response","536","695421","0.0-1.0-771.0-0.0","0","0","67857","","null","","","null","85","","","","","","","","","","","","","","","",""
"","ITI","","html-keyboard-response","537","696432","0.0-1.0-774.0","0","0","67857","","null","","","null","85","","","","","","","","","","","","","","","NaN",""
"","S1","","html-keyboard-response","538","696692","0.0-1.0-776.0","0","0","67857","","null","","","null","86","","","","","","","","","","","","","","","",""
"","ISI","","html-keyboard-response","539","698700","0.0-1.0-777.0","0","0","67857","","null","","","null","86","NaN","","","","","","","","","","","","","","",""
"","S2","","html-keyboard-response","540","698944","0.0-1.0-778.0","0","0","67857","","230","","","75","86","","k","2","86","training","adjacent","FE","6","5","L.jpg","N.jpg","1","0","0","",""
"","feedback","","html-keyboard-response","541","699952","0.0-1.0-780.0-0.0","0","0","67857","","null","","","null","86","","","","","","","","","","","","","","","",""
"","time_out","","html-keyboard-response","542","701960","0.0-1.0-782.0-0.0","0","0","67857","","null","","","null","86","","","","","","","","","","","","","","","",""
"","ITI","","html-keyboard-response","543","702968","0.0-1.0-783.0","0","0","67857","","null","","","null","86","","","","","","","","","","","","","","","NaN",""
"","S1","","html-keyboard-response","544","703228","0.0-1.0-785.0","0","0","67857","","null","","","null","87","","","","","","","","","","","","","","","",""
"","ISI","","html-keyboard-response","545","705236","0.0-1.0-786.0","0","0","67857","","null","","","null","87","NaN","","","","","","","","","","","","","","",""
"","S2","","html-keyboard-response","546","705501","0.0-1.0-787.0","0","0","67857","","null","","","null","87","","NaN","","","","","","","","","","","","","",""
"","response","","html-keyboard-response","547","705616","0.0-1.0-788.0-0.0","0","0","67857","","104","","","68","87","","","2","87","training","adjacent","CD","3","4","M.jpg","Q.jpg","0","1","0","",""
"","feedback","","html-keyboard-response","548","706625","0.0-1.0-789.0-0.0","0","0","67857","","null","","","null","87","","","","","","","","","","","","","","","",""
"","time_out","","html-keyboard-response","549","708644","0.0-1.0-791.0-0.0","0","0","67857","","null","","","null","87","","","","","","","","","","","","","","","",""
"","ITI","","html-keyboard-response","550","709658","0.0-1.0-792.0","0","0","67857","","null","","","null","87","","","","","","","","","","","","","","","NaN",""
"","S1","","html-keyboard-response","551","709933","0.0-1.0-794.0","0","0","67857","","null","","","null","88","","","","","","","","","","","","","","","",""
"","ISI","","html-keyboard-response","552","711949","0.0-1.0-795.0","0","0","67857","","null","","","null","88","NaN","","","","","","","","","","","","","","",""
"","S2","","html-keyboard-response","553","712221","0.0-1.0-796.0","0","0","67857","","null","","","null","88","","NaN","","","","","","","","","","","","","",""
"","response","","html-keyboard-response","554","712506","0.0-1.0-797.0-0.0","0","0","67857","","267","","","68","88","","","2","88","training","adjacent","CD","3","4","M.jpg","Q.jpg","0","1","0","",""
"","feedback","","html-keyboard-response","555","713530","0.0-1.0-798.0-0.0","0","0","67857","","null","","","null","88","","","","","","","","","","","","","","","",""
"","time_out","","html-keyboard-response","556","715548","0.0-1.0-800.0-0.0","0","0","67857","","null","","","null","88","","","","","","","","","","","","","","","",""
"","ITI","","html-keyboard-response","557","716565","0.0-1.0-801.0","0","0","67857","","null","","","null","88","","","","","","","","","","","","","","","NaN",""
"","S1","","html-keyboard-response","558","716826","0.0-1.0-803.0","0","0","67857","","null","","","null","89","","","","","","","","","","","","","","","",""
"","ISI","","html-keyboard-response","559","718840","0.0-1.0-804.0","0","0","67857","","null","","","null","89","NaN","","","","","","","","","","","","","","",""
"","S2","","html-keyboard-response","560","719118","0.0-1.0-805.0","0","0","67857","","null","","","null","89","","NaN","","","","","","","","","","","","","",""
"","response","","html-keyboard-response","561","719302","0.0-1.0-806.0-0.0","0","0","67857","","176","","","68","89","","","2","89","training","adjacent","AB","1","2","O.jpg","R.jpg","0","1","0","",""
"","feedback","","html-keyboard-response","562","720310","0.0-1.0-807.0-0.0","0","0","67857","","null","","","null","89","","","","","","","","","","","","","","","",""
"","time_out","","html-keyboard-response","563","722326","0.0-1.0-809.0-0.0","0","0","67857","","null","","","null","89","","","","","","","","","","","","","","","",""
"","ITI","","html-keyboard-response","564","723339","0.0-1.0-810.0","0","0","67857","","null","","","null","89","","","","","","","","","","","","","","","NaN",""
"","S1","","html-keyboard-response","565","723600","0.0-1.0-812.0","0","0","67857","","null","","","null","90","","","","","","","","","","","","","","","",""
"","ISI","","html-keyboard-response","566","725608","0.0-1.0-813.0","0","0","67857","","null","","","null","90","NaN","","","","","","","","","","","","","","",""
"","S2","","html-keyboard-response","567","725868","0.0-1.0-814.0","0","0","67857","","null","","","null","90","","NaN","","","","","","","","","","","","","",""
"","response","","html-keyboard-response","568","725976","0.0-1.0-815.0-0.0","0","0","67857","","96","","","75","90","","","2","90","training","adjacent","ED","5","4","N.jpg","Q.jpg","1","0","0","",""
"","feedback","","html-keyboard-response","569","726987","0.0-1.0-816.0-0.0","0","0","67857","","null","","","null","90","","","","","","","","","","","","","","","",""
"","time_out","","html-keyboard-response","570","728995","0.0-1.0-818.0-0.0","0","0","67857","","null","","","null","90","","","","","","","","","","","","","","","",""
"","ITI","","html-keyboard-response","571","730016","0.0-1.0-819.0","0","0","67857","","null","","","null","90","","","","","","","","","","","","","","","NaN",""
"","S1","","html-keyboard-response","572","730284","0.0-1.0-821.0","0","0","67857","","null","","","null","91","","","","","","","","","","","","","","","",""
"","ISI","","html-keyboard-response","573","732292","0.0-1.0-822.0","0","0","67857","","null","","","null","91","NaN","","","","","","","","","","","","","","",""
"","S2","","html-keyboard-response","574","732550","0.0-1.0-823.0","0","0","67857","","null","","","null","91","","NaN","","","","","","","","","","","","","",""
"","response","","html-keyboard-response","575","732709","0.0-1.0-824.0-0.0","0","0","67857","","145","","","68","91","","","2","91","training","adjacent","CB","3","2","M.jpg","R.jpg","0","0","1","",""
"","feedback","","html-keyboard-response","576","733720","0.0-1.0-825.0-0.0","0","0","67857","","null","","","null","91","","","","","","","","","","","","","","","",""
"","ITI","","html-keyboard-response","577","734735","0.0-1.0-828.0","0","0","67857","","null","","","null","91","","","","","","","","","","","","","","","NaN",""
"","S1","","html-keyboard-response","578","735004","0.0-1.0-830.0","0","0","67857","","null","","","null","92","","","","","","","","","","","","","","","",""
"","ISI","","html-keyboard-response","579","737012","0.0-1.0-831.0","0","0","67857","","null","","","null","92","NaN","","","","","","","","","","","","","","",""
"","S2","","html-keyboard-response","580","737270","0.0-1.0-832.0","0","0","67857","","null","","","null","92","","NaN","","","","","","","","","","","","","",""
"","response","","html-keyboard-response","581","737366","0.0-1.0-833.0-0.0","0","0","67857","","71","","","75","92","","","2","92","training","adjacent","FG","6","7","L.jpg","P.jpg","1","1","1","",""
"","feedback","","html-keyboard-response","582","738381","0.0-1.0-834.0-0.0","0","0","67857","","null","","","null","92","","","","","","","","","","","","","","","",""
"","ITI","","html-keyboard-response","583","739393","0.0-1.0-837.0","0","0","67857","","null","","","null","92","","","","","","","","","","","","","","","NaN",""
