"success","ttype","start_time","trial_type","trial_index","time_elapsed","internal_node_id","warning","missed_checkup","PID","view_history","rt","responses","repeat_instructions","key_press","index","keypress_isi","keypress_S2","block","trial_num","phase","group_type","pair_type","S1_stim","S2_stim","S1_img","S2_img","S1_chosen","S1_higher","accuracy","keypress_iti","total_bonus_tally"
"true","full_screen","d03072023hr1801","fullscreen","0","11736","0.0-0.0","0","0","97216","","","","","","","","","","","","","","","","","","","","","",""
"","instructions","","instructions","1","55378","0.0-1.0-0.0-0.0","0","0","97216","[{""page_index"":0,""viewing_time"":3843},{""page_index"":1,""viewing_time"":23734},{""page_index"":2,""viewing_time"":14145},{""page_index"":3,""viewing_time"":1918}]","43641","","","","","","","","","","","","","","","","","","","",""
"","comprehension_check","","survey-multi-choice","2","77275","0.0-1.0-0.0-1.0","0","0","97216","","21894","{""Q0"":""True"",""Q1"":""D"",""Q2"":""Only when the screen 'MAKE A CHOICE' is shown"",""Q3"":""Green mark"",""Q4"":""either D or K""}","1","","","","","","","","","","","","","","","","","",""
"","missed_instruction_checkup","","html-keyboard-response","3","79108","0.0-1.0-0.0-2.0-0.0","0","1","97216","","1830","","","32","","","","","","","","","","","","","","","","",""
"","instructions","","instructions","4","100085","0.0-1.0-0.1-0.1","0","0","97216","[{""page_index"":0,""viewing_time"":3406},{""page_index"":1,""viewing_time"":11434},{""page_index"":2,""viewing_time"":4996},{""page_index"":3,""viewing_time"":1140}]","20976","","","","","","","","","","","","","","","","","","","",""
"","comprehension_check","","survey-multi-choice","5","113623","0.0-1.0-0.1-1.1","0","0","97216","","13537","{""Q0"":""True"",""Q1"":""D"",""Q2"":""Once the second image appears and while the screen 'MAKE A CHOICE' is shown"",""Q3"":""Green mark"",""Q4"":""either D or K""}","0","","","","","","","","","","","","","","","","","",""
"","start_exp","","html-keyboard-response","6","117000","0.0-1.0-1.0","0","0","97216","","3374","","","32","","","","","","","","","","","","","","","","",""
"","S1","","html-keyboard-response","7","117252","0.0-1.0-2.0","0","0","97216","","null","","","null","0","","","","","","","","","","","","","","","",""
"","ISI","","html-keyboard-response","8","118254","0.0-1.0-3.0","0","0","97216","","null","","","null","0","NaN","","","","","","","","","","","","","","",""
"","S2","","html-keyboard-response","9","118506","0.0-1.0-4.0","0","0","97216","","null","","","null","0","","NaN","","","","","","","","","","","","","",""
"","response","","html-keyboard-response","10","119282","0.0-1.0-5.0-0.0","0","0","97216","","776","","","68","0","","","1","0","training","adjacent","CD","3","4","O.jpg","M.jpg","1","1","1","",""
"","feedback","","html-keyboard-response","11","120285","0.0-1.0-6.0-0.0","0","0","97216","","null","","","null","0","","","","","","","","","","","","","","","",""
"","ITI","","html-keyboard-response","12","121286","0.0-1.0-9.0","0","0","97216","","null","","","null","0","","","","","","","","","","","","","","","NaN",""
"","S1","","html-keyboard-response","13","121538","0.0-1.0-11.0","0","0","97216","","null","","","null","1","","","","","","","","","","","","","","","",""
"","ISI","","html-keyboard-response","14","122540","0.0-1.0-12.0","0","0","97216","","null","","","null","1","NaN","","","","","","","","","","","","","","",""
"","S2","","html-keyboard-response","15","122791","0.0-1.0-13.0","0","0","97216","","null","","","null","1","","NaN","","","","","","","","","","","","","",""
"","response","","html-keyboard-response","16","123275","0.0-1.0-14.0-0.0","0","0","97216","","484","","","68","1","","","1","1","training","adjacent","EF","5","6","P.jpg","Q.jpg","1","1","1","",""
"","feedback","","html-keyboard-response","17","124277","0.0-1.0-15.0-0.0","0","0","97216","","null","","","null","1","","","","","","","","","","","","","","","",""
"","ITI","","html-keyboard-response","18","125278","0.0-1.0-18.0","0","0","97216","","null","","","null","1","","","","","","","","","","","","","","","NaN",""
"","S1","","html-keyboard-response","19","125530","0.0-1.0-20.0","0","0","97216","","null","","","null","2","","","","","","","","","","","","","","","",""
"","ISI","","html-keyboard-response","20","126532","0.0-1.0-21.0","0","0","97216","","null","","","null","2","NaN","","","","","","","","","","","","","","",""
"","S2","","html-keyboard-response","21","126784","0.0-1.0-22.0","0","0","97216","","null","","","null","2","","NaN","","","","","","","","","","","","","",""
"","response","","html-keyboard-response","22","127191","0.0-1.0-23.0-0.0","0","0","97216","","406","","","68","2","","","1","2","training","adjacent","BC","2","3","R.jpg","O.jpg","1","1","1","",""
"","feedback","","html-keyboard-response","23","128193","0.0-1.0-24.0-0.0","0","0","97216","","null","","","null","2","","","","","","","","","","","","","","","",""
"","ITI","","html-keyboard-response","24","129195","0.0-1.0-27.0","0","0","97216","","null","","","null","2","","","","","","","","","","","","","","","NaN",""
"","S1","","html-keyboard-response","25","129447","0.0-1.0-29.0","0","0","97216","","null","","","null","3","","","","","","","","","","","","","","","",""
"","ISI","","html-keyboard-response","26","130449","0.0-1.0-30.0","0","0","97216","","null","","","null","3","NaN","","","","","","","","","","","","","","",""
"","S2","","html-keyboard-response","27","130701","0.0-1.0-31.0","0","0","97216","","null","","","null","3","","NaN","","","","","","","","","","","","","",""
"","response","","html-keyboard-response","28","131163","0.0-1.0-32.0-0.0","0","0","97216","","461","","","68","3","","","1","3","training","adjacent","DE","4","5","M.jpg","P.jpg","1","1","1","",""
"","feedback","","html-keyboard-response","29","132164","0.0-1.0-33.0-0.0","0","0","97216","","null","","","null","3","","","","","","","","","","","","","","","",""
"","ITI","","html-keyboard-response","30","133165","0.0-1.0-36.0","0","0","97216","","null","","","null","3","","","","","","","","","","","","","","","NaN",""
"","S1","","html-keyboard-response","31","133417","0.0-1.0-38.0","0","0","97216","","null","","","null","4","","","","","","","","","","","","","","","",""
"","ISI","","html-keyboard-response","32","134419","0.0-1.0-39.0","0","0","97216","","null","","","null","4","NaN","","","","","","","","","","","","","","",""
"","S2","","html-keyboard-response","33","134671","0.0-1.0-40.0","0","0","97216","","null","","","null","4","","NaN","","","","","","","","","","","","","",""
"","response","","html-keyboard-response","34","134954","0.0-1.0-41.0-0.0","0","0","97216","","282","","","68","4","","","1","4","training","adjacent","DC","4","3","M.jpg","O.jpg","1","0","0","",""
"","feedback","","html-keyboard-response","35","135969","0.0-1.0-42.0-0.0","0","0","97216","","null","","","null","4","","","","","","","","","","","","","","","",""
"","time_out","","html-keyboard-response","36","137970","0.0-1.0-44.0-0.0","0","0","97216","","null","","","null","4","","","","","","","","","","","","","","","",""
"","ITI","","html-keyboard-response","37","138972","0.0-1.0-45.0","0","0","97216","","null","","","null","4","","","","","","","","","","","","","","","NaN",""
"","S1","","html-keyboard-response","38","139223","0.0-1.0-47.0","0","0","97216","","null","","","null","5","","","","","","","","","","","","","","","",""
"","ISI","","html-keyboard-response","39","140225","0.0-1.0-48.0","0","0","97216","","null","","","null","5","NaN","","","","","","","","","","","","","","",""
"","S2","","html-keyboard-response","40","140477","0.0-1.0-49.0","0","0","97216","","null","","","null","5","","NaN","","","","","","","","","","","","","",""
"","response","","html-keyboard-response","41","140905","0.0-1.0-50.0-0.0","0","0","97216","","427","","","75","5","","","1","5","training","adjacent","CD","3","4","O.jpg","M.jpg","0","1","0","",""
"","feedback","","html-keyboard-response","42","141907","0.0-1.0-51.0-0.0","0","0","97216","","null","","","null","5","","","","","","","","","","","","","","","",""
"","time_out","","html-keyboard-response","43","143909","0.0-1.0-53.0-0.0","0","0","97216","","null","","","null","5","","","","","","","","","","","","","","","",""
"","ITI","","html-keyboard-response","44","144911","0.0-1.0-54.0","0","0","97216","","null","","","null","5","","","","","","","","","","","","","","","NaN",""
"","S1","","html-keyboard-response","45","145162","0.0-1.0-56.0","0","0","97216","","null","","","null","6","","","","","","","","","","","","","","","",""
"","ISI","","html-keyboard-response","46","146165","0.0-1.0-57.0","0","0","97216","","null","","","null","6","NaN","","","","","","","","","","","","","","",""
"","S2","","html-keyboard-response","47","146417","0.0-1.0-58.0","0","0","97216","","null","","","null","6","","NaN","","","","","","","","","","","","","",""
"","response","","html-keyboard-response","48","146832","0.0-1.0-59.0-0.0","0","0","97216","","414","","","68","6","","","1","6","training","adjacent","CB","3","2","O.jpg","R.jpg","1","0","0","",""
"","feedback","","html-keyboard-response","49","147834","0.0-1.0-60.0-0.0","0","0","97216","","null","","","null","6","","","","","","","","","","","","","","","",""
"","time_out","","html-keyboard-response","50","149835","0.0-1.0-62.0-0.0","0","0","97216","","null","","","null","6","","","","","","","","","","","","","","","",""
"","ITI","","html-keyboard-response","51","150836","0.0-1.0-63.0","0","0","97216","","null","","","null","6","","","","","","","","","","","","","","","NaN",""
"","S1","","html-keyboard-response","52","151089","0.0-1.0-65.0","0","0","97216","","null","","","null","7","","","","","","","","","","","","","","","",""
"","ISI","","html-keyboard-response","53","152093","0.0-1.0-66.0","0","0","97216","","null","","","null","7","NaN","","","","","","","","","","","","","","",""
"","S2","","html-keyboard-response","54","152344","0.0-1.0-67.0","0","0","97216","","null","","","null","7","","NaN","","","","","","","","","","","","","",""
"","response","","html-keyboard-response","55","152741","0.0-1.0-68.0-0.0","0","0","97216","","395","","","75","7","","","1","7","training","adjacent","DE","4","5","M.jpg","P.jpg","0","1","0","",""
"","feedback","","html-keyboard-response","56","153742","0.0-1.0-69.0-0.0","0","0","97216","","null","","","null","7","","","","","","","","","","","","","","","",""
"","time_out","","html-keyboard-response","57","155744","0.0-1.0-71.0-0.0","0","0","97216","","null","","","null","7","","","","","","","","","","","","","","","",""
"","ITI","","html-keyboard-response","58","156745","0.0-1.0-72.0","0","0","97216","","null","","","null","7","","","","","","","","","","","","","","","NaN",""
"","S1","","html-keyboard-response","59","156997","0.0-1.0-74.0","0","0","97216","","null","","","null","8","","","","","","","","","","","","","","","",""
"","ISI","","html-keyboard-response","60","157998","0.0-1.0-75.0","0","0","97216","","null","","","null","8","NaN","","","","","","","","","","","","","","",""
"","S2","","html-keyboard-response","61","158250","0.0-1.0-76.0","0","0","97216","","null","","","null","8","","NaN","","","","","","","","","","","","","",""
"","response","","html-keyboard-response","62","158545","0.0-1.0-77.0-0.0","0","0","97216","","294","","","68","8","","","1","8","training","adjacent","BC","2","3","R.jpg","O.jpg","1","1","1","",""
"","feedback","","html-keyboard-response","63","159547","0.0-1.0-78.0-0.0","0","0","97216","","null","","","null","8","","","","","","","","","","","","","","","",""
"","ITI","","html-keyboard-response","64","160548","0.0-1.0-81.0","0","0","97216","","null","","","null","8","","","","","","","","","","","","","","","NaN",""
"","S1","","html-keyboard-response","65","160800","0.0-1.0-83.0","0","0","97216","","null","","","null","9","","","","","","","","","","","","","","","",""
"","ISI","","html-keyboard-response","66","161802","0.0-1.0-84.0","0","0","97216","","null","","","null","9","NaN","","","","","","","","","","","","","","",""
"","S2","","html-keyboard-response","67","162055","0.0-1.0-85.0","0","0","97216","","null","","","null","9","","NaN","","","","","","","","","","","","","",""
"","response","","html-keyboard-response","68","162472","0.0-1.0-86.0-0.0","0","0","97216","","416","","","75","9","","","1","9","training","adjacent","AB","1","2","L.jpg","R.jpg","0","1","0","",""
"","feedback","","html-keyboard-response","69","163474","0.0-1.0-87.0-0.0","0","0","97216","","null","","","null","9","","","","","","","","","","","","","","","",""
"","time_out","","html-keyboard-response","70","165475","0.0-1.0-89.0-0.0","0","0","97216","","null","","","null","9","","","","","","","","","","","","","","","",""
"","ITI","","html-keyboard-response","71","166476","0.0-1.0-90.0","0","0","97216","","null","","","null","9","","","","","","","","","","","","","","","NaN",""
"","S1","","html-keyboard-response","72","166727","0.0-1.0-92.0","0","0","97216","","null","","","null","10","","","","","","","","","","","","","","","",""
"","ISI","","html-keyboard-response","73","167728","0.0-1.0-93.0","0","0","97216","","null","","","null","10","NaN","","","","","","","","","","","","","","",""
"","S2","","html-keyboard-response","74","167981","0.0-1.0-94.0","0","0","97216","","null","","","null","10","","NaN","","","","","","","","","","","","","",""
"","response","","html-keyboard-response","75","168367","0.0-1.0-95.0-0.0","0","0","97216","","385","","","68","10","","","1","10","training","adjacent","GF","7","6","N.jpg","Q.jpg","1","0","0","",""
"","feedback","","html-keyboard-response","76","169369","0.0-1.0-96.0-0.0","0","0","97216","","null","","","null","10","","","","","","","","","","","","","","","",""
"","time_out","","html-keyboard-response","77","171370","0.0-1.0-98.0-0.0","0","0","97216","","null","","","null","10","","","","","","","","","","","","","","","",""
"","ITI","","html-keyboard-response","78","172373","0.0-1.0-99.0","0","0","97216","","null","","","null","10","","","","","","","","","","","","","","","NaN",""
"","S1","","html-keyboard-response","79","172624","0.0-1.0-101.0","0","0","97216","","null","","","null","11","","","","","","","","","","","","","","","",""
"","ISI","","html-keyboard-response","80","173626","0.0-1.0-102.0","0","0","97216","","null","","","null","11","NaN","","","","","","","","","","","","","","",""
"","S2","","html-keyboard-response","81","173878","0.0-1.0-103.0","0","0","97216","","null","","","null","11","","NaN","","","","","","","","","","","","","",""
"","response","","html-keyboard-response","82","174250","0.0-1.0-104.0-0.0","0","0","97216","","372","","","75","11","","","1","11","training","adjacent","FG","6","7","Q.jpg","N.jpg","0","1","0","",""
"","feedback","","html-keyboard-response","83","175252","0.0-1.0-105.0-0.0","0","0","97216","","null","","","null","11","","","","","","","","","","","","","","","",""
"","time_out","","html-keyboard-response","84","177254","0.0-1.0-107.0-0.0","0","0","97216","","null","","","null","11","","","","","","","","","","","","","","","",""
"","ITI","","html-keyboard-response","85","178255","0.0-1.0-108.0","0","0","97216","","null","","","null","11","","","","","","","","","","","","","","","NaN",""
"","S1","","html-keyboard-response","86","178507","0.0-1.0-110.0","0","0","97216","","null","","","null","12","","","","","","","","","","","","","","","",""
"","ISI","","html-keyboard-response","87","179508","0.0-1.0-111.0","0","0","97216","","null","","","null","12","NaN","","","","","","","","","","","","","","",""
"","S2","","html-keyboard-response","88","179760","0.0-1.0-112.0","0","0","97216","","null","","","null","12","","NaN","","","","","","","","","","","","","",""
"","response","","html-keyboard-response","89","180596","0.0-1.0-113.0-0.0","0","0","97216","","835","","","68","12","","","1","12","training","adjacent","EF","5","6","P.jpg","Q.jpg","1","1","1","",""
"","feedback","","html-keyboard-response","90","181598","0.0-1.0-114.0-0.0","0","0","97216","","null","","","null","12","","","","","","","","","","","","","","","",""
"","ITI","","html-keyboard-response","91","182600","0.0-1.0-117.0","0","0","97216","","null","","","null","12","","","","","","","","","","","","","","","NaN",""
"","S1","","html-keyboard-response","92","182852","0.0-1.0-119.0","0","0","97216","","null","","","null","13","","","","","","","","","","","","","","","",""
"","ISI","","html-keyboard-response","93","183854","0.0-1.0-120.0","0","0","97216","","null","","","null","13","NaN","","","","","","","","","","","","","","",""
"","S2","","html-keyboard-response","94","184119","0.0-1.0-121.0","0","0","97216","","null","","","null","13","","NaN","","","","","","","","","","","","","",""
"","response","","html-keyboard-response","95","184386","0.0-1.0-122.0-0.0","0","0","97216","","267","","","68","13","","","1","13","training","adjacent","BC","2","3","R.jpg","O.jpg","1","1","1","",""
"","feedback","","html-keyboard-response","96","185387","0.0-1.0-123.0-0.0","0","0","97216","","null","","","null","13","","","","","","","","","","","","","","","",""
"","ITI","","html-keyboard-response","97","186388","0.0-1.0-126.0","0","0","97216","","null","","","null","13","","","","","","","","","","","","","","","NaN",""
"","S1","","html-keyboard-response","98","186640","0.0-1.0-128.0","0","0","97216","","null","","","null","14","","","","","","","","","","","","","","","",""
"","ISI","","html-keyboard-response","99","187642","0.0-1.0-129.0","0","0","97216","","null","","","null","14","NaN","","","","","","","","","","","","","","",""
"","S2","","html-keyboard-response","100","187894","0.0-1.0-130.0","0","0","97216","","null","","","null","14","","NaN","","","","","","","","","","","","","",""
"","response","","html-keyboard-response","101","188155","0.0-1.0-131.0-0.0","0","0","97216","","260","","","68","14","","","1","14","training","adjacent","EF","5","6","P.jpg","Q.jpg","1","1","1","",""
"","feedback","","html-keyboard-response","102","189156","0.0-1.0-132.0-0.0","0","0","97216","","null","","","null","14","","","","","","","","","","","","","","","",""
"","ITI","","html-keyboard-response","103","190157","0.0-1.0-135.0","0","0","97216","","null","","","null","14","","","","","","","","","","","","","","","NaN",""
"","S1","","html-keyboard-response","104","190409","0.0-1.0-137.0","0","0","97216","","null","","","null","15","","","","","","","","","","","","","","","",""
"","ISI","","html-keyboard-response","105","191410","0.0-1.0-138.0","0","0","97216","","null","","","null","15","NaN","","","","","","","","","","","","","","",""
"","S2","","html-keyboard-response","106","191662","0.0-1.0-139.0","0","0","97216","","null","","","null","15","","NaN","","","","","","","","","","","","","",""
"","response","","html-keyboard-response","107","191946","0.0-1.0-140.0-0.0","0","0","97216","","283","","","75","15","","","1","15","training","adjacent","FG","6","7","Q.jpg","N.jpg","0","1","0","",""
"","feedback","","html-keyboard-response","108","192947","0.0-1.0-141.0-0.0","0","0","97216","","null","","","null","15","","","","","","","","","","","","","","","",""
"","time_out","","html-keyboard-response","109","194949","0.0-1.0-143.0-0.0","0","0","97216","","null","","","null","15","","","","","","","","","","","","","","","",""
"","ITI","","html-keyboard-response","110","195950","0.0-1.0-144.0","0","0","97216","","null","","","null","15","","","","","","","","","","","","","","","NaN",""
"","S1","","html-keyboard-response","111","196201","0.0-1.0-146.0","0","0","97216","","null","","","null","16","","","","","","","","","","","","","","","",""
"","ISI","","html-keyboard-response","112","197203","0.0-1.0-147.0","0","0","97216","","null","","","null","16","NaN","","","","","","","","","","","","","","",""
"","S2","","html-keyboard-response","113","197454","0.0-1.0-148.0","0","0","97216","","null","","","null","16","","NaN","","","","","","","","","","","","","",""
"","response","","html-keyboard-response","114","197784","0.0-1.0-149.0-0.0","0","0","97216","","328","","","68","16","","","1","16","training","adjacent","BA","2","1","R.jpg","L.jpg","1","0","0","",""
"","feedback","","html-keyboard-response","115","198786","0.0-1.0-150.0-0.0","0","0","97216","","null","","","null","16","","","","","","","","","","","","","","","",""
"","time_out","","html-keyboard-response","116","200788","0.0-1.0-152.0-0.0","0","0","97216","","null","","","null","16","","","","","","","","","","","","","","","",""
"","ITI","","html-keyboard-response","117","201789","0.0-1.0-153.0","0","0","97216","","null","","","null","16","","","","","","","","","","","","","","","NaN",""
"","S1","","html-keyboard-response","118","202041","0.0-1.0-155.0","0","0","97216","","null","","","null","17","","","","","","","","","","","","","","","",""
"","ISI","","html-keyboard-response","119","203042","0.0-1.0-156.0","0","0","97216","","null","","","null","17","NaN","","","","","","","","","","","","","","",""
"","S2","","html-keyboard-response","120","203293","0.0-1.0-157.0","0","0","97216","","null","","","null","17","","NaN","","","","","","","","","","","","","",""
"","response","","html-keyboard-response","121","203590","0.0-1.0-158.0-0.0","0","0","97216","","296","","","68","17","","","1","17","training","adjacent","AB","1","2","L.jpg","R.jpg","1","1","1","",""
"","feedback","","html-keyboard-response","122","204592","0.0-1.0-159.0-0.0","0","0","97216","","null","","","null","17","","","","","","","","","","","","","","","",""
"","ITI","","html-keyboard-response","123","205593","0.0-1.0-162.0","0","0","97216","","null","","","null","17","","","","","","","","","","","","","","","NaN",""
"","S1","","html-keyboard-response","124","205846","0.0-1.0-164.0","0","0","97216","","null","","","null","18","","","","","","","","","","","","","","","",""
"","ISI","","html-keyboard-response","125","206849","0.0-1.0-165.0","0","0","97216","","null","","","null","18","NaN","","","","","","","","","","","","","","",""
"","S2","","html-keyboard-response","126","207101","0.0-1.0-166.0","0","0","97216","","null","","","null","18","","NaN","","","","","","","","","","","","","",""
"","response","","html-keyboard-response","127","207481","0.0-1.0-167.0-0.0","0","0","97216","","379","","","68","18","","","1","18","training","adjacent","AB","1","2","L.jpg","R.jpg","1","1","1","",""
"","feedback","","html-keyboard-response","128","208483","0.0-1.0-168.0-0.0","0","0","97216","","null","","","null","18","","","","","","","","","","","","","","","",""
"","ITI","","html-keyboard-response","129","209486","0.0-1.0-171.0","0","0","97216","","null","","","null","18","","","","","","","","","","","","","","","NaN",""
"","S1","","html-keyboard-response","130","209738","0.0-1.0-173.0","0","0","97216","","null","","","null","19","","","","","","","","","","","","","","","",""
"","ISI","","html-keyboard-response","131","210739","0.0-1.0-174.0","0","0","97216","","null","","","null","19","NaN","","","","","","","","","","","","","","",""
"","S2","","html-keyboard-response","132","210991","0.0-1.0-175.0","0","0","97216","","null","","","null","19","","NaN","","","","","","","","","","","","","",""
"","response","","html-keyboard-response","133","211365","0.0-1.0-176.0-0.0","0","0","97216","","372","","","68","19","","","1","19","training","adjacent","GF","7","6","N.jpg","Q.jpg","1","0","0","",""
"","feedback","","html-keyboard-response","134","212368","0.0-1.0-177.0-0.0","0","0","97216","","null","","","null","19","","","","","","","","","","","","","","","",""
"","time_out","","html-keyboard-response","135","214370","0.0-1.0-179.0-0.0","0","0","97216","","null","","","null","19","","","","","","","","","","","","","","","",""
"","ITI","","html-keyboard-response","136","215371","0.0-1.0-180.0","0","0","97216","","null","","","null","19","","","","","","","","","","","","","","","NaN",""
"","S1","","html-keyboard-response","137","215624","0.0-1.0-182.0","0","0","97216","","null","","","null","20","","","","","","","","","","","","","","","",""
"","ISI","","html-keyboard-response","138","216626","0.0-1.0-183.0","0","0","97216","","null","","","null","20","NaN","","","","","","","","","","","","","","",""
"","S2","","html-keyboard-response","139","216878","0.0-1.0-184.0","0","0","97216","","null","","","null","20","","NaN","","","","","","","","","","","","","",""
"","response","","html-keyboard-response","140","217192","0.0-1.0-185.0-0.0","0","0","97216","","314","","","68","20","","","1","20","training","adjacent","CB","3","2","O.jpg","R.jpg","1","0","0","",""
"","feedback","","html-keyboard-response","141","218193","0.0-1.0-186.0-0.0","0","0","97216","","null","","","null","20","","","","","","","","","","","","","","","",""
"","time_out","","html-keyboard-response","142","220194","0.0-1.0-188.0-0.0","0","0","97216","","null","","","null","20","","","","","","","","","","","","","","","",""
"","ITI","","html-keyboard-response","143","221196","0.0-1.0-189.0","0","0","97216","","null","","","null","20","","","","","","","","","","","","","","","NaN",""
"","S1","","html-keyboard-response","144","221450","0.0-1.0-191.0","0","0","97216","","null","","","null","21","","","","","","","","","","","","","","","",""
"","ISI","","html-keyboard-response","145","222452","0.0-1.0-192.0","0","0","97216","","null","","","null","21","NaN","","","","","","","","","","","","","","",""
"","S2","","html-keyboard-response","146","222704","0.0-1.0-193.0","0","0","97216","","null","","","null","21","","NaN","","","","","","","","","","","","","",""
"","response","","html-keyboard-response","147","222772","0.0-1.0-194.0-0.0","0","0","97216","","68","","","75","21","","","1","21","training","adjacent","AB","1","2","L.jpg","R.jpg","0","1","0","",""
"","feedback","","html-keyboard-response","148","223774","0.0-1.0-195.0-0.0","0","0","97216","","null","","","null","21","","","","","","","","","","","","","","","",""
"","time_out","","html-keyboard-response","149","225774","0.0-1.0-197.0-0.0","0","0","97216","","null","","","null","21","","","","","","","","","","","","","","","",""
"","ITI","","html-keyboard-response","150","226776","0.0-1.0-198.0","0","0","97216","","null","","","null","21","","","","","","","","","","","","","","","NaN",""
"","S1","","html-keyboard-response","151","227029","0.0-1.0-200.0","0","0","97216","","null","","","null","22","","","","","","","","","","","","","","","",""
"","ISI","","html-keyboard-response","152","228030","0.0-1.0-201.0","0","0","97216","","null","","","null","22","NaN","","","","","","","","","","","","","","",""
"","S2","","html-keyboard-response","153","228282","0.0-1.0-202.0","0","0","97216","","null","","","null","22","","NaN","","","","","","","","","","","","","",""
"","response","","html-keyboard-response","154","228455","0.0-1.0-203.0-0.0","0","0","97216","","172","","","68","22","","","1","22","training","adjacent","EF","5","6","P.jpg","Q.jpg","1","1","1","",""
"","feedback","","html-keyboard-response","155","229456","0.0-1.0-204.0-0.0","0","0","97216","","null","","","null","22","","","","","","","","","","","","","","","",""
"","ITI","","html-keyboard-response","156","230458","0.0-1.0-207.0","0","0","97216","","null","","","null","22","","","","","","","","","","","","","","","NaN",""
"","S1","","html-keyboard-response","157","230710","0.0-1.0-209.0","0","0","97216","","null","","","null","23","","","","","","","","","","","","","","","",""
"","ISI","","html-keyboard-response","158","231711","0.0-1.0-210.0","0","0","97216","","null","","","null","23","NaN","","","","","","","","","","","","","","",""
"","S2","","html-keyboard-response","159","231964","0.0-1.0-211.0","0","0","97216","","null","","","null","23","","NaN","","","","","","","","","","","","","",""
"","response","","html-keyboard-response","160","232257","0.0-1.0-212.0-0.0","0","0","97216","","292","","","75","23","","","1","23","training","adjacent","FE","6","5","Q.jpg","P.jpg","0","0","1","",""
"","feedback","","html-keyboard-response","161","233259","0.0-1.0-213.0-0.0","0","0","97216","","null","","","null","23","","","","","","","","","","","","","","","",""
"","ITI","","html-keyboard-response","162","234261","0.0-1.0-216.0","0","0","97216","","null","","","null","23","","","","","","","","","","","","","","","NaN",""
"","S1","","html-keyboard-response","163","234512","0.0-1.0-218.0","0","0","97216","","null","","","null","24","","","","","","","","","","","","","","","",""
"","ISI","","html-keyboard-response","164","235514","0.0-1.0-219.0","0","0","97216","","null","","","null","24","NaN","","","","","","","","","","","","","","",""
"","S2","","html-keyboard-response","165","235767","0.0-1.0-220.0","0","0","97216","","null","","","null","24","","NaN","","","","","","","","","","","","","",""
"","response","","html-keyboard-response","166","236069","0.0-1.0-221.0-0.0","0","0","97216","","301","","","68","24","","","1","24","training","adjacent","DC","4","3","M.jpg","O.jpg","1","0","0","",""
"","feedback","","html-keyboard-response","167","237071","0.0-1.0-222.0-0.0","0","0","97216","","null","","","null","24","","","","","","","","","","","","","","","",""
"","time_out","","html-keyboard-response","168","239073","0.0-1.0-224.0-0.0","0","0","97216","","null","","","null","24","","","","","","","","","","","","","","","",""
"","ITI","","html-keyboard-response","169","240074","0.0-1.0-225.0","0","0","97216","","null","","","null","24","","","","","","","","","","","","","","","NaN",""
"","S1","","html-keyboard-response","170","240325","0.0-1.0-227.0","0","0","97216","","null","","","null","25","","","","","","","","","","","","","","","",""
"","ISI","","html-keyboard-response","171","241327","0.0-1.0-228.0","0","0","97216","","null","","","null","25","NaN","","","","","","","","","","","","","","",""
"","S2","","html-keyboard-response","172","241580","0.0-1.0-229.0","0","0","97216","","null","","","null","25","","NaN","","","","","","","","","","","","","",""
"","response","","html-keyboard-response","173","241774","0.0-1.0-230.0-0.0","0","0","97216","","193","","","75","25","","","1","25","training","adjacent","FE","6","5","Q.jpg","P.jpg","0","0","1","",""
"","feedback","","html-keyboard-response","174","242777","0.0-1.0-231.0-0.0","0","0","97216","","null","","","null","25","","","","","","","","","","","","","","","",""
"","ITI","","html-keyboard-response","175","243779","0.0-1.0-234.0","0","0","97216","","null","","","null","25","","","","","","","","","","","","","","","NaN",""
"","S1","","html-keyboard-response","176","244030","0.0-1.0-236.0","0","0","97216","","null","","","null","26","","","","","","","","","","","","","","","",""
"","ISI","","html-keyboard-response","177","245032","0.0-1.0-237.0","0","0","97216","","null","","","null","26","NaN","","","","","","","","","","","","","","",""
"","S2","","html-keyboard-response","178","245284","0.0-1.0-238.0","0","0","97216","","null","","","null","26","","NaN","","","","","","","","","","","","","",""
"","response","","html-keyboard-response","179","245633","0.0-1.0-239.0-0.0","0","0","97216","","348","","","75","26","","","1","26","training","adjacent","BC","2","3","R.jpg","O.jpg","0","1","0","",""
"","feedback","","html-keyboard-response","180","246635","0.0-1.0-240.0-0.0","0","0","97216","","null","","","null","26","","","","","","","","","","","","","","","",""
"","time_out","","html-keyboard-response","181","248636","0.0-1.0-242.0-0.0","0","0","97216","","null","","","null","26","","","","","","","","","","","","","","","",""
"","ITI","","html-keyboard-response","182","249638","0.0-1.0-243.0","0","0","97216","","null","","","null","26","","","","","","","","","","","","","","","NaN",""
"","S1","","html-keyboard-response","183","249890","0.0-1.0-245.0","0","0","97216","","null","","","null","27","","","","","","","","","","","","","","","",""
"","ISI","","html-keyboard-response","184","250891","0.0-1.0-246.0","0","0","97216","","null","","","null","27","NaN","","","","","","","","","","","","","","",""
"","S2","","html-keyboard-response","185","251144","0.0-1.0-247.0","0","0","97216","","null","","","null","27","","NaN","","","","","","","","","","","","","",""
"","response","","html-keyboard-response","186","251583","0.0-1.0-248.0-0.0","0","0","97216","","439","","","68","27","","","1","27","training","adjacent","CB","3","2","O.jpg","R.jpg","1","0","0","",""
"","feedback","","html-keyboard-response","187","252585","0.0-1.0-249.0-0.0","0","0","97216","","null","","","null","27","","","","","","","","","","","","","","","",""
"","time_out","","html-keyboard-response","188","254586","0.0-1.0-251.0-0.0","0","0","97216","","null","","","null","27","","","","","","","","","","","","","","","",""
"","ITI","","html-keyboard-response","189","255588","0.0-1.0-252.0","0","0","97216","","null","","","null","27","","","","","","","","","","","","","","","NaN",""
"","S1","","html-keyboard-response","190","255840","0.0-1.0-254.0","0","0","97216","","null","","","null","28","","","","","","","","","","","","","","","",""
"","ISI","","html-keyboard-response","191","256842","0.0-1.0-255.0","0","0","97216","","null","","","null","28","NaN","","","","","","","","","","","","","","",""
"","S2","","html-keyboard-response","192","257093","0.0-1.0-256.0","0","0","97216","","null","","","null","28","","NaN","","","","","","","","","","","","","",""
"","response","","html-keyboard-response","193","257377","0.0-1.0-257.0-0.0","0","0","97216","","284","","","68","28","","","1","28","training","adjacent","BA","2","1","R.jpg","L.jpg","1","0","0","",""
"","feedback","","html-keyboard-response","194","258379","0.0-1.0-258.0-0.0","0","0","97216","","null","","","null","28","","","","","","","","","","","","","","","",""
"","time_out","","html-keyboard-response","195","260381","0.0-1.0-260.0-0.0","0","0","97216","","null","","","null","28","","","","","","","","","","","","","","","",""
"","ITI","","html-keyboard-response","196","261383","0.0-1.0-261.0","0","0","97216","","null","","","null","28","","","","","","","","","","","","","","","NaN",""
"","S1","","html-keyboard-response","197","261634","0.0-1.0-263.0","0","0","97216","","null","","","null","29","","","","","","","","","","","","","","","",""
"","ISI","","html-keyboard-response","198","262636","0.0-1.0-264.0","0","0","97216","","null","","","null","29","NaN","","","","","","","","","","","","","","",""
"","S2","","html-keyboard-response","199","262889","0.0-1.0-265.0","0","0","97216","","null","","","null","29","","NaN","","","","","","","","","","","","","",""
"","response","","html-keyboard-response","200","263182","0.0-1.0-266.0-0.0","0","0","97216","","293","","","68","29","","","1","29","training","adjacent","ED","5","4","P.jpg","M.jpg","1","0","0","",""
"","feedback","","html-keyboard-response","201","264184","0.0-1.0-267.0-0.0","0","0","97216","","null","","","null","29","","","","","","","","","","","","","","","",""
"","time_out","","html-keyboard-response","202","266185","0.0-1.0-269.0-0.0","0","0","97216","","null","","","null","29","","","","","","","","","","","","","","","",""
"","ITI","","html-keyboard-response","203","267187","0.0-1.0-270.0","0","0","97216","","null","","","null","29","","","","","","","","","","","","","","","NaN",""
"","S1","","html-keyboard-response","204","267440","0.0-1.0-272.0","0","0","97216","","null","","","null","30","","","","","","","","","","","","","","","",""
"","ISI","","html-keyboard-response","205","268442","0.0-1.0-273.0","0","0","97216","","null","","","null","30","NaN","","","","","","","","","","","","","","",""
"","S2","","html-keyboard-response","206","268694","0.0-1.0-274.0","0","0","97216","","null","","","null","30","","NaN","","","","","","","","","","","","","",""
"","response","","html-keyboard-response","207","269010","0.0-1.0-275.0-0.0","0","0","97216","","315","","","68","30","","","1","30","training","adjacent","ED","5","4","P.jpg","M.jpg","1","0","0","",""
"","feedback","","html-keyboard-response","208","270012","0.0-1.0-276.0-0.0","0","0","97216","","null","","","null","30","","","","","","","","","","","","","","","",""
"","time_out","","html-keyboard-response","209","272014","0.0-1.0-278.0-0.0","0","0","97216","","null","","","null","30","","","","","","","","","","","","","","","",""
"","ITI","","html-keyboard-response","210","273017","0.0-1.0-279.0","0","0","97216","","null","","","null","30","","","","","","","","","","","","","","","NaN",""
"","S1","","html-keyboard-response","211","273270","0.0-1.0-281.0","0","0","97216","","null","","","null","31","","","","","","","","","","","","","","","",""
"","ISI","","html-keyboard-response","212","274271","0.0-1.0-282.0","0","0","97216","","null","","","null","31","NaN","","","","","","","","","","","","","","",""
"","S2","","html-keyboard-response","213","274523","0.0-1.0-283.0","0","0","97216","","null","","","null","31","","NaN","","","","","","","","","","","","","",""
"","response","","html-keyboard-response","214","274961","0.0-1.0-284.0-0.0","0","0","97216","","437","","","75","31","","","1","31","training","adjacent","FE","6","5","Q.jpg","P.jpg","0","0","1","",""
"","feedback","","html-keyboard-response","215","275963","0.0-1.0-285.0-0.0","0","0","97216","","null","","","null","31","","","","","","","","","","","","","","","",""
"","ITI","","html-keyboard-response","216","276965","0.0-1.0-288.0","0","0","97216","","null","","","null","31","","","","","","","","","","","","","","","NaN",""
"","S1","","html-keyboard-response","217","277217","0.0-1.0-290.0","0","0","97216","","null","","","null","32","","","","","","","","","","","","","","","",""
"","ISI","","html-keyboard-response","218","278219","0.0-1.0-291.0","0","0","97216","","null","","","null","32","NaN","","","","","","","","","","","","","","",""
"","S2","","html-keyboard-response","219","278471","0.0-1.0-292.0","0","0","97216","","null","","","null","32","","NaN","","","","","","","","","","","","","",""
"","response","","html-keyboard-response","220","278855","0.0-1.0-293.0-0.0","0","0","97216","","383","","","75","32","","","1","32","training","adjacent","CD","3","4","O.jpg","M.jpg","0","1","0","",""
"","feedback","","html-keyboard-response","221","279856","0.0-1.0-294.0-0.0","0","0","97216","","null","","","null","32","","","","","","","","","","","","","","","",""
"","time_out","","html-keyboard-response","222","281858","0.0-1.0-296.0-0.0","0","0","97216","","null","","","null","32","","","","","","","","","","","","","","","",""
"","ITI","","html-keyboard-response","223","282860","0.0-1.0-297.0","0","0","97216","","null","","","null","32","","","","","","","","","","","","","","","NaN",""
"","S1","","html-keyboard-response","224","283112","0.0-1.0-299.0","0","0","97216","","null","","","null","33","","","","","","","","","","","","","","","",""
"","ISI","","html-keyboard-response","225","284114","0.0-1.0-300.0","0","0","97216","","null","","","null","33","NaN","","","","","","","","","","","","","","",""
"","S2","","html-keyboard-response","226","284366","0.0-1.0-301.0","0","0","97216","","null","","","null","33","","NaN","","","","","","","","","","","","","",""
"","response","","html-keyboard-response","227","284896","0.0-1.0-302.0-0.0","0","0","97216","","530","","","75","33","","","1","33","training","adjacent","ED","5","4","P.jpg","M.jpg","0","0","1","",""
"","feedback","","html-keyboard-response","228","285897","0.0-1.0-303.0-0.0","0","0","97216","","null","","","null","33","","","","","","","","","","","","","","","",""
"","ITI","","html-keyboard-response","229","286899","0.0-1.0-306.0","0","0","97216","","null","","","null","33","","","","","","","","","","","","","","","NaN",""
"","S1","","html-keyboard-response","230","287150","0.0-1.0-308.0","0","0","97216","","null","","","null","34","","","","","","","","","","","","","","","",""
"","ISI","","html-keyboard-response","231","288151","0.0-1.0-309.0","0","0","97216","","null","","","null","34","NaN","","","","","","","","","","","","","","",""
"","S2","","html-keyboard-response","232","288403","0.0-1.0-310.0","0","0","97216","","null","","","null","34","","NaN","","","","","","","","","","","","","",""
"","response","","html-keyboard-response","233","288889","0.0-1.0-311.0-0.0","0","0","97216","","484","","","68","34","","","1","34","training","adjacent","CB","3","2","O.jpg","R.jpg","1","0","0","",""
"","feedback","","html-keyboard-response","234","289891","0.0-1.0-312.0-0.0","0","0","97216","","null","","","null","34","","","","","","","","","","","","","","","",""
"","time_out","","html-keyboard-response","235","291893","0.0-1.0-314.0-0.0","0","0","97216","","null","","","null","34","","","","","","","","","","","","","","","",""
"","ITI","","html-keyboard-response","236","292894","0.0-1.0-315.0","0","0","97216","","null","","","null","34","","","","","","","","","","","","","","","NaN",""
"","S1","","html-keyboard-response","237","293146","0.0-1.0-317.0","0","0","97216","","null","","","null","35","","","","","","","","","","","","","","","",""
"","ISI","","html-keyboard-response","238","294148","0.0-1.0-318.0","0","0","97216","","null","","","null","35","NaN","","","","","","","","","","","","","","",""
"","S2","","html-keyboard-response","239","294400","0.0-1.0-319.0","0","0","97216","","null","","","null","35","","NaN","","","","","","","","","","","","","",""
"","response","","html-keyboard-response","240","294739","0.0-1.0-320.0-0.0","0","0","97216","","339","","","75","35","","","1","35","training","adjacent","BA","2","1","R.jpg","L.jpg","0","0","1","",""
"","feedback","","html-keyboard-response","241","295741","0.0-1.0-321.0-0.0","0","0","97216","","null","","","null","35","","","","","","","","","","","","","","","",""
"","ITI","","html-keyboard-response","242","296743","0.0-1.0-324.0","0","0","97216","","null","","","null","35","","","","","","","","","","","","","","","NaN",""
"","S1","","html-keyboard-response","243","297001","0.0-1.0-326.0","0","0","97216","","null","","","null","36","","","","","","","","","","","","","","","",""
"","ISI","","html-keyboard-response","244","298002","0.0-1.0-327.0","0","0","97216","","null","","","null","36","NaN","","","","","","","","","","","","","","",""
"","S2","","html-keyboard-response","245","298254","0.0-1.0-328.0","0","0","97216","","null","","","null","36","","NaN","","","","","","","","","","","","","",""
"","response","","html-keyboard-response","246","299160","0.0-1.0-329.0-0.0","0","0","97216","","906","","","68","36","","","1","36","training","adjacent","DE","4","5","M.jpg","P.jpg","1","1","1","",""
"","feedback","","html-keyboard-response","247","300161","0.0-1.0-330.0-0.0","0","0","97216","","null","","","null","36","","","","","","","","","","","","","","","",""
"","ITI","","html-keyboard-response","248","301164","0.0-1.0-333.0","0","0","97216","","null","","","null","36","","","","","","","","","","","","","","","NaN",""
"","S1","","html-keyboard-response","249","301416","0.0-1.0-335.0","0","0","97216","","null","","","null","37","","","","","","","","","","","","","","","",""
"","ISI","","html-keyboard-response","250","302418","0.0-1.0-336.0","0","0","97216","","null","","","null","37","NaN","","","","","","","","","","","","","","",""
"","S2","","html-keyboard-response","251","302670","0.0-1.0-337.0","0","0","97216","","null","","","null","37","","NaN","","","","","","","","","","","","","",""
"","response","","html-keyboard-response","252","303221","0.0-1.0-338.0-0.0","0","0","97216","","551","","","75","37","","","1","37","training","adjacent","ED","5","4","P.jpg","M.jpg","0","0","1","",""
"","feedback","","html-keyboard-response","253","304223","0.0-1.0-339.0-0.0","0","0","97216","","null","","","null","37","","","","","","","","","","","","","","","",""
"","ITI","","html-keyboard-response","254","305225","0.0-1.0-342.0","0","0","97216","","null","","","null","37","","","","","","","","","","","","","","","NaN",""
"","S1","","html-keyboard-response","255","305476","0.0-1.0-344.0","0","0","97216","","null","","","null","38","","","","","","","","","","","","","","","",""
"","ISI","","html-keyboard-response","256","306478","0.0-1.0-345.0","0","0","97216","","null","","","null","38","NaN","","","","","","","","","","","","","","",""
"","S2","","html-keyboard-response","257","306730","0.0-1.0-346.0","0","0","97216","","null","","","null","38","","NaN","","","","","","","","","","","","","",""
"","response","","html-keyboard-response","258","307037","0.0-1.0-347.0-0.0","0","0","97216","","306","","","75","38","","","1","38","training","adjacent","GF","7","6","N.jpg","Q.jpg","0","0","1","",""
"","feedback","","html-keyboard-response","259","308047","0.0-1.0-348.0-0.0","0","0","97216","","null","","","null","38","","","","","","","","","","","","","","","",""
"","ITI","","html-keyboard-response","260","309049","0.0-1.0-351.0","0","0","97216","","null","","","null","38","","","","","","","","","","","","","","","NaN",""
"","S1","","html-keyboard-response","261","309301","0.0-1.0-353.0","0","0","97216","","null","","","null","39","","","","","","","","","","","","","","","",""
"","ISI","","html-keyboard-response","262","310302","0.0-1.0-354.0","0","0","97216","","null","","","null","39","NaN","","","","","","","","","","","","","","",""
"","S2","","html-keyboard-response","263","310553","0.0-1.0-355.0","0","0","97216","","null","","","null","39","","NaN","","","","","","","","","","","","","",""
"","response","","html-keyboard-response","264","311153","0.0-1.0-356.0-0.0","0","0","97216","","598","","","75","39","","","1","39","training","adjacent","DC","4","3","M.jpg","O.jpg","0","0","1","",""
"","feedback","","html-keyboard-response","265","312155","0.0-1.0-357.0-0.0","0","0","97216","","null","","","null","39","","","","","","","","","","","","","","","",""
"","ITI","","html-keyboard-response","266","313157","0.0-1.0-360.0","0","0","97216","","null","","","null","39","","","","","","","","","","","","","","","NaN",""
"","S1","","html-keyboard-response","267","313408","0.0-1.0-362.0","0","0","97216","","null","","","null","40","","","","","","","","","","","","","","","",""
"","ISI","","html-keyboard-response","268","314410","0.0-1.0-363.0","0","0","97216","","null","","","null","40","NaN","","","","","","","","","","","","","","",""
"","S2","","html-keyboard-response","269","314662","0.0-1.0-364.0","0","0","97216","","null","","","null","40","","NaN","","","","","","","","","","","","","",""
"","response","","html-keyboard-response","270","315045","0.0-1.0-365.0-0.0","0","0","97216","","381","","","68","40","","","1","40","training","adjacent","GF","7","6","N.jpg","Q.jpg","1","0","0","",""
"","feedback","","html-keyboard-response","271","316046","0.0-1.0-366.0-0.0","0","0","97216","","null","","","null","40","","","","","","","","","","","","","","","",""
"","time_out","","html-keyboard-response","272","318048","0.0-1.0-368.0-0.0","0","0","97216","","null","","","null","40","","","","","","","","","","","","","","","",""
"","ITI","","html-keyboard-response","273","319050","0.0-1.0-369.0","0","0","97216","","null","","","null","40","","","","","","","","","","","","","","","NaN",""
"","S1","","html-keyboard-response","274","319302","0.0-1.0-371.0","0","0","97216","","null","","","null","41","","","","","","","","","","","","","","","",""
"","ISI","","html-keyboard-response","275","320304","0.0-1.0-372.0","0","0","97216","","null","","","null","41","NaN","","","","","","","","","","","","","","",""
"","S2","","html-keyboard-response","276","320556","0.0-1.0-373.0","0","0","97216","","null","","","null","41","","NaN","","","","","","","","","","","","","",""
"","response","","html-keyboard-response","277","321020","0.0-1.0-374.0-0.0","0","0","97216","","463","","","75","41","","","1","41","training","adjacent","CD","3","4","O.jpg","M.jpg","0","1","0","",""
"","feedback","","html-keyboard-response","278","322022","0.0-1.0-375.0-0.0","0","0","97216","","null","","","null","41","","","","","","","","","","","","","","","",""
"","time_out","","html-keyboard-response","279","324024","0.0-1.0-377.0-0.0","0","0","97216","","null","","","null","41","","","","","","","","","","","","","","","",""
"","ITI","","html-keyboard-response","280","325025","0.0-1.0-378.0","0","0","97216","","null","","","null","41","","","","","","","","","","","","","","","NaN",""
"","S1","","html-keyboard-response","281","325277","0.0-1.0-380.0","0","0","97216","","null","","","null","42","","","","","","","","","","","","","","","",""
"","ISI","","html-keyboard-response","282","326278","0.0-1.0-381.0","0","0","97216","","null","","","null","42","NaN","","","","","","","","","","","","","","",""
"","S2","","html-keyboard-response","283","326531","0.0-1.0-382.0","0","0","97216","","null","","","null","42","","NaN","","","","","","","","","","","","","",""
"","response","","html-keyboard-response","284","326678","0.0-1.0-383.0-0.0","0","0","97216","","147","","","68","42","","","1","42","training","adjacent","FE","6","5","Q.jpg","P.jpg","1","0","0","",""
"","feedback","","html-keyboard-response","285","327681","0.0-1.0-384.0-0.0","0","0","97216","","null","","","null","42","","","","","","","","","","","","","","","",""
"","time_out","","html-keyboard-response","286","329682","0.0-1.0-386.0-0.0","0","0","97216","","null","","","null","42","","","","","","","","","","","","","","","",""
"","ITI","","html-keyboard-response","287","330684","0.0-1.0-387.0","0","0","97216","","null","","","null","42","","","","","","","","","","","","","","","NaN",""
"","S1","","html-keyboard-response","288","330936","0.0-1.0-389.0","0","0","97216","","null","","","null","43","","","","","","","","","","","","","","","",""
"","ISI","","html-keyboard-response","289","331937","0.0-1.0-390.0","0","0","97216","","null","","","null","43","NaN","","","","","","","","","","","","","","",""
"","S2","","html-keyboard-response","290","332194","0.0-1.0-391.0","0","0","97216","","null","","","null","43","","NaN","","","","","","","","","","","","","",""
"","response","","html-keyboard-response","291","332707","0.0-1.0-392.0-0.0","0","0","97216","","513","","","68","43","","","1","43","training","adjacent","FG","6","7","Q.jpg","N.jpg","1","1","1","",""
"","feedback","","html-keyboard-response","292","333711","0.0-1.0-393.0-0.0","0","0","97216","","null","","","null","43","","","","","","","","","","","","","","","",""
"","ITI","","html-keyboard-response","293","334714","0.0-1.0-396.0","0","0","97216","","null","","","null","43","","","","","","","","","","","","","","","NaN",""
"","S1","","html-keyboard-response","294","334966","0.0-1.0-398.0","0","0","97216","","null","","","null","44","","","","","","","","","","","","","","","",""
"","ISI","","html-keyboard-response","295","335982","0.0-1.0-399.0","0","0","97216","","null","","","null","44","NaN","","","","","","","","","","","","","","",""
"","S2","","html-keyboard-response","296","336233","0.0-1.0-400.0","0","0","97216","","null","","","null","44","","NaN","","","","","","","","","","","","","",""
"","response","","html-keyboard-response","297","336557","0.0-1.0-401.0-0.0","0","0","97216","","323","","","75","44","","","1","44","training","adjacent","DE","4","5","M.jpg","P.jpg","0","1","0","",""
"","feedback","","html-keyboard-response","298","337560","0.0-1.0-402.0-0.0","0","0","97216","","null","","","null","44","","","","","","","","","","","","","","","",""
"","time_out","","html-keyboard-response","299","339562","0.0-1.0-404.0-0.0","0","0","97216","","null","","","null","44","","","","","","","","","","","","","","","",""
"","ITI","","html-keyboard-response","300","340564","0.0-1.0-405.0","0","0","97216","","null","","","null","44","","","","","","","","","","","","","","","NaN",""
"","S1","","html-keyboard-response","301","340815","0.0-1.0-407.0","0","0","97216","","null","","","null","45","","","","","","","","","","","","","","","",""
"","ISI","","html-keyboard-response","302","341817","0.0-1.0-408.0","0","0","97216","","null","","","null","45","NaN","","","","","","","","","","","","","","",""
"","S2","","html-keyboard-response","303","342069","0.0-1.0-409.0","0","0","97216","","null","","","null","45","","NaN","","","","","","","","","","","","","",""
"","response","","html-keyboard-response","304","342509","0.0-1.0-410.0-0.0","0","0","97216","","439","","","75","45","","","1","45","training","adjacent","DC","4","3","M.jpg","O.jpg","0","0","1","",""
"","feedback","","html-keyboard-response","305","343511","0.0-1.0-411.0-0.0","0","0","97216","","null","","","null","45","","","","","","","","","","","","","","","",""
"","ITI","","html-keyboard-response","306","344513","0.0-1.0-414.0","0","0","97216","","null","","","null","45","","","","","","","","","","","","","","","NaN",""
"","S1","","html-keyboard-response","307","344764","0.0-1.0-416.0","0","0","97216","","null","","","null","46","","","","","","","","","","","","","","","",""
"","ISI","","html-keyboard-response","308","345766","0.0-1.0-417.0","0","0","97216","","null","","","null","46","NaN","","","","","","","","","","","","","","",""
"","S2","","html-keyboard-response","309","346018","0.0-1.0-418.0","0","0","97216","","null","","","null","46","","NaN","","","","","","","","","","","","","",""
"","response","","html-keyboard-response","310","346400","0.0-1.0-419.0-0.0","0","0","97216","","380","","","75","46","","","1","46","training","adjacent","BA","2","1","R.jpg","L.jpg","0","0","1","",""
"","feedback","","html-keyboard-response","311","347401","0.0-1.0-420.0-0.0","0","0","97216","","null","","","null","46","","","","","","","","","","","","","","","",""
"","ITI","","html-keyboard-response","312","348404","0.0-1.0-423.0","0","0","97216","","null","","","null","46","","","","","","","","","","","","","","","NaN",""
"","S1","","html-keyboard-response","313","348656","0.0-1.0-425.0","0","0","97216","","null","","","null","47","","","","","","","","","","","","","","","",""
"","ISI","","html-keyboard-response","314","349664","0.0-1.0-426.0","0","0","97216","","null","","","null","47","NaN","","","","","","","","","","","","","","",""
"","S2","","html-keyboard-response","315","349916","0.0-1.0-427.0","0","0","97216","","null","","","null","47","","NaN","","","","","","","","","","","","","",""
"","response","","html-keyboard-response","316","350474","0.0-1.0-428.0-0.0","0","0","97216","","556","","","68","47","","","1","47","training","adjacent","FG","6","7","Q.jpg","N.jpg","1","1","1","",""
"","feedback","","html-keyboard-response","317","351476","0.0-1.0-429.0-0.0","0","0","97216","","null","","","null","47","","","","","","","","","","","","","","","",""
"","ITI","","html-keyboard-response","318","352478","0.0-1.0-432.0","0","0","97216","","null","","","null","47","","","","","","","","","","","","","","","NaN",""
"","block_over","","html-keyboard-response","319","363535","0.0-1.0-433.0-0.0","0","0","97216","","11056","","","32","47","","","","","","","","","","","","","","","",""
"","S1","","html-keyboard-response","320","363786","0.0-1.0-434.0","0","0","97216","","null","","","null","48","","","","","","","","","","","","","","","",""
"","ISI","","html-keyboard-response","321","364788","0.0-1.0-435.0","0","0","97216","","null","","","null","48","NaN","","","","","","","","","","","","","","",""
"","S2","","html-keyboard-response","322","365040","0.0-1.0-436.0","0","0","97216","","null","","","null","48","","NaN","","","","","","","","","","","","","",""
"","response","","html-keyboard-response","323","366126","0.0-1.0-437.0-0.0","0","0","97216","","1085","","","75","48","","","2","48","training","adjacent","BC","2","3","R.jpg","O.jpg","0","1","0","",""
"","feedback","","html-keyboard-response","324","367128","0.0-1.0-438.0-0.0","0","0","97216","","null","","","null","48","","","","","","","","","","","","","","","",""
"","time_out","","html-keyboard-response","325","369130","0.0-1.0-440.0-0.0","0","0","97216","","null","","","null","48","","","","","","","","","","","","","","","",""
"","ITI","","html-keyboard-response","326","370132","0.0-1.0-441.0","0","0","97216","","null","","","null","48","","","","","","","","","","","","","","","NaN",""
"","S1","","html-keyboard-response","327","370383","0.0-1.0-443.0","0","0","97216","","null","","","null","49","","","","","","","","","","","","","","","",""
"","ISI","","html-keyboard-response","328","371385","0.0-1.0-444.0","0","0","97216","","null","","","null","49","NaN","","","","","","","","","","","","","","",""
"","S2","","html-keyboard-response","329","371637","0.0-1.0-445.0","0","0","97216","","null","","","null","49","","NaN","","","","","","","","","","","","","",""
"","response","","html-keyboard-response","330","371984","0.0-1.0-446.0-0.0","0","0","97216","","346","","","75","49","","","2","49","training","adjacent","DE","4","5","M.jpg","P.jpg","0","1","0","",""
"","feedback","","html-keyboard-response","331","372986","0.0-1.0-447.0-0.0","0","0","97216","","null","","","null","49","","","","","","","","","","","","","","","",""
"","time_out","","html-keyboard-response","332","374988","0.0-1.0-449.0-0.0","0","0","97216","","null","","","null","49","","","","","","","","","","","","","","","",""
"","ITI","","html-keyboard-response","333","375990","0.0-1.0-450.0","0","0","97216","","null","","","null","49","","","","","","","","","","","","","","","NaN",""
"","S1","","html-keyboard-response","334","376241","0.0-1.0-452.0","0","0","97216","","null","","","null","50","","","","","","","","","","","","","","","",""
"","ISI","","html-keyboard-response","335","377243","0.0-1.0-453.0","0","0","97216","","null","","","null","50","NaN","","","","","","","","","","","","","","",""
"","S2","","html-keyboard-response","336","377495","0.0-1.0-454.0","0","0","97216","","null","","","null","50","","NaN","","","","","","","","","","","","","",""
"","response","","html-keyboard-response","337","377978","0.0-1.0-455.0-0.0","0","0","97216","","483","","","75","50","","","2","50","training","adjacent","DE","4","5","M.jpg","P.jpg","0","1","0","",""
"","feedback","","html-keyboard-response","338","378981","0.0-1.0-456.0-0.0","0","0","97216","","null","","","null","50","","","","","","","","","","","","","","","",""
"","time_out","","html-keyboard-response","339","380983","0.0-1.0-458.0-0.0","0","0","97216","","null","","","null","50","","","","","","","","","","","","","","","",""
"","ITI","","html-keyboard-response","340","381984","0.0-1.0-459.0","0","0","97216","","null","","","null","50","","","","","","","","","","","","","","","NaN",""
"","S1","","html-keyboard-response","341","382236","0.0-1.0-461.0","0","0","97216","","null","","","null","51","","","","","","","","","","","","","","","",""
"","ISI","","html-keyboard-response","342","383238","0.0-1.0-462.0","0","0","97216","","null","","","null","51","NaN","","","","","","","","","","","","","","",""
"","S2","","html-keyboard-response","343","383490","0.0-1.0-463.0","0","0","97216","","null","","","null","51","","NaN","","","","","","","","","","","","","",""
"","response","","html-keyboard-response","344","383796","0.0-1.0-464.0-0.0","0","0","97216","","304","","","68","51","","","2","51","training","adjacent","CB","3","2","O.jpg","R.jpg","1","0","0","",""
"","feedback","","html-keyboard-response","345","384798","0.0-1.0-465.0-0.0","0","0","97216","","null","","","null","51","","","","","","","","","","","","","","","",""
"","time_out","","html-keyboard-response","346","386800","0.0-1.0-467.0-0.0","0","0","97216","","null","","","null","51","","","","","","","","","","","","","","","",""
"","ITI","","html-keyboard-response","347","387802","0.0-1.0-468.0","0","0","97216","","null","","","null","51","","","","","","","","","","","","","","","NaN",""
"","S1","","html-keyboard-response","348","388053","0.0-1.0-470.0","0","0","97216","","null","","","null","52","","","","","","","","","","","","","","","",""
"","ISI","","html-keyboard-response","349","389055","0.0-1.0-471.0","0","0","97216","","null","","","null","52","NaN","","","","","","","","","","","","","","",""
"","S2","","html-keyboard-response","350","389306","0.0-1.0-472.0","0","0","97216","","null","","","null","52","","NaN","","","","","","","","","","","","","",""
"","response","","html-keyboard-response","351","389892","0.0-1.0-473.0-0.0","0","0","97216","","584","","","75","52","","","2","52","training","adjacent","CD","3","4","O.jpg","M.jpg","0","1","0","",""
"","feedback","","html-keyboard-response","352","390893","0.0-1.0-474.0-0.0","0","0","97216","","null","","","null","52","","","","","","","","","","","","","","","",""
"","time_out","","html-keyboard-response","353","392895","0.0-1.0-476.0-0.0","0","0","97216","","null","","","null","52","","","","","","","","","","","","","","","",""
"","ITI","","html-keyboard-response","354","393898","0.0-1.0-477.0","0","0","97216","","null","","","null","52","","","","","","","","","","","","","","","NaN",""
"","S1","","html-keyboard-response","355","394150","0.0-1.0-479.0","0","0","97216","","null","","","null","53","","","","","","","","","","","","","","","",""
"","ISI","","html-keyboard-response","356","395152","0.0-1.0-480.0","0","0","97216","","null","","","null","53","NaN","","","","","","","","","","","","","","",""
"","S2","","html-keyboard-response","357","395419","0.0-1.0-481.0","0","0","97216","","null","","","null","53","","NaN","","","","","","","","","","","","","",""
"","response","","html-keyboard-response","358","396026","0.0-1.0-482.0-0.0","0","0","97216","","606","","","75","53","","","2","53","training","adjacent","ED","5","4","P.jpg","M.jpg","0","0","1","",""
"","feedback","","html-keyboard-response","359","397028","0.0-1.0-483.0-0.0","0","0","97216","","null","","","null","53","","","","","","","","","","","","","","","",""
"","ITI","","html-keyboard-response","360","398030","0.0-1.0-486.0","0","0","97216","","null","","","null","53","","","","","","","","","","","","","","","NaN",""
"","S1","","html-keyboard-response","361","398282","0.0-1.0-488.0","0","0","97216","","null","","","null","54","","","","","","","","","","","","","","","",""
"","ISI","","html-keyboard-response","362","399284","0.0-1.0-489.0","0","0","97216","","null","","","null","54","NaN","","","","","","","","","","","","","","",""
"","S2","","html-keyboard-response","363","399536","0.0-1.0-490.0","0","0","97216","","null","","","null","54","","NaN","","","","","","","","","","","","","",""
"","response","","html-keyboard-response","364","399986","0.0-1.0-491.0-0.0","0","0","97216","","448","","","68","54","","","2","54","training","adjacent","GF","7","6","N.jpg","Q.jpg","1","0","0","",""
"","feedback","","html-keyboard-response","365","400987","0.0-1.0-492.0-0.0","0","0","97216","","null","","","null","54","","","","","","","","","","","","","","","",""
"","time_out","","html-keyboard-response","366","402988","0.0-1.0-494.0-0.0","0","0","97216","","null","","","null","54","","","","","","","","","","","","","","","",""
"","ITI","","html-keyboard-response","367","403990","0.0-1.0-495.0","0","0","97216","","null","","","null","54","","","","","","","","","","","","","","","NaN",""
"","S1","","html-keyboard-response","368","404242","0.0-1.0-497.0","0","0","97216","","null","","","null","55","","","","","","","","","","","","","","","",""
"","ISI","","html-keyboard-response","369","405243","0.0-1.0-498.0","0","0","97216","","null","","","null","55","NaN","","","","","","","","","","","","","","",""
"","S2","","html-keyboard-response","370","405495","0.0-1.0-499.0","0","0","97216","","null","","","null","55","","NaN","","","","","","","","","","","","","",""
"","response","","html-keyboard-response","371","405835","0.0-1.0-500.0-0.0","0","0","97216","","338","","","75","55","","","2","55","training","adjacent","FE","6","5","Q.jpg","P.jpg","0","0","1","",""
"","feedback","","html-keyboard-response","372","406837","0.0-1.0-501.0-0.0","0","0","97216","","null","","","null","55","","","","","","","","","","","","","","","",""
"","ITI","","html-keyboard-response","373","407849","0.0-1.0-504.0","0","0","97216","","null","","","null","55","","","","","","","","","","","","","","","NaN",""
"","S1","","html-keyboard-response","374","408100","0.0-1.0-506.0","0","0","97216","","null","","","null","56","","","","","","","","","","","","","","","",""
"","ISI","","html-keyboard-response","375","409102","0.0-1.0-507.0","0","0","97216","","null","","","null","56","NaN","","","","","","","","","","","","","","",""
"","S2","","html-keyboard-response","376","409355","0.0-1.0-508.0","0","0","97216","","null","","","null","56","","NaN","","","","","","","","","","","","","",""
"","response","","html-keyboard-response","377","410233","0.0-1.0-509.0-0.0","0","0","97216","","878","","","75","56","","","2","56","training","adjacent","FG","6","7","Q.jpg","N.jpg","0","1","0","",""
"","feedback","","html-keyboard-response","378","411236","0.0-1.0-510.0-0.0","0","0","97216","","null","","","null","56","","","","","","","","","","","","","","","",""
"","time_out","","html-keyboard-response","379","413237","0.0-1.0-512.0-0.0","0","0","97216","","null","","","null","56","","","","","","","","","","","","","","","",""
"","ITI","","html-keyboard-response","380","414238","0.0-1.0-513.0","0","0","97216","","null","","","null","56","","","","","","","","","","","","","","","NaN",""
"","S1","","html-keyboard-response","381","414491","0.0-1.0-515.0","0","0","97216","","null","","","null","57","","","","","","","","","","","","","","","",""
"","ISI","","html-keyboard-response","382","415493","0.0-1.0-516.0","0","0","97216","","null","","","null","57","NaN","","","","","","","","","","","","","","",""
"","S2","","html-keyboard-response","383","415744","0.0-1.0-517.0","0","0","97216","","null","","","null","57","","NaN","","","","","","","","","","","","","",""
"","response","","html-keyboard-response","384","416185","0.0-1.0-518.0-0.0","0","0","97216","","441","","","68","57","","","2","57","training","adjacent","EF","5","6","P.jpg","Q.jpg","1","1","1","",""
"","feedback","","html-keyboard-response","385","417186","0.0-1.0-519.0-0.0","0","0","97216","","null","","","null","57","","","","","","","","","","","","","","","",""
"","ITI","","html-keyboard-response","386","418188","0.0-1.0-522.0","0","0","97216","","null","","","null","57","","","","","","","","","","","","","","","NaN",""
"","S1","","html-keyboard-response","387","418440","0.0-1.0-524.0","0","0","97216","","null","","","null","58","","","","","","","","","","","","","","","",""
"","ISI","","html-keyboard-response","388","419443","0.0-1.0-525.0","0","0","97216","","null","","","null","58","NaN","","","","","","","","","","","","","","",""
"","S2","","html-keyboard-response","389","419695","0.0-1.0-526.0","0","0","97216","","null","","","null","58","","NaN","","","","","","","","","","","","","",""
"","response","","html-keyboard-response","390","420303","0.0-1.0-527.0-0.0","0","0","97216","","608","","","75","58","","","2","58","training","adjacent","FE","6","5","Q.jpg","P.jpg","0","0","1","",""
"","feedback","","html-keyboard-response","391","421305","0.0-1.0-528.0-0.0","0","0","97216","","null","","","null","58","","","","","","","","","","","","","","","",""
"","ITI","","html-keyboard-response","392","422308","0.0-1.0-531.0","0","0","97216","","null","","","null","58","","","","","","","","","","","","","","","NaN",""
"","S1","","html-keyboard-response","393","422559","0.0-1.0-533.0","0","0","97216","","null","","","null","59","","","","","","","","","","","","","","","",""
"","ISI","","html-keyboard-response","394","423562","0.0-1.0-534.0","0","0","97216","","null","","","null","59","NaN","","","","","","","","","","","","","","",""
"","S2","","html-keyboard-response","395","423826","0.0-1.0-535.0","0","0","97216","","null","","","null","59","","NaN","","","","","","","","","","","","","",""
"","response","","html-keyboard-response","396","424353","0.0-1.0-536.0-0.0","0","0","97216","","527","","","75","59","","","2","59","training","adjacent","GF","7","6","N.jpg","Q.jpg","0","0","1","",""
"","feedback","","html-keyboard-response","397","425355","0.0-1.0-537.0-0.0","0","0","97216","","null","","","null","59","","","","","","","","","","","","","","","",""
"","ITI","","html-keyboard-response","398","426358","0.0-1.0-540.0","0","0","97216","","null","","","null","59","","","","","","","","","","","","","","","NaN",""
"","S1","","html-keyboard-response","399","426610","0.0-1.0-542.0","0","0","97216","","null","","","null","60","","","","","","","","","","","","","","","",""
"","ISI","","html-keyboard-response","400","427612","0.0-1.0-543.0","0","0","97216","","null","","","null","60","NaN","","","","","","","","","","","","","","",""
"","S2","","html-keyboard-response","401","427864","0.0-1.0-544.0","0","0","97216","","null","","","null","60","","NaN","","","","","","","","","","","","","",""
"","response","","html-keyboard-response","402","428685","0.0-1.0-545.0-0.0","0","0","97216","","819","","","75","60","","","2","60","training","adjacent","CB","3","2","O.jpg","R.jpg","0","0","1","",""
"","feedback","","html-keyboard-response","403","429687","0.0-1.0-546.0-0.0","0","0","97216","","null","","","null","60","","","","","","","","","","","","","","","",""
"","ITI","","html-keyboard-response","404","430689","0.0-1.0-549.0","0","0","97216","","null","","","null","60","","","","","","","","","","","","","","","NaN",""
"","S1","","html-keyboard-response","405","430940","0.0-1.0-551.0","0","0","97216","","null","","","null","61","","","","","","","","","","","","","","","",""
"","ISI","","html-keyboard-response","406","431957","0.0-1.0-552.0","0","0","97216","","null","","","null","61","NaN","","","","","","","","","","","","","","",""
"","S2","","html-keyboard-response","407","432209","0.0-1.0-553.0","0","0","97216","","null","","","null","61","","NaN","","","","","","","","","","","","","",""
"","response","","html-keyboard-response","408","433649","0.0-1.0-554.0-0.0","0","0","97216","","1439","","","75","61","","","2","61","training","adjacent","GF","7","6","N.jpg","Q.jpg","0","0","1","",""
"","feedback","","html-keyboard-response","409","434651","0.0-1.0-555.0-0.0","0","0","97216","","null","","","null","61","","","","","","","","","","","","","","","",""
"","ITI","","html-keyboard-response","410","435652","0.0-1.0-558.0","0","0","97216","","null","","","null","61","","","","","","","","","","","","","","","NaN",""
"","S1","","html-keyboard-response","411","435904","0.0-1.0-560.0","0","0","97216","","null","","","null","62","","","","","","","","","","","","","","","",""
"","ISI","","html-keyboard-response","412","436905","0.0-1.0-561.0","0","0","97216","","null","","","null","62","NaN","","","","","","","","","","","","","","",""
"","S2","","html-keyboard-response","413","437157","0.0-1.0-562.0","0","0","97216","","null","","","null","62","","NaN","","","","","","","","","","","","","",""
"","response","","html-keyboard-response","414","437920","0.0-1.0-563.0-0.0","0","0","97216","","762","","","75","62","","","2","62","training","adjacent","BC","2","3","R.jpg","O.jpg","0","1","0","",""
"","feedback","","html-keyboard-response","415","438922","0.0-1.0-564.0-0.0","0","0","97216","","null","","","null","62","","","","","","","","","","","","","","","",""
"","time_out","","html-keyboard-response","416","440924","0.0-1.0-566.0-0.0","0","0","97216","","null","","","null","62","","","","","","","","","","","","","","","",""
"","ITI","","html-keyboard-response","417","441926","0.0-1.0-567.0","0","0","97216","","null","","","null","62","","","","","","","","","","","","","","","NaN",""
"","S1","","html-keyboard-response","418","442178","0.0-1.0-569.0","0","0","97216","","null","","","null","63","","","","","","","","","","","","","","","",""
"","ISI","","html-keyboard-response","419","443179","0.0-1.0-570.0","0","0","97216","","null","","","null","63","NaN","","","","","","","","","","","","","","",""
"","S2","","html-keyboard-response","420","443431","0.0-1.0-571.0","0","0","97216","","null","","","null","63","","NaN","","","","","","","","","","","","","",""
"","response","","html-keyboard-response","421","443848","0.0-1.0-572.0-0.0","0","0","97216","","415","","","68","63","","","2","63","training","adjacent","CB","3","2","O.jpg","R.jpg","1","0","0","",""
"","feedback","","html-keyboard-response","422","444850","0.0-1.0-573.0-0.0","0","0","97216","","null","","","null","63","","","","","","","","","","","","","","","",""
"","time_out","","html-keyboard-response","423","446852","0.0-1.0-575.0-0.0","0","0","97216","","null","","","null","63","","","","","","","","","","","","","","","",""
"","ITI","","html-keyboard-response","424","447854","0.0-1.0-576.0","0","0","97216","","null","","","null","63","","","","","","","","","","","","","","","NaN",""
"","S1","","html-keyboard-response","425","448105","0.0-1.0-578.0","0","0","97216","","null","","","null","64","","","","","","","","","","","","","","","",""
"","ISI","","html-keyboard-response","426","449106","0.0-1.0-579.0","0","0","97216","","null","","","null","64","NaN","","","","","","","","","","","","","","",""
"","S2","","html-keyboard-response","427","449358","0.0-1.0-580.0","0","0","97216","","null","","","null","64","","NaN","","","","","","","","","","","","","",""
"","response","","html-keyboard-response","428","450002","0.0-1.0-581.0-0.0","0","0","97216","","643","","","75","64","","","2","64","training","adjacent","BA","2","1","R.jpg","L.jpg","0","0","1","",""
"","feedback","","html-keyboard-response","429","451004","0.0-1.0-582.0-0.0","0","0","97216","","null","","","null","64","","","","","","","","","","","","","","","",""
"","ITI","","html-keyboard-response","430","452006","0.0-1.0-585.0","0","0","97216","","null","","","null","64","","","","","","","","","","","","","","","NaN",""
"","S1","","html-keyboard-response","431","452257","0.0-1.0-587.0","0","0","97216","","null","","","null","65","","","","","","","","","","","","","","","",""
"","ISI","","html-keyboard-response","432","453259","0.0-1.0-588.0","0","0","97216","","null","","","null","65","NaN","","","","","","","","","","","","","","",""
"","S2","","html-keyboard-response","433","453511","0.0-1.0-589.0","0","0","97216","","null","","","null","65","","NaN","","","","","","","","","","","","","",""
"","response","","html-keyboard-response","434","453940","0.0-1.0-590.0-0.0","0","0","97216","","428","","","68","65","","","2","65","training","adjacent","DC","4","3","M.jpg","O.jpg","1","0","0","",""
"","feedback","","html-keyboard-response","435","454942","0.0-1.0-591.0-0.0","0","0","97216","","null","","","null","65","","","","","","","","","","","","","","","",""
"","time_out","","html-keyboard-response","436","456944","0.0-1.0-593.0-0.0","0","0","97216","","null","","","null","65","","","","","","","","","","","","","","","",""
"","ITI","","html-keyboard-response","437","457946","0.0-1.0-594.0","0","0","97216","","null","","","null","65","","","","","","","","","","","","","","","NaN",""
"","S1","","html-keyboard-response","438","458197","0.0-1.0-596.0","0","0","97216","","null","","","null","66","","","","","","","","","","","","","","","",""
"","ISI","","html-keyboard-response","439","459199","0.0-1.0-597.0","0","0","97216","","null","","","null","66","NaN","","","","","","","","","","","","","","",""
"","S2","","html-keyboard-response","440","459452","0.0-1.0-598.0","0","0","97216","","null","","","null","66","","NaN","","","","","","","","","","","","","",""
"","response","","html-keyboard-response","441","459847","0.0-1.0-599.0-0.0","0","0","97216","","394","","","68","66","","","2","66","training","adjacent","ED","5","4","P.jpg","M.jpg","1","0","0","",""
"","feedback","","html-keyboard-response","442","460850","0.0-1.0-600.0-0.0","0","0","97216","","null","","","null","66","","","","","","","","","","","","","","","",""
"","time_out","","html-keyboard-response","443","462852","0.0-1.0-602.0-0.0","0","0","97216","","null","","","null","66","","","","","","","","","","","","","","","",""
"","ITI","","html-keyboard-response","444","463854","0.0-1.0-603.0","0","0","97216","","null","","","null","66","","","","","","","","","","","","","","","NaN",""
"","S1","","html-keyboard-response","445","464106","0.0-1.0-605.0","0","0","97216","","null","","","null","67","","","","","","","","","","","","","","","",""
"","ISI","","html-keyboard-response","446","465108","0.0-1.0-606.0","0","0","97216","","null","","","null","67","NaN","","","","","","","","","","","","","","",""
"","S2","","html-keyboard-response","447","465360","0.0-1.0-607.0","0","0","97216","","null","","","null","67","","NaN","","","","","","","","","","","","","",""
"","response","","html-keyboard-response","448","466046","0.0-1.0-608.0-0.0","0","0","97216","","685","","","68","67","","","2","67","training","adjacent","DC","4","3","M.jpg","O.jpg","1","0","0","",""
"","feedback","","html-keyboard-response","449","467047","0.0-1.0-609.0-0.0","0","0","97216","","null","","","null","67","","","","","","","","","","","","","","","",""
"","time_out","","html-keyboard-response","450","469050","0.0-1.0-611.0-0.0","0","0","97216","","null","","","null","67","","","","","","","","","","","","","","","",""
"","ITI","","html-keyboard-response","451","470052","0.0-1.0-612.0","0","0","97216","","null","","","null","67","","","","","","","","","","","","","","","NaN",""
"","S1","","html-keyboard-response","452","470304","0.0-1.0-614.0","0","0","97216","","null","","","null","68","","","","","","","","","","","","","","","",""
"","ISI","","html-keyboard-response","453","471306","0.0-1.0-615.0","0","0","97216","","null","","","null","68","NaN","","","","","","","","","","","","","","",""
"","S2","","html-keyboard-response","454","471557","0.0-1.0-616.0","0","0","97216","","null","","","null","68","","NaN","","","","","","","","","","","","","",""
"","response","","html-keyboard-response","455","472176","0.0-1.0-617.0-0.0","0","0","97216","","618","","","75","68","","","2","68","training","adjacent","CD","3","4","O.jpg","M.jpg","0","1","0","",""
"","feedback","","html-keyboard-response","456","473178","0.0-1.0-618.0-0.0","0","0","97216","","null","","","null","68","","","","","","","","","","","","","","","",""
"","time_out","","html-keyboard-response","457","475180","0.0-1.0-620.0-0.0","0","0","97216","","null","","","null","68","","","","","","","","","","","","","","","",""
"","ITI","","html-keyboard-response","458","476182","0.0-1.0-621.0","0","0","97216","","null","","","null","68","","","","","","","","","","","","","","","NaN",""
"","S1","","html-keyboard-response","459","476434","0.0-1.0-623.0","0","0","97216","","null","","","null","69","","","","","","","","","","","","","","","",""
"","ISI","","html-keyboard-response","460","477435","0.0-1.0-624.0","0","0","97216","","null","","","null","69","NaN","","","","","","","","","","","","","","",""
"","S2","","html-keyboard-response","461","477688","0.0-1.0-625.0","0","0","97216","","null","","","null","69","","NaN","","","","","","","","","","","","","",""
"","response","","html-keyboard-response","462","478151","0.0-1.0-626.0-0.0","0","0","97216","","462","","","68","69","","","2","69","training","adjacent","AB","1","2","L.jpg","R.jpg","1","1","1","",""
"","feedback","","html-keyboard-response","463","479153","0.0-1.0-627.0-0.0","0","0","97216","","null","","","null","69","","","","","","","","","","","","","","","",""
"","ITI","","html-keyboard-response","464","480154","0.0-1.0-630.0","0","0","97216","","null","","","null","69","","","","","","","","","","","","","","","NaN",""
"","S1","","html-keyboard-response","465","480406","0.0-1.0-632.0","0","0","97216","","null","","","null","70","","","","","","","","","","","","","","","",""
"","ISI","","html-keyboard-response","466","481408","0.0-1.0-633.0","0","0","97216","","null","","","null","70","NaN","","","","","","","","","","","","","","",""
"","S2","","html-keyboard-response","467","481659","0.0-1.0-634.0","0","0","97216","","null","","","null","70","","NaN","","","","","","","","","","","","","",""
"","response","","html-keyboard-response","468","482627","0.0-1.0-635.0-0.0","0","0","97216","","967","","","68","70","","","2","70","training","adjacent","CB","3","2","O.jpg","R.jpg","1","0","0","",""
"","feedback","","html-keyboard-response","469","483630","0.0-1.0-636.0-0.0","0","0","97216","","null","","","null","70","","","","","","","","","","","","","","","",""
"","time_out","","html-keyboard-response","470","485632","0.0-1.0-638.0-0.0","0","0","97216","","null","","","null","70","","","","","","","","","","","","","","","",""
"","ITI","","html-keyboard-response","471","486634","0.0-1.0-639.0","0","0","97216","","null","","","null","70","","","","","","","","","","","","","","","NaN",""
"","S1","","html-keyboard-response","472","486885","0.0-1.0-641.0","0","0","97216","","null","","","null","71","","","","","","","","","","","","","","","",""
"","ISI","","html-keyboard-response","473","487887","0.0-1.0-642.0","0","0","97216","","null","","","null","71","NaN","","","","","","","","","","","","","","",""
"","S2","","html-keyboard-response","474","488139","0.0-1.0-643.0","0","0","97216","","null","","","null","71","","NaN","","","","","","","","","","","","","",""
"","response","","html-keyboard-response","475","488456","0.0-1.0-644.0-0.0","0","0","97216","","316","","","75","71","","","2","71","training","adjacent","BA","2","1","R.jpg","L.jpg","0","0","1","",""
"","feedback","","html-keyboard-response","476","489457","0.0-1.0-645.0-0.0","0","0","97216","","null","","","null","71","","","","","","","","","","","","","","","",""
"","ITI","","html-keyboard-response","477","490459","0.0-1.0-648.0","0","0","97216","","null","","","null","71","","","","","","","","","","","","","","","NaN",""
"","S1","","html-keyboard-response","478","490711","0.0-1.0-650.0","0","0","97216","","null","","","null","72","","","","","","","","","","","","","","","",""
"","ISI","","html-keyboard-response","479","491713","0.0-1.0-651.0","0","0","97216","","null","","","null","72","NaN","","","","","","","","","","","","","","",""
"","S2","","html-keyboard-response","480","491965","0.0-1.0-652.0","0","0","97216","","null","","","null","72","","NaN","","","","","","","","","","","","","",""
"","response","","html-keyboard-response","481","492776","0.0-1.0-653.0-0.0","0","0","97216","","810","","","68","72","","","2","72","training","adjacent","CD","3","4","O.jpg","M.jpg","1","1","1","",""
"","feedback","","html-keyboard-response","482","493777","0.0-1.0-654.0-0.0","0","0","97216","","null","","","null","72","","","","","","","","","","","","","","","",""
"","ITI","","html-keyboard-response","483","494779","0.0-1.0-657.0","0","0","97216","","null","","","null","72","","","","","","","","","","","","","","","NaN",""
"","S1","","html-keyboard-response","484","495031","0.0-1.0-659.0","0","0","97216","","null","","","null","73","","","","","","","","","","","","","","","",""
"","ISI","","html-keyboard-response","485","496033","0.0-1.0-660.0","0","0","97216","","null","","","null","73","NaN","","","","","","","","","","","","","","",""
"","S2","","html-keyboard-response","486","496286","0.0-1.0-661.0","0","0","97216","","null","","","null","73","","NaN","","","","","","","","","","","","","",""
"","response","","html-keyboard-response","487","496589","0.0-1.0-662.0-0.0","0","0","97216","","302","","","68","73","","","2","73","training","adjacent","EF","5","6","P.jpg","Q.jpg","1","1","1","",""
"","feedback","","html-keyboard-response","488","497591","0.0-1.0-663.0-0.0","0","0","97216","","null","","","null","73","","","","","","","","","","","","","","","",""
"","ITI","","html-keyboard-response","489","498592","0.0-1.0-666.0","0","0","97216","","null","","","null","73","","","","","","","","","","","","","","","NaN",""
"","S1","","html-keyboard-response","490","498844","0.0-1.0-668.0","0","0","97216","","null","","","null","74","","","","","","","","","","","","","","","",""
"","ISI","","html-keyboard-response","491","499846","0.0-1.0-669.0","0","0","97216","","null","","","null","74","NaN","","","","","","","","","","","","","","",""
"","S2","","html-keyboard-response","492","500098","0.0-1.0-670.0","0","0","97216","","null","","","null","74","","NaN","","","","","","","","","","","","","",""
"","response","","html-keyboard-response","493","500719","0.0-1.0-671.0-0.0","0","0","97216","","620","","","75","74","","","2","74","training","adjacent","CD","3","4","O.jpg","M.jpg","0","1","0","",""
"","feedback","","html-keyboard-response","494","501726","0.0-1.0-672.0-0.0","0","0","97216","","null","","","null","74","","","","","","","","","","","","","","","",""
"","time_out","","html-keyboard-response","495","503728","0.0-1.0-674.0-0.0","0","0","97216","","null","","","null","74","","","","","","","","","","","","","","","",""
"","ITI","","html-keyboard-response","496","504730","0.0-1.0-675.0","0","0","97216","","null","","","null","74","","","","","","","","","","","","","","","NaN",""
"","S1","","html-keyboard-response","497","504982","0.0-1.0-677.0","0","0","97216","","null","","","null","75","","","","","","","","","","","","","","","",""
"","ISI","","html-keyboard-response","498","505984","0.0-1.0-678.0","0","0","97216","","null","","","null","75","NaN","","","","","","","","","","","","","","",""
"","S2","","html-keyboard-response","499","506236","0.0-1.0-679.0","0","0","97216","","null","","","null","75","","NaN","","","","","","","","","","","","","",""
"","response","","html-keyboard-response","500","506894","0.0-1.0-680.0-0.0","0","0","97216","","657","","","75","75","","","2","75","training","adjacent","BA","2","1","R.jpg","L.jpg","0","0","1","",""
"","feedback","","html-keyboard-response","501","507896","0.0-1.0-681.0-0.0","0","0","97216","","null","","","null","75","","","","","","","","","","","","","","","",""
"","ITI","","html-keyboard-response","502","508898","0.0-1.0-684.0","0","0","97216","","null","","","null","75","","","","","","","","","","","","","","","NaN",""
"","S1","","html-keyboard-response","503","509150","0.0-1.0-686.0","0","0","97216","","null","","","null","76","","","","","","","","","","","","","","","",""
"","ISI","","html-keyboard-response","504","510152","0.0-1.0-687.0","0","0","97216","","null","","","null","76","NaN","","","","","","","","","","","","","","",""
"","S2","","html-keyboard-response","505","510415","0.0-1.0-688.0","0","0","97216","","null","","","null","76","","NaN","","","","","","","","","","","","","",""
"","response","","html-keyboard-response","506","510763","0.0-1.0-689.0-0.0","0","0","97216","","348","","","75","76","","","2","76","training","adjacent","AB","1","2","L.jpg","R.jpg","0","1","0","",""
"","feedback","","html-keyboard-response","507","511766","0.0-1.0-690.0-0.0","0","0","97216","","null","","","null","76","","","","","","","","","","","","","","","",""
"","time_out","","html-keyboard-response","508","513769","0.0-1.0-692.0-0.0","0","0","97216","","null","","","null","76","","","","","","","","","","","","","","","",""
"","ITI","","html-keyboard-response","509","514772","0.0-1.0-693.0","0","0","97216","","null","","","null","76","","","","","","","","","","","","","","","NaN",""
"","S1","","html-keyboard-response","510","515024","0.0-1.0-695.0","0","0","97216","","null","","","null","77","","","","","","","","","","","","","","","",""
"","ISI","","html-keyboard-response","511","516027","0.0-1.0-696.0","0","0","97216","","null","","","null","77","NaN","","","","","","","","","","","","","","",""
"","S2","","html-keyboard-response","512","516279","0.0-1.0-697.0","0","0","97216","","null","","","null","77","","NaN","","","","","","","","","","","","","",""
"","response","","html-keyboard-response","513","517628","0.0-1.0-698.0-0.0","0","0","97216","","1348","","","75","77","","","2","77","training","adjacent","ED","5","4","P.jpg","M.jpg","0","0","1","",""
"","feedback","","html-keyboard-response","514","518629","0.0-1.0-699.0-0.0","0","0","97216","","null","","","null","77","","","","","","","","","","","","","","","",""
"","ITI","","html-keyboard-response","515","519633","0.0-1.0-702.0","0","0","97216","","null","","","null","77","","","","","","","","","","","","","","","NaN",""
"","S1","","html-keyboard-response","516","519886","0.0-1.0-704.0","0","0","97216","","null","","","null","78","","","","","","","","","","","","","","","",""
"","ISI","","html-keyboard-response","517","520887","0.0-1.0-705.0","0","0","97216","","null","","","null","78","NaN","","","","","","","","","","","","","","",""
"","S2","","html-keyboard-response","518","521140","0.0-1.0-706.0","0","0","97216","","null","","","null","78","","NaN","","","","","","","","","","","","","",""
"","response","","html-keyboard-response","519","521666","0.0-1.0-707.0-0.0","0","0","97216","","525","","","68","78","","","2","78","training","adjacent","FE","6","5","Q.jpg","P.jpg","1","0","0","",""
"","feedback","","html-keyboard-response","520","522668","0.0-1.0-708.0-0.0","0","0","97216","","null","","","null","78","","","","","","","","","","","","","","","",""
"","time_out","","html-keyboard-response","521","524670","0.0-1.0-710.0-0.0","0","0","97216","","null","","","null","78","","","","","","","","","","","","","","","",""
"","ITI","","html-keyboard-response","522","525672","0.0-1.0-711.0","0","0","97216","","null","","","null","78","","","","","","","","","","","","","","","NaN",""
"","S1","","html-keyboard-response","523","525924","0.0-1.0-713.0","0","0","97216","","null","","","null","79","","","","","","","","","","","","","","","",""
"","ISI","","html-keyboard-response","524","526926","0.0-1.0-714.0","0","0","97216","","null","","","null","79","NaN","","","","","","","","","","","","","","",""
"","S2","","html-keyboard-response","525","527177","0.0-1.0-715.0","0","0","97216","","null","","","null","79","","NaN","","","","","","","","","","","","","",""
"","response","","html-keyboard-response","526","527708","0.0-1.0-716.0-0.0","0","0","97216","","529","","","75","79","","","2","79","training","adjacent","DC","4","3","M.jpg","O.jpg","0","0","1","",""
"","feedback","","html-keyboard-response","527","528710","0.0-1.0-717.0-0.0","0","0","97216","","null","","","null","79","","","","","","","","","","","","","","","",""
"","ITI","","html-keyboard-response","528","529716","0.0-1.0-720.0","0","0","97216","","null","","","null","79","","","","","","","","","","","","","","","NaN",""
"","S1","","html-keyboard-response","529","529968","0.0-1.0-722.0","0","0","97216","","null","","","null","80","","","","","","","","","","","","","","","",""
"","ISI","","html-keyboard-response","530","530970","0.0-1.0-723.0","0","0","97216","","null","","","null","80","NaN","","","","","","","","","","","","","","",""
"","S2","","html-keyboard-response","531","531222","0.0-1.0-724.0","0","0","97216","","null","","","null","80","","NaN","","","","","","","","","","","","","",""
"","response","","html-keyboard-response","532","531646","0.0-1.0-725.0-0.0","0","0","97216","","423","","","68","80","","","2","80","training","adjacent","EF","5","6","P.jpg","Q.jpg","1","1","1","",""
"","feedback","","html-keyboard-response","533","532648","0.0-1.0-726.0-0.0","0","0","97216","","null","","","null","80","","","","","","","","","","","","","","","",""
"","ITI","","html-keyboard-response","534","533650","0.0-1.0-729.0","0","0","97216","","null","","","null","80","","","","","","","","","","","","","","","NaN",""
"","S1","","html-keyboard-response","535","533903","0.0-1.0-731.0","0","0","97216","","null","","","null","81","","","","","","","","","","","","","","","",""
"","ISI","","html-keyboard-response","536","534904","0.0-1.0-732.0","0","0","97216","","null","","","null","81","NaN","","","","","","","","","","","","","","",""
"","S2","","html-keyboard-response","537","535156","0.0-1.0-733.0","0","0","97216","","null","","","null","81","","NaN","","","","","","","","","","","","","",""
"","response","","html-keyboard-response","538","536517","0.0-1.0-734.0-0.0","0","0","97216","","1361","","","75","81","","","2","81","training","adjacent","DC","4","3","M.jpg","O.jpg","0","0","1","",""
"","feedback","","html-keyboard-response","539","537519","0.0-1.0-735.0-0.0","0","0","97216","","null","","","null","81","","","","","","","","","","","","","","","",""
"","ITI","","html-keyboard-response","540","538521","0.0-1.0-738.0","0","0","97216","","null","","","null","81","","","","","","","","","","","","","","","NaN",""
"","S1","","html-keyboard-response","541","538773","0.0-1.0-740.0","0","0","97216","","null","","","null","82","","","","","","","","","","","","","","","",""
"","ISI","","html-keyboard-response","542","539774","0.0-1.0-741.0","0","0","97216","","null","","","null","82","NaN","","","","","","","","","","","","","","",""
"","S2","","html-keyboard-response","543","540027","0.0-1.0-742.0","0","0","97216","","null","","","null","82","","NaN","","","","","","","","","","","","","",""
"","response","","html-keyboard-response","544","540780","0.0-1.0-743.0-0.0","0","0","97216","","752","","","68","82","","","2","82","training","adjacent","BC","2","3","R.jpg","O.jpg","1","1","1","",""
"","feedback","","html-keyboard-response","545","541782","0.0-1.0-744.0-0.0","0","0","97216","","null","","","null","82","","","","","","","","","","","","","","","",""
"","ITI","","html-keyboard-response","546","542785","0.0-1.0-747.0","0","0","97216","","null","","","null","82","","","","","","","","","","","","","","","NaN",""
"","S1","","html-keyboard-response","547","543036","0.0-1.0-749.0","0","0","97216","","null","","","null","83","","","","","","","","","","","","","","","",""
"","ISI","","html-keyboard-response","548","544038","0.0-1.0-750.0","0","0","97216","","null","","","null","83","NaN","","","","","","","","","","","","","","",""
"","S2","","html-keyboard-response","549","544289","0.0-1.0-751.0","0","0","97216","","null","","","null","83","","NaN","","","","","","","","","","","","","",""
"","response","","html-keyboard-response","550","544629","0.0-1.0-752.0-0.0","0","0","97216","","338","","","68","83","","","2","83","training","adjacent","EF","5","6","P.jpg","Q.jpg","1","1","1","",""
"","feedback","","html-keyboard-response","551","545631","0.0-1.0-753.0-0.0","0","0","97216","","null","","","null","83","","","","","","","","","","","","","","","",""
"","ITI","","html-keyboard-response","552","546633","0.0-1.0-756.0","0","0","97216","","null","","","null","83","","","","","","","","","","","","","","","NaN",""
"","S1","","html-keyboard-response","553","546885","0.0-1.0-758.0","0","0","97216","","null","","","null","84","","","","","","","","","","","","","","","",""
"","ISI","","html-keyboard-response","554","547886","0.0-1.0-759.0","0","0","97216","","null","","","null","84","NaN","","","","","","","","","","","","","","",""
"","S2","","html-keyboard-response","555","548139","0.0-1.0-760.0","0","0","97216","","null","","","null","84","","NaN","","","","","","","","","","","","","",""
"","response","","html-keyboard-response","556","549703","0.0-1.0-761.0-0.0","0","0","97216","","1563","","","75","84","","","2","84","training","adjacent","DE","4","5","M.jpg","P.jpg","0","1","0","",""
"","feedback","","html-keyboard-response","557","550705","0.0-1.0-762.0-0.0","0","0","97216","","null","","","null","84","","","","","","","","","","","","","","","",""
"","time_out","","html-keyboard-response","558","552707","0.0-1.0-764.0-0.0","0","0","97216","","null","","","null","84","","","","","","","","","","","","","","","",""
"","ITI","","html-keyboard-response","559","553709","0.0-1.0-765.0","0","0","97216","","null","","","null","84","","","","","","","","","","","","","","","NaN",""
"","S1","","html-keyboard-response","560","553962","0.0-1.0-767.0","0","0","97216","","null","","","null","85","","","","","","","","","","","","","","","",""
"","ISI","","html-keyboard-response","561","554965","0.0-1.0-768.0","0","0","97216","","null","","","null","85","NaN","","","","","","","","","","","","","","",""
"","S2","","html-keyboard-response","562","555216","0.0-1.0-769.0","0","0","97216","","null","","","null","85","","NaN","","","","","","","","","","","","","",""
"","response","","html-keyboard-response","563","556080","0.0-1.0-770.0-0.0","0","0","97216","","862","","","75","85","","","2","85","training","adjacent","GF","7","6","N.jpg","Q.jpg","0","0","1","",""
"","feedback","","html-keyboard-response","564","557082","0.0-1.0-771.0-0.0","0","0","97216","","null","","","null","85","","","","","","","","","","","","","","","",""
"","ITI","","html-keyboard-response","565","558083","0.0-1.0-774.0","0","0","97216","","null","","","null","85","","","","","","","","","","","","","","","NaN",""
"","S1","","html-keyboard-response","566","558334","0.0-1.0-776.0","0","0","97216","","null","","","null","86","","","","","","","","","","","","","","","",""
"","ISI","","html-keyboard-response","567","559337","0.0-1.0-777.0","0","0","97216","","null","","","null","86","NaN","","","","","","","","","","","","","","",""
"","S2","","html-keyboard-response","568","559589","0.0-1.0-778.0","0","0","97216","","null","","","null","86","","NaN","","","","","","","","","","","","","",""
"","response","","html-keyboard-response","569","560805","0.0-1.0-779.0-0.0","0","0","97216","","1215","","","68","86","","","2","86","training","adjacent","BC","2","3","R.jpg","O.jpg","1","1","1","",""
"","feedback","","html-keyboard-response","570","561806","0.0-1.0-780.0-0.0","0","0","97216","","null","","","null","86","","","","","","","","","","","","","","","",""
"","ITI","","html-keyboard-response","571","562809","0.0-1.0-783.0","0","0","97216","","null","","","null","86","","","","","","","","","","","","","","","NaN",""
"","S1","","html-keyboard-response","572","563060","0.0-1.0-785.0","0","0","97216","","null","","","null","87","","","","","","","","","","","","","","","",""
"","ISI","","html-keyboard-response","573","564063","0.0-1.0-786.0","0","0","97216","","null","","","null","87","NaN","","","","","","","","","","","","","","",""
"","S2","","html-keyboard-response","574","564314","0.0-1.0-787.0","0","0","97216","","null","","","null","87","","NaN","","","","","","","","","","","","","",""
"","response","","html-keyboard-response","575","564833","0.0-1.0-788.0-0.0","0","0","97216","","517","","","68","87","","","2","87","training","adjacent","AB","1","2","L.jpg","R.jpg","1","1","1","",""
"","feedback","","html-keyboard-response","576","565835","0.0-1.0-789.0-0.0","0","0","97216","","null","","","null","87","","","","","","","","","","","","","","","",""
"","ITI","","html-keyboard-response","577","566838","0.0-1.0-792.0","0","0","97216","","null","","","null","87","","","","","","","","","","","","","","","NaN",""
"","S1","","html-keyboard-response","578","567090","0.0-1.0-794.0","0","0","97216","","null","","","null","88","","","","","","","","","","","","","","","",""
"","ISI","","html-keyboard-response","579","568091","0.0-1.0-795.0","0","0","97216","","null","","","null","88","NaN","","","","","","","","","","","","","","",""
"","S2","","html-keyboard-response","580","568342","0.0-1.0-796.0","0","0","97216","","null","","","null","88","","NaN","","","","","","","","","","","","","",""
