"success","ttype","start_time","trial_type","trial_index","time_elapsed","internal_node_id","warning","missed_checkup","PID","view_history","rt","responses","repeat_instructions","key_press","index","keypress_isi","keypress_S2","block","trial_num","phase","group_type","pair_type","S1_stim","S2_stim","S1_img","S2_img","S1_chosen","S1_higher","accuracy","keypress_iti","total_bonus_tally"
"true","full_screen","d03032023hr1948","fullscreen","0","3542","0.0-0.0","0","0","41004","","","","","","","","","","","","","","","","","","","","","",""
"","instructions","","instructions","1","20755","0.0-1.0-0.0-0.0","0","0","41004","[{""page_index"":0,""viewing_time"":11813},{""page_index"":1,""viewing_time"":1809},{""page_index"":2,""viewing_time"":1819},{""page_index"":3,""viewing_time"":1760}]","17202","","","","","","","","","","","","","","","","","","","",""
"","comprehension_check","","survey-multi-choice","2","50886","0.0-1.0-0.0-1.0","0","0","41004","","30106","{""Q0"":""True"",""Q1"":""K"",""Q2"":""Only when the screen 'MAKE A CHOICE' is shown"",""Q3"":""Green mark"",""Q4"":""either D or K""}","1","","","","","","","","","","","","","","","","","",""
"","missed_instruction_checkup","","html-keyboard-response","3","57274","0.0-1.0-0.0-2.0-0.0","0","1","41004","","6375","","","32","","","","","","","","","","","","","","","","",""
"","instructions","","instructions","4","75320","0.0-1.0-0.1-0.1","0","0","41004","[{""page_index"":0,""viewing_time"":9556},{""page_index"":1,""viewing_time"":3935},{""page_index"":2,""viewing_time"":3317},{""page_index"":3,""viewing_time"":1228}]","18036","","","","","","","","","","","","","","","","","","","",""
"","comprehension_check","","survey-multi-choice","5","103987","0.0-1.0-0.1-1.1","0","0","41004","","28647","{""Q0"":""True"",""Q1"":""K"",""Q2"":""Once the second image appears and while the screen 'MAKE A CHOICE' is shown"",""Q3"":""Green mark"",""Q4"":""either D or K""}","1","","","","","","","","","","","","","","","","","",""
"","missed_instruction_checkup","","html-keyboard-response","6","105992","0.0-1.0-0.1-2.1-0.1","0","1","41004","","1995","","","32","","","","","","","","","","","","","","","","",""
"","instructions","","instructions","7","113080","0.0-1.0-0.2-0.2","0","0","41004","[{""page_index"":0,""viewing_time"":2982},{""page_index"":1,""viewing_time"":1602},{""page_index"":2,""viewing_time"":1272},{""page_index"":3,""viewing_time"":1226}]","7083","","","","","","","","","","","","","","","","","","","",""
"","comprehension_check","","survey-multi-choice","8","124984","0.0-1.0-0.2-1.2","0","0","41004","","11891","{""Q0"":""True"",""Q1"":""K"",""Q2"":""Once the second image appears and while the screen 'MAKE A CHOICE' is shown"",""Q3"":""Green mark"",""Q4"":""either D or K""}","1","","","","","","","","","","","","","","","","","",""
"","missed_instruction_checkup","","html-keyboard-response","9","127634","0.0-1.0-0.2-2.2-0.2","0","1","41004","","2642","","","32","","","","","","","","","","","","","","","","",""
"","instructions","","instructions","10","133082","0.0-1.0-0.3-0.3","0","0","41004","[{""page_index"":0,""viewing_time"":1341},{""page_index"":1,""viewing_time"":2490},{""page_index"":2,""viewing_time"":429},{""page_index"":3,""viewing_time"":1180}]","5441","","","","","","","","","","","","","","","","","","","",""
"","comprehension_check","","survey-multi-choice","11","147051","0.0-1.0-0.3-1.3","0","0","41004","","13953","{""Q0"":""True"",""Q1"":""D"",""Q2"":""Once the second image appears and while the screen 'MAKE A CHOICE' is shown"",""Q3"":""Green mark"",""Q4"":""either D or K""}","0","","","","","","","","","","","","","","","","","",""
"","start_exp","","html-keyboard-response","12","150156","0.0-1.0-1.0","0","0","41004","","3089","","","32","","","","","","","","","","","","","","","","",""
"","S1","","html-keyboard-response","13","150419","0.0-1.0-2.0","0","0","41004","","null","","","null","0","","","","","","","","","","","","","","","",""
"","ISI","","html-keyboard-response","14","150927","0.0-1.0-3.0","0","0","41004","","null","","","null","0","NaN","","","","","","","","","","","","","","",""
"","S2","","html-keyboard-response","15","151184","0.0-1.0-4.0","0","0","41004","","null","","","null","0","","NaN","","","","","","","","","","","","","",""
"","response","","html-keyboard-response","16","152941","0.0-1.0-5.0-0.0","0","0","41004","","null","","","null","0","","","1","0","training","adjacent","EF","5","6","R.jpg","L.jpg","NaN","1","0","",""
"","too_slow_prompt","","html-keyboard-response","17","153948","0.0-1.0-7.0-0.0","1","0","41004","","null","","","null","","","","","","","","","","","","","","","","",""
"","time_out","","html-keyboard-response","18","155992","0.0-1.0-8.0-0.0","0","0","41004","","null","","","null","0","","","","","","","","","","","","","","","",""
"","ITI","","html-keyboard-response","19","156998","0.0-1.0-9.0","0","0","41004","","5","","","68","0","","","","","","","","","","","","","","","d",""
"","S1","","html-keyboard-response","20","157255","0.0-1.0-11.0","0","0","41004","","null","","","null","1","","","","","","","","","","","","","","","",""
"","ISI","","html-keyboard-response","21","157772","0.0-1.0-12.0","0","0","41004","","18","","","68","1","d","","","","","","","","","","","","","","",""
"","S2","","html-keyboard-response","22","157785","0.0-1.0-13.0","0","0","41004","","9","","","68","1","","d","1","1","training","adjacent","GF","7","6","O.jpg","L.jpg","1","0","0","",""
"","feedback","","html-keyboard-response","23","158794","0.0-1.0-15.0-0.0","0","0","41004","","null","","","null","1","","","","","","","","","","","","","","","",""
"","time_out","","html-keyboard-response","24","160798","0.0-1.0-17.0-0.0","0","0","41004","","null","","","null","1","","","","","","","","","","","","","","","",""
"","ITI","","html-keyboard-response","25","161804","0.0-1.0-18.0","0","0","41004","","94","","","75","1","","","","","","","","","","","","","","","k",""
"","S1","","html-keyboard-response","26","162059","0.0-1.0-20.0","0","0","41004","","null","","","null","2","","","","","","","","","","","","","","","",""
"","ISI","","html-keyboard-response","27","162645","0.0-1.0-21.0","0","0","41004","","6","","","75","2","k","","","","","","","","","","","","","","",""
"","S2","","html-keyboard-response","28","162650","0.0-1.0-22.0","0","0","41004","","1","","","68","2","","d","1","2","training","adjacent","AB","1","2","Q.jpg","P.jpg","1","1","1","",""
"","feedback","","html-keyboard-response","29","163657","0.0-1.0-24.0-0.0","0","0","41004","","null","","","null","2","","","","","","","","","","","","","","","",""
"","ITI","","html-keyboard-response","30","164665","0.0-1.0-27.0","0","0","41004","","144","","","75","2","","","","","","","","","","","","","","","k",""
"","S1","","html-keyboard-response","31","164918","0.0-1.0-29.0","0","0","41004","","null","","","null","3","","","","","","","","","","","","","","","",""
"","ISI","","html-keyboard-response","32","165431","0.0-1.0-30.0","0","0","41004","","156","","","68","3","d","","","","","","","","","","","","","","",""
"","S2","","html-keyboard-response","33","165480","0.0-1.0-31.0","0","0","41004","","44","","","68","3","","d","1","3","training","adjacent","DE","4","5","N.jpg","R.jpg","1","1","1","",""
"","feedback","","html-keyboard-response","34","166487","0.0-1.0-33.0-0.0","0","0","41004","","null","","","null","3","","","","","","","","","","","","","","","",""
"","ITI","","html-keyboard-response","35","167494","0.0-1.0-36.0","0","0","41004","","184","","","75","3","","","","","","","","","","","","","","","k",""
"","S1","","html-keyboard-response","36","167752","0.0-1.0-38.0","0","0","41004","","null","","","null","4","","","","","","","","","","","","","","","",""
"","ISI","","html-keyboard-response","37","168256","0.0-1.0-39.0","0","0","41004","","10","","","75","4","k","","","","","","","","","","","","","","",""
"","S2","","html-keyboard-response","38","168414","0.0-1.0-40.0","0","0","41004","","155","","","68","4","","d","1","4","training","adjacent","CD","3","4","M.jpg","N.jpg","1","1","1","",""
"","feedback","","html-keyboard-response","39","169496","0.0-1.0-42.0-0.0","0","0","41004","","null","","","null","4","","","","","","","","","","","","","","","",""
"","ITI","","html-keyboard-response","40","170501","0.0-1.0-45.0","0","0","41004","","4","","","75","4","","","","","","","","","","","","","","","k",""
"","S1","","html-keyboard-response","41","170840","0.0-1.0-47.0","0","0","41004","","null","","","null","5","","","","","","","","","","","","","","","",""
"","ISI","","html-keyboard-response","42","171353","0.0-1.0-48.0","0","0","41004","","57","","","68","5","d","","","","","","","","","","","","","","",""
"","S2","","html-keyboard-response","43","171379","0.0-1.0-49.0","0","0","41004","","21","","","68","5","","d","1","5","training","adjacent","FG","6","7","L.jpg","O.jpg","1","1","1","",""
"","feedback","","html-keyboard-response","44","172386","0.0-1.0-51.0-0.0","0","0","41004","","null","","","null","5","","","","","","","","","","","","","","","",""
"","ITI","","html-keyboard-response","45","173393","0.0-1.0-54.0","0","0","41004","","49","","","68","5","","","","","","","","","","","","","","","d",""
"","S1","","html-keyboard-response","46","173648","0.0-1.0-56.0","0","0","41004","","null","","","null","6","","","","","","","","","","","","","","","",""
"","ISI","","html-keyboard-response","47","174154","0.0-1.0-57.0","0","0","41004","","56","","","68","6","d","","","","","","","","","","","","","","",""
"","S2","","html-keyboard-response","48","174351","0.0-1.0-58.0","0","0","41004","","189","","","68","6","","d","1","6","training","adjacent","CB","3","2","M.jpg","P.jpg","1","0","0","",""
"","feedback","","html-keyboard-response","49","175358","0.0-1.0-60.0-0.0","0","0","41004","","null","","","null","6","","","","","","","","","","","","","","","",""
"","time_out","","html-keyboard-response","50","177396","0.0-1.0-62.0-0.0","0","0","41004","","null","","","null","6","","","","","","","","","","","","","","","",""
"","ITI","","html-keyboard-response","51","178400","0.0-1.0-63.0","0","0","41004","","3","","","68","6","","","","","","","","","","","","","","","d",""
"","S1","","html-keyboard-response","52","178654","0.0-1.0-65.0","0","0","41004","","null","","","null","7","","","","","","","","","","","","","","","",""
"","ISI","","html-keyboard-response","53","179158","0.0-1.0-66.0","0","0","41004","","61","","","68","7","d","","","","","","","","","","","","","","",""
"","S2","","html-keyboard-response","54","179267","0.0-1.0-67.0","0","0","41004","","99","","","68","7","","d","1","7","training","adjacent","ED","5","4","R.jpg","N.jpg","1","0","0","",""
"","feedback","","html-keyboard-response","55","180289","0.0-1.0-69.0-0.0","0","0","41004","","null","","","null","7","","","","","","","","","","","","","","","",""
"","time_out","","html-keyboard-response","56","182293","0.0-1.0-71.0-0.0","0","0","41004","","null","","","null","7","","","","","","","","","","","","","","","",""
"","ITI","","html-keyboard-response","57","183298","0.0-1.0-72.0","0","0","41004","","130","","","68","7","","","","","","","","","","","","","","","d",""
"","S1","","html-keyboard-response","58","183556","0.0-1.0-74.0","0","0","41004","","null","","","null","8","","","","","","","","","","","","","","","",""
"","ISI","","html-keyboard-response","59","184059","0.0-1.0-75.0","0","0","41004","","46","","","75","8","k","","","","","","","","","","","","","","",""
"","S2","","html-keyboard-response","60","184199","0.0-1.0-76.0","0","0","41004","","133","","","75","8","","k","1","8","training","adjacent","BA","2","1","P.jpg","Q.jpg","0","0","1","",""
"","feedback","","html-keyboard-response","61","185206","0.0-1.0-78.0-0.0","0","0","41004","","null","","","null","8","","","","","","","","","","","","","","","",""
"","ITI","","html-keyboard-response","62","186222","0.0-1.0-81.0","0","0","41004","","58","","","75","8","","","","","","","","","","","","","","","k",""
"","S1","","html-keyboard-response","63","186478","0.0-1.0-83.0","0","0","41004","","null","","","null","9","","","","","","","","","","","","","","","",""
"","ISI","","html-keyboard-response","64","186984","0.0-1.0-84.0","0","0","41004","","75","","","75","9","k","","","","","","","","","","","","","","",""
"","S2","","html-keyboard-response","65","187078","0.0-1.0-85.0","0","0","41004","","87","","","75","9","","k","1","9","training","adjacent","AB","1","2","Q.jpg","P.jpg","0","1","0","",""
"","feedback","","html-keyboard-response","66","188094","0.0-1.0-87.0-0.0","0","0","41004","","null","","","null","9","","","","","","","","","","","","","","","",""
"","time_out","","html-keyboard-response","67","190145","0.0-1.0-89.0-0.0","0","0","41004","","null","","","null","9","","","","","","","","","","","","","","","",""
"","ITI","","html-keyboard-response","68","191148","0.0-1.0-90.0","0","0","41004","","89","","","75","9","","","","","","","","","","","","","","","k",""
"","S1","","html-keyboard-response","69","191405","0.0-1.0-92.0","0","0","41004","","null","","","null","10","","","","","","","","","","","","","","","",""
"","ISI","","html-keyboard-response","70","191952","0.0-1.0-93.0","0","0","41004","","138","","","75","10","k","","","","","","","","","","","","","","",""
"","S2","","html-keyboard-response","71","192158","0.0-1.0-94.0","0","0","41004","","201","","","68","10","","d","1","10","training","adjacent","DC","4","3","N.jpg","M.jpg","1","0","0","",""
"","feedback","","html-keyboard-response","72","193165","0.0-1.0-96.0-0.0","0","0","41004","","null","","","null","10","","","","","","","","","","","","","","","",""
"","time_out","","html-keyboard-response","73","195200","0.0-1.0-98.0-0.0","0","0","41004","","null","","","null","10","","","","","","","","","","","","","","","",""
"","ITI","","html-keyboard-response","74","196269","0.0-1.0-99.0","0","0","41004","","53","","","68","10","","","","","","","","","","","","","","","d",""
"","S1","","html-keyboard-response","75","196525","0.0-1.0-101.0","0","0","41004","","null","","","null","11","","","","","","","","","","","","","","","",""
"","ISI","","html-keyboard-response","76","197036","0.0-1.0-102.0","0","0","41004","","148","","","75","11","k","","","","","","","","","","","","","","",""
"","S2","","html-keyboard-response","77","197059","0.0-1.0-103.0","0","0","41004","","10","","","68","11","","d","1","11","training","adjacent","CB","3","2","M.jpg","P.jpg","1","0","0","",""
"","feedback","","html-keyboard-response","78","198067","0.0-1.0-105.0-0.0","0","0","41004","","null","","","null","11","","","","","","","","","","","","","","","",""
"","time_out","","html-keyboard-response","79","200160","0.0-1.0-107.0-0.0","0","0","41004","","null","","","null","11","","","","","","","","","","","","","","","",""
"","ITI","","html-keyboard-response","80","201274","0.0-1.0-108.0","0","0","41004","","102","","","68","11","","","","","","","","","","","","","","","d",""
"","S1","","html-keyboard-response","81","201530","0.0-1.0-110.0","0","0","41004","","null","","","null","12","","","","","","","","","","","","","","","",""
"","ISI","","html-keyboard-response","82","202049","0.0-1.0-111.0","0","0","41004","","269","","","68","12","d","","","","","","","","","","","","","","",""
"","S2","","html-keyboard-response","83","202075","0.0-1.0-112.0","0","0","41004","","21","","","68","12","","d","1","12","training","adjacent","FG","6","7","L.jpg","O.jpg","1","1","1","",""
"","feedback","","html-keyboard-response","84","203137","0.0-1.0-114.0-0.0","0","0","41004","","null","","","null","12","","","","","","","","","","","","","","","",""
"","ITI","","html-keyboard-response","85","204145","0.0-1.0-117.0","0","0","41004","","9","","","68","12","","","","","","","","","","","","","","","d",""
"","S1","","html-keyboard-response","86","204445","0.0-1.0-119.0","0","0","41004","","null","","","null","13","","","","","","","","","","","","","","","",""
"","ISI","","html-keyboard-response","87","204956","0.0-1.0-120.0","0","0","41004","","13","","","75","13","k","","","","","","","","","","","","","","",""
"","S2","","html-keyboard-response","88","204968","0.0-1.0-121.0","0","0","41004","","3","","","75","13","","k","1","13","training","adjacent","CD","3","4","M.jpg","N.jpg","0","1","0","",""
"","feedback","","html-keyboard-response","89","205981","0.0-1.0-123.0-0.0","0","0","41004","","null","","","null","13","","","","","","","","","","","","","","","",""
"","time_out","","html-keyboard-response","90","207992","0.0-1.0-125.0-0.0","0","0","41004","","null","","","null","13","","","","","","","","","","","","","","","",""
"","ITI","","html-keyboard-response","91","209000","0.0-1.0-126.0","0","0","41004","","91","","","68","13","","","","","","","","","","","","","","","d",""
"","S1","","html-keyboard-response","92","209259","0.0-1.0-128.0","0","0","41004","","null","","","null","14","","","","","","","","","","","","","","","",""
"","ISI","","html-keyboard-response","93","209770","0.0-1.0-129.0","0","0","41004","","123","","","68","14","d","","","","","","","","","","","","","","",""
"","S2","","html-keyboard-response","94","209921","0.0-1.0-130.0","0","0","41004","","142","","","75","14","","k","1","14","training","adjacent","BC","2","3","P.jpg","M.jpg","0","1","0","",""
"","feedback","","html-keyboard-response","95","211005","0.0-1.0-132.0-0.0","0","0","41004","","null","","","null","14","","","","","","","","","","","","","","","",""
"","time_out","","html-keyboard-response","96","213031","0.0-1.0-134.0-0.0","0","0","41004","","null","","","null","14","","","","","","","","","","","","","","","",""
"","ITI","","html-keyboard-response","97","214127","0.0-1.0-135.0","0","0","41004","","122","","","75","14","","","","","","","","","","","","","","","k",""
"","S1","","html-keyboard-response","98","214387","0.0-1.0-137.0","0","0","41004","","null","","","null","15","","","","","","","","","","","","","","","",""
"","ISI","","html-keyboard-response","99","214898","0.0-1.0-138.0","0","0","41004","","14","","","75","15","k","","","","","","","","","","","","","","",""
"","S2","","html-keyboard-response","100","215010","0.0-1.0-139.0","0","0","41004","","106","","","75","15","","k","1","15","training","adjacent","DE","4","5","N.jpg","R.jpg","0","1","0","",""
"","feedback","","html-keyboard-response","101","216020","0.0-1.0-141.0-0.0","0","0","41004","","null","","","null","15","","","","","","","","","","","","","","","",""
"","time_out","","html-keyboard-response","102","218028","0.0-1.0-143.0-0.0","0","0","41004","","null","","","null","15","","","","","","","","","","","","","","","",""
"","ITI","","html-keyboard-response","103","219035","0.0-1.0-144.0","0","0","41004","","6","","","75","15","","","","","","","","","","","","","","","k",""
"","S1","","html-keyboard-response","104","219419","0.0-1.0-146.0","0","0","41004","","null","","","null","16","","","","","","","","","","","","","","","",""
"","ISI","","html-keyboard-response","105","219930","0.0-1.0-147.0","0","0","41004","","165","","","75","16","k","","","","","","","","","","","","","","",""
"","S2","","html-keyboard-response","106","219988","0.0-1.0-148.0","0","0","41004","","52","","","75","16","","k","1","16","training","adjacent","GF","7","6","O.jpg","L.jpg","0","0","1","",""
"","feedback","","html-keyboard-response","107","221026","0.0-1.0-150.0-0.0","0","0","41004","","null","","","null","16","","","","","","","","","","","","","","","",""
"","ITI","","html-keyboard-response","108","222042","0.0-1.0-153.0","0","0","41004","","127","","","75","16","","","","","","","","","","","","","","","k",""
"","S1","","html-keyboard-response","109","222335","0.0-1.0-155.0","0","0","41004","","null","","","null","17","","","","","","","","","","","","","","","",""
"","ISI","","html-keyboard-response","110","222839","0.0-1.0-156.0","0","0","41004","","108","","","68","17","d","","","","","","","","","","","","","","",""
"","S2","","html-keyboard-response","111","223055","0.0-1.0-157.0","0","0","41004","","206","","","68","17","","d","1","17","training","adjacent","BA","2","1","P.jpg","Q.jpg","1","0","0","",""
"","feedback","","html-keyboard-response","112","224117","0.0-1.0-159.0-0.0","0","0","41004","","null","","","null","17","","","","","","","","","","","","","","","",""
"","time_out","","html-keyboard-response","113","226123","0.0-1.0-161.0-0.0","0","0","41004","","null","","","null","17","","","","","","","","","","","","","","","",""
"","ITI","","html-keyboard-response","114","227129","0.0-1.0-162.0","0","0","41004","","131","","","68","17","","","","","","","","","","","","","","","d",""
"","S1","","html-keyboard-response","115","227383","0.0-1.0-164.0","0","0","41004","","null","","","null","18","","","","","","","","","","","","","","","",""
"","ISI","","html-keyboard-response","116","227888","0.0-1.0-165.0","0","0","41004","","136","","","68","18","d","","","","","","","","","","","","","","",""
"","S2","","html-keyboard-response","117","228018","0.0-1.0-166.0","0","0","41004","","124","","","68","18","","d","1","18","training","adjacent","DC","4","3","N.jpg","M.jpg","1","0","0","",""
"","feedback","","html-keyboard-response","118","229026","0.0-1.0-168.0-0.0","0","0","41004","","null","","","null","18","","","","","","","","","","","","","","","",""
"","time_out","","html-keyboard-response","119","231033","0.0-1.0-170.0-0.0","0","0","41004","","null","","","null","18","","","","","","","","","","","","","","","",""
"","ITI","","html-keyboard-response","120","232041","0.0-1.0-171.0","0","0","41004","","219","","","75","18","","","","","","","","","","","","","","","k",""
"","S1","","html-keyboard-response","121","232311","0.0-1.0-173.0","0","0","41004","","null","","","null","19","","","","","","","","","","","","","","","",""
"","ISI","","html-keyboard-response","122","232817","0.0-1.0-174.0","0","0","41004","","213","","","75","19","k","","","","","","","","","","","","","","",""
"","S2","","html-keyboard-response","123","233038","0.0-1.0-175.0","0","0","41004","","216","","","75","19","","k","1","19","training","adjacent","ED","5","4","R.jpg","N.jpg","0","0","1","",""
"","feedback","","html-keyboard-response","124","234044","0.0-1.0-177.0-0.0","0","0","41004","","null","","","null","19","","","","","","","","","","","","","","","",""
"","ITI","","html-keyboard-response","125","235051","0.0-1.0-180.0","0","0","41004","","99","","","75","19","","","","","","","","","","","","","","","k",""
"","S1","","html-keyboard-response","126","235307","0.0-1.0-182.0","0","0","41004","","null","","","null","20","","","","","","","","","","","","","","","",""
"","ISI","","html-keyboard-response","127","235814","0.0-1.0-183.0","0","0","41004","","167","","","75","20","k","","","","","","","","","","","","","","",""
"","S2","","html-keyboard-response","128","235887","0.0-1.0-184.0","0","0","41004","","59","","","75","20","","k","1","20","training","adjacent","CD","3","4","M.jpg","N.jpg","0","1","0","",""
"","feedback","","html-keyboard-response","129","237047","0.0-1.0-186.0-0.0","0","0","41004","","null","","","null","20","","","","","","","","","","","","","","","",""
"","time_out","","html-keyboard-response","130","239070","0.0-1.0-188.0-0.0","0","0","41004","","null","","","null","20","","","","","","","","","","","","","","","",""
"","ITI","","html-keyboard-response","131","240077","0.0-1.0-189.0","0","0","41004","","85","","","68","20","","","","","","","","","","","","","","","d",""
"","S1","","html-keyboard-response","132","240333","0.0-1.0-191.0","0","0","41004","","null","","","null","21","","","","","","","","","","","","","","","",""
"","ISI","","html-keyboard-response","133","240836","0.0-1.0-192.0","0","0","41004","","80","","","68","21","d","","","","","","","","","","","","","","",""
"","S2","","html-keyboard-response","134","240937","0.0-1.0-193.0","0","0","41004","","96","","","68","21","","d","1","21","training","adjacent","DE","4","5","N.jpg","R.jpg","1","1","1","",""
"","feedback","","html-keyboard-response","135","241942","0.0-1.0-195.0-0.0","0","0","41004","","null","","","null","21","","","","","","","","","","","","","","","",""
"","ITI","","html-keyboard-response","136","242985","0.0-1.0-198.0","0","0","41004","","202","","","75","21","","","","","","","","","","","","","","","k",""
"","S1","","html-keyboard-response","137","243378","0.0-1.0-200.0","0","0","41004","","null","","","null","22","","","","","","","","","","","","","","","",""
"","ISI","","html-keyboard-response","138","243890","0.0-1.0-201.0","0","0","41004","","56","","","75","22","k","","","","","","","","","","","","","","",""
"","S2","","html-keyboard-response","139","244035","0.0-1.0-202.0","0","0","41004","","140","","","75","22","","k","1","22","training","adjacent","BA","2","1","P.jpg","Q.jpg","0","0","1","",""
"","feedback","","html-keyboard-response","140","245041","0.0-1.0-204.0-0.0","0","0","41004","","null","","","null","22","","","","","","","","","","","","","","","",""
"","ITI","","html-keyboard-response","141","246047","0.0-1.0-207.0","0","0","41004","","3","","","75","22","","","","","","","","","","","","","","","k",""
"","S1","","html-keyboard-response","142","246303","0.0-1.0-209.0","0","0","41004","","null","","","null","23","","","","","","","","","","","","","","","",""
"","ISI","","html-keyboard-response","143","246805","0.0-1.0-210.0","0","0","41004","","221","","","75","23","k","","","","","","","","","","","","","","",""
"","S2","","html-keyboard-response","144","246813","0.0-1.0-211.0","0","0","41004","","4","","","75","23","","k","1","23","training","adjacent","FE","6","5","L.jpg","R.jpg","0","0","1","",""
"","feedback","","html-keyboard-response","145","247819","0.0-1.0-213.0-0.0","0","0","41004","","null","","","null","23","","","","","","","","","","","","","","","",""
"","ITI","","html-keyboard-response","146","248826","0.0-1.0-216.0","0","0","41004","","22","","","68","23","","","","","","","","","","","","","","","d",""
"","S1","","html-keyboard-response","147","249087","0.0-1.0-218.0","0","0","41004","","null","","","null","24","","","","","","","","","","","","","","","",""
"","ISI","","html-keyboard-response","148","249593","0.0-1.0-219.0","0","0","41004","","56","","","68","24","d","","","","","","","","","","","","","","",""
"","S2","","html-keyboard-response","149","249700","0.0-1.0-220.0","0","0","41004","","100","","","68","24","","d","1","24","training","adjacent","CB","3","2","M.jpg","P.jpg","1","0","0","",""
"","feedback","","html-keyboard-response","150","250708","0.0-1.0-222.0-0.0","0","0","41004","","null","","","null","24","","","","","","","","","","","","","","","",""
"","time_out","","html-keyboard-response","151","252721","0.0-1.0-224.0-0.0","0","0","41004","","null","","","null","24","","","","","","","","","","","","","","","",""
"","ITI","","html-keyboard-response","152","253737","0.0-1.0-225.0","0","0","41004","","161","","","68","24","","","","","","","","","","","","","","","d",""
"","S1","","html-keyboard-response","153","254036","0.0-1.0-227.0","0","0","41004","","null","","","null","25","","","","","","","","","","","","","","","",""
"","ISI","","html-keyboard-response","154","254541","0.0-1.0-228.0","0","0","41004","","6","","","68","25","d","","","","","","","","","","","","","","",""
"","S2","","html-keyboard-response","155","254678","0.0-1.0-229.0","0","0","41004","","131","","","75","25","","k","1","25","training","adjacent","CD","3","4","M.jpg","N.jpg","0","1","0","",""
"","feedback","","html-keyboard-response","156","255684","0.0-1.0-231.0-0.0","0","0","41004","","null","","","null","25","","","","","","","","","","","","","","","",""
"","time_out","","html-keyboard-response","157","257688","0.0-1.0-233.0-0.0","0","0","41004","","null","","","null","25","","","","","","","","","","","","","","","",""
"","ITI","","html-keyboard-response","158","258694","0.0-1.0-234.0","0","0","41004","","115","","","68","25","","","","","","","","","","","","","","","d",""
"","S1","","html-keyboard-response","159","258948","0.0-1.0-236.0","0","0","41004","","null","","","null","26","","","","","","","","","","","","","","","",""
"","ISI","","html-keyboard-response","160","259458","0.0-1.0-237.0","0","0","41004","","207","","","75","26","k","","","","","","","","","","","","","","",""
"","S2","","html-keyboard-response","161","259468","0.0-1.0-238.0","0","0","41004","","6","","","75","26","","k","1","26","training","adjacent","BC","2","3","P.jpg","M.jpg","0","1","0","",""
"","feedback","","html-keyboard-response","162","260473","0.0-1.0-240.0-0.0","0","0","41004","","null","","","null","26","","","","","","","","","","","","","","","",""
"","time_out","","html-keyboard-response","163","262481","0.0-1.0-242.0-0.0","0","0","41004","","null","","","null","26","","","","","","","","","","","","","","","",""
"","ITI","","html-keyboard-response","164","263486","0.0-1.0-243.0","0","0","41004","","252","","","75","26","","","","","","","","","","","","","","","k",""
"","S1","","html-keyboard-response","165","263750","0.0-1.0-245.0","0","0","41004","","null","","","null","27","","","","","","","","","","","","","","","",""
"","ISI","","html-keyboard-response","166","264257","0.0-1.0-246.0","0","0","41004","","8","","","75","27","k","","","","","","","","","","","","","","",""
"","S2","","html-keyboard-response","167","264438","0.0-1.0-247.0","0","0","41004","","174","","","75","27","","k","1","27","training","adjacent","BC","2","3","P.jpg","M.jpg","0","1","0","",""
"","feedback","","html-keyboard-response","168","265443","0.0-1.0-249.0-0.0","0","0","41004","","null","","","null","27","","","","","","","","","","","","","","","",""
"","time_out","","html-keyboard-response","169","267448","0.0-1.0-251.0-0.0","0","0","41004","","null","","","null","27","","","","","","","","","","","","","","","",""
"","ITI","","html-keyboard-response","170","268453","0.0-1.0-252.0","0","0","41004","","67","","","75","27","","","","","","","","","","","","","","","k",""
"","S1","","html-keyboard-response","171","268709","0.0-1.0-254.0","0","0","41004","","null","","","null","28","","","","","","","","","","","","","","","",""
"","ISI","","html-keyboard-response","172","269214","0.0-1.0-255.0","0","0","41004","","49","","","75","28","k","","","","","","","","","","","","","","",""
"","S2","","html-keyboard-response","173","269366","0.0-1.0-256.0","0","0","41004","","148","","","75","28","","k","1","28","training","adjacent","FE","6","5","L.jpg","R.jpg","0","0","1","",""
"","feedback","","html-keyboard-response","174","270375","0.0-1.0-258.0-0.0","0","0","41004","","null","","","null","28","","","","","","","","","","","","","","","",""
"","ITI","","html-keyboard-response","175","271381","0.0-1.0-261.0","0","0","41004","","87","","","75","28","","","","","","","","","","","","","","","k",""
"","S1","","html-keyboard-response","176","271636","0.0-1.0-263.0","0","0","41004","","null","","","null","29","","","","","","","","","","","","","","","",""
"","ISI","","html-keyboard-response","177","272179","0.0-1.0-264.0","0","0","41004","","50","","","75","29","k","","","","","","","","","","","","","","",""
"","S2","","html-keyboard-response","178","272305","0.0-1.0-265.0","0","0","41004","","122","","","75","29","","k","1","29","training","adjacent","DC","4","3","N.jpg","M.jpg","0","0","1","",""
"","feedback","","html-keyboard-response","179","273315","0.0-1.0-267.0-0.0","0","0","41004","","null","","","null","29","","","","","","","","","","","","","","","",""
"","ITI","","html-keyboard-response","180","274320","0.0-1.0-270.0","0","0","41004","","1","","","75","29","","","","","","","","","","","","","","","k",""
"","S1","","html-keyboard-response","181","274575","0.0-1.0-272.0","0","0","41004","","null","","","null","30","","","","","","","","","","","","","","","",""
"","ISI","","html-keyboard-response","182","275082","0.0-1.0-273.0","0","0","41004","","109","","","75","30","k","","","","","","","","","","","","","","",""
"","S2","","html-keyboard-response","183","275128","0.0-1.0-274.0","0","0","41004","","37","","","75","30","","k","1","30","training","adjacent","AB","1","2","Q.jpg","P.jpg","0","1","0","",""
"","feedback","","html-keyboard-response","184","276135","0.0-1.0-276.0-0.0","0","0","41004","","null","","","null","30","","","","","","","","","","","","","","","",""
"","time_out","","html-keyboard-response","185","278142","0.0-1.0-278.0-0.0","0","0","41004","","null","","","null","30","","","","","","","","","","","","","","","",""
"","ITI","","html-keyboard-response","186","279147","0.0-1.0-279.0","0","0","41004","","2","","","75","30","","","","","","","","","","","","","","","k",""
"","S1","","html-keyboard-response","187","279402","0.0-1.0-281.0","0","0","41004","","null","","","null","31","","","","","","","","","","","","","","","",""
"","ISI","","html-keyboard-response","188","279908","0.0-1.0-282.0","0","0","41004","","13","","","75","31","k","","","","","","","","","","","","","","",""
"","S2","","html-keyboard-response","189","280117","0.0-1.0-283.0","0","0","41004","","205","","","75","31","","k","1","31","training","adjacent","DE","4","5","N.jpg","R.jpg","0","1","0","",""
"","feedback","","html-keyboard-response","190","281127","0.0-1.0-285.0-0.0","0","0","41004","","null","","","null","31","","","","","","","","","","","","","","","",""
"","time_out","","html-keyboard-response","191","283144","0.0-1.0-287.0-0.0","0","0","41004","","null","","","null","31","","","","","","","","","","","","","","","",""
"","ITI","","html-keyboard-response","192","284150","0.0-1.0-288.0","0","0","41004","","30","","","68","31","","","","","","","","","","","","","","","d",""
"","S1","","html-keyboard-response","193","284405","0.0-1.0-290.0","0","0","41004","","null","","","null","32","","","","","","","","","","","","","","","",""
"","ISI","","html-keyboard-response","194","284910","0.0-1.0-291.0","0","0","41004","","50","","","68","32","d","","","","","","","","","","","","","","",""
"","S2","","html-keyboard-response","195","285096","0.0-1.0-292.0","0","0","41004","","182","","","68","32","","d","1","32","training","adjacent","GF","7","6","O.jpg","L.jpg","1","0","0","",""
"","feedback","","html-keyboard-response","196","286102","0.0-1.0-294.0-0.0","0","0","41004","","null","","","null","32","","","","","","","","","","","","","","","",""
"","time_out","","html-keyboard-response","197","288146","0.0-1.0-296.0-0.0","0","0","41004","","null","","","null","32","","","","","","","","","","","","","","","",""
"","ITI","","html-keyboard-response","198","289152","0.0-1.0-297.0","0","0","41004","","2","","","68","32","","","","","","","","","","","","","","","d",""
"","S1","","html-keyboard-response","199","289406","0.0-1.0-299.0","0","0","41004","","null","","","null","33","","","","","","","","","","","","","","","",""
"","ISI","","html-keyboard-response","200","289918","0.0-1.0-300.0","0","0","41004","","208","","","75","33","k","","","","","","","","","","","","","","",""
"","S2","","html-keyboard-response","201","289934","0.0-1.0-301.0","0","0","41004","","3","","","75","33","","k","1","33","training","adjacent","CB","3","2","M.jpg","P.jpg","0","0","1","",""
"","feedback","","html-keyboard-response","202","290942","0.0-1.0-303.0-0.0","0","0","41004","","null","","","null","33","","","","","","","","","","","","","","","",""
"","ITI","","html-keyboard-response","203","291948","0.0-1.0-306.0","0","0","41004","","209","","","68","33","","","","","","","","","","","","","","","d",""
"","S1","","html-keyboard-response","204","292218","0.0-1.0-308.0","0","0","41004","","null","","","null","34","","","","","","","","","","","","","","","",""
"","ISI","","html-keyboard-response","205","292724","0.0-1.0-309.0","0","0","41004","","115","","","68","34","d","","","","","","","","","","","","","","",""
"","S2","","html-keyboard-response","206","292929","0.0-1.0-310.0","0","0","41004","","199","","","68","34","","d","1","34","training","adjacent","FG","6","7","L.jpg","O.jpg","1","1","1","",""
"","feedback","","html-keyboard-response","207","294003","0.0-1.0-312.0-0.0","0","0","41004","","null","","","null","34","","","","","","","","","","","","","","","",""
"","ITI","","html-keyboard-response","208","295013","0.0-1.0-315.0","0","0","41004","","64","","","68","34","","","","","","","","","","","","","","","d",""
"","S1","","html-keyboard-response","209","295276","0.0-1.0-317.0","0","0","41004","","null","","","null","35","","","","","","","","","","","","","","","",""
"","ISI","","html-keyboard-response","210","295781","0.0-1.0-318.0","0","0","41004","","9","","","75","35","k","","","","","","","","","","","","","","",""
"","S2","","html-keyboard-response","211","295986","0.0-1.0-319.0","0","0","41004","","171","","","68","35","","d","1","35","training","adjacent","BA","2","1","P.jpg","Q.jpg","1","0","0","",""
"","feedback","","html-keyboard-response","212","297014","0.0-1.0-321.0-0.0","0","0","41004","","null","","","null","35","","","","","","","","","","","","","","","",""
"","time_out","","html-keyboard-response","213","299024","0.0-1.0-323.0-0.0","0","0","41004","","null","","","null","35","","","","","","","","","","","","","","","",""
"","ITI","","html-keyboard-response","214","300033","0.0-1.0-324.0","0","0","41004","","88","","","68","35","","","","","","","","","","","","","","","d",""
"","S1","","html-keyboard-response","215","300294","0.0-1.0-326.0","0","0","41004","","null","","","null","36","","","","","","","","","","","","","","","",""
"","ISI","","html-keyboard-response","216","300799","0.0-1.0-327.0","0","0","41004","","109","","","68","36","d","","","","","","","","","","","","","","",""
"","S2","","html-keyboard-response","217","301014","0.0-1.0-328.0","0","0","41004","","200","","","68","36","","d","1","36","training","adjacent","EF","5","6","R.jpg","L.jpg","1","1","1","",""
"","feedback","","html-keyboard-response","218","302023","0.0-1.0-330.0-0.0","0","0","41004","","null","","","null","36","","","","","","","","","","","","","","","",""
"","ITI","","html-keyboard-response","219","303031","0.0-1.0-333.0","0","0","41004","","182","","","75","36","","","","","","","","","","","","","","","k",""
"","S1","","html-keyboard-response","220","303286","0.0-1.0-335.0","0","0","41004","","null","","","null","37","","","","","","","","","","","","","","","",""
"","ISI","","html-keyboard-response","221","303795","0.0-1.0-336.0","0","0","41004","","158","","","68","37","d","","","","","","","","","","","","","","",""
"","S2","","html-keyboard-response","222","304029","0.0-1.0-337.0","0","0","41004","","229","","","75","37","","k","1","37","training","adjacent","FG","6","7","L.jpg","O.jpg","0","1","0","",""
"","feedback","","html-keyboard-response","223","305038","0.0-1.0-339.0-0.0","0","0","41004","","null","","","null","37","","","","","","","","","","","","","","","",""
"","time_out","","html-keyboard-response","224","307045","0.0-1.0-341.0-0.0","0","0","41004","","null","","","null","37","","","","","","","","","","","","","","","",""
"","ITI","","html-keyboard-response","225","308048","0.0-1.0-342.0","0","0","41004","","119","","","68","37","","","","","","","","","","","","","","","d",""
"","S1","","html-keyboard-response","226","308303","0.0-1.0-344.0","0","0","41004","","null","","","null","38","","","","","","","","","","","","","","","",""
"","ISI","","html-keyboard-response","227","308806","0.0-1.0-345.0","0","0","41004","","162","","","75","38","k","","","","","","","","","","","","","","",""
"","S2","","html-keyboard-response","228","308847","0.0-1.0-346.0","0","0","41004","","36","","","75","38","","k","1","38","training","adjacent","ED","5","4","R.jpg","N.jpg","0","0","1","",""
"","feedback","","html-keyboard-response","229","309856","0.0-1.0-348.0-0.0","0","0","41004","","null","","","null","38","","","","","","","","","","","","","","","",""
"","ITI","","html-keyboard-response","230","310863","0.0-1.0-351.0","0","0","41004","","201","","","75","38","","","","","","","","","","","","","","","k",""
"","S1","","html-keyboard-response","231","311120","0.0-1.0-353.0","0","0","41004","","null","","","null","39","","","","","","","","","","","","","","","",""
"","ISI","","html-keyboard-response","232","311624","0.0-1.0-354.0","0","0","41004","","53","","","68","39","d","","","","","","","","","","","","","","",""
"","S2","","html-keyboard-response","233","311669","0.0-1.0-355.0","0","0","41004","","40","","","68","39","","d","1","39","training","adjacent","DC","4","3","N.jpg","M.jpg","1","0","0","",""
"","feedback","","html-keyboard-response","234","312735","0.0-1.0-357.0-0.0","0","0","41004","","null","","","null","39","","","","","","","","","","","","","","","",""
"","time_out","","html-keyboard-response","235","314747","0.0-1.0-359.0-0.0","0","0","41004","","null","","","null","39","","","","","","","","","","","","","","","",""
"","ITI","","html-keyboard-response","236","315758","0.0-1.0-360.0","0","0","41004","","85","","","68","39","","","","","","","","","","","","","","","d",""
"","S1","","html-keyboard-response","237","316012","0.0-1.0-362.0","0","0","41004","","null","","","null","40","","","","","","","","","","","","","","","",""
"","ISI","","html-keyboard-response","238","316519","0.0-1.0-363.0","0","0","41004","","11","","","68","40","d","","","","","","","","","","","","","","",""
"","S2","","html-keyboard-response","239","316639","0.0-1.0-364.0","0","0","41004","","114","","","68","40","","d","1","40","training","adjacent","FE","6","5","L.jpg","R.jpg","1","0","0","",""
"","feedback","","html-keyboard-response","240","317647","0.0-1.0-366.0-0.0","0","0","41004","","null","","","null","40","","","","","","","","","","","","","","","",""
"","time_out","","html-keyboard-response","241","319656","0.0-1.0-368.0-0.0","0","0","41004","","null","","","null","40","","","","","","","","","","","","","","","",""
"","ITI","","html-keyboard-response","242","320668","0.0-1.0-369.0","0","0","41004","","80","","","68","40","","","","","","","","","","","","","","","d",""
"","S1","","html-keyboard-response","243","320930","0.0-1.0-371.0","0","0","41004","","null","","","null","41","","","","","","","","","","","","","","","",""
"","ISI","","html-keyboard-response","244","321448","0.0-1.0-372.0","0","0","41004","","1","","","68","41","d","","","","","","","","","","","","","","",""
"","S2","","html-keyboard-response","245","321580","0.0-1.0-373.0","0","0","41004","","125","","","68","41","","d","1","41","training","adjacent","EF","5","6","R.jpg","L.jpg","1","1","1","",""
"","feedback","","html-keyboard-response","246","322589","0.0-1.0-375.0-0.0","0","0","41004","","null","","","null","41","","","","","","","","","","","","","","","",""
"","ITI","","html-keyboard-response","247","323634","0.0-1.0-378.0","0","0","41004","","114","","","68","41","","","","","","","","","","","","","","","d",""
"","S1","","html-keyboard-response","248","323893","0.0-1.0-380.0","0","0","41004","","null","","","null","42","","","","","","","","","","","","","","","",""
"","ISI","","html-keyboard-response","249","324401","0.0-1.0-381.0","0","0","41004","","171","","","68","42","d","","","","","","","","","","","","","","",""
"","S2","","html-keyboard-response","250","324448","0.0-1.0-382.0","0","0","41004","","39","","","75","42","","k","1","42","training","adjacent","FE","6","5","L.jpg","R.jpg","0","0","1","",""
"","feedback","","html-keyboard-response","251","325456","0.0-1.0-384.0-0.0","0","0","41004","","null","","","null","42","","","","","","","","","","","","","","","",""
"","ITI","","html-keyboard-response","252","326464","0.0-1.0-387.0","0","0","41004","","96","","","68","42","","","","","","","","","","","","","","","d",""
"","S1","","html-keyboard-response","253","326720","0.0-1.0-389.0","0","0","41004","","null","","","null","43","","","","","","","","","","","","","","","",""
"","ISI","","html-keyboard-response","254","327225","0.0-1.0-390.0","0","0","41004","","48","","","75","43","k","","","","","","","","","","","","","","",""
"","S2","","html-keyboard-response","255","327368","0.0-1.0-391.0","0","0","41004","","140","","","75","43","","k","1","43","training","adjacent","AB","1","2","Q.jpg","P.jpg","0","1","0","",""
"","feedback","","html-keyboard-response","256","328373","0.0-1.0-393.0-0.0","0","0","41004","","null","","","null","43","","","","","","","","","","","","","","","",""
"","time_out","","html-keyboard-response","257","330380","0.0-1.0-395.0-0.0","0","0","41004","","null","","","null","43","","","","","","","","","","","","","","","",""
"","ITI","","html-keyboard-response","258","331387","0.0-1.0-396.0","0","0","41004","","21","","","68","43","","","","","","","","","","","","","","","d",""
"","S1","","html-keyboard-response","259","331643","0.0-1.0-398.0","0","0","41004","","null","","","null","44","","","","","","","","","","","","","","","",""
"","ISI","","html-keyboard-response","260","332149","0.0-1.0-399.0","0","0","41004","","181","","","68","44","d","","","","","","","","","","","","","","",""
"","S2","","html-keyboard-response","261","332159","0.0-1.0-400.0","0","0","41004","","5","","","75","44","","k","1","44","training","adjacent","EF","5","6","R.jpg","L.jpg","0","1","0","",""
"","feedback","","html-keyboard-response","262","333165","0.0-1.0-402.0-0.0","0","0","41004","","null","","","null","44","","","","","","","","","","","","","","","",""
"","time_out","","html-keyboard-response","263","335172","0.0-1.0-404.0-0.0","0","0","41004","","null","","","null","44","","","","","","","","","","","","","","","",""
"","ITI","","html-keyboard-response","264","336277","0.0-1.0-405.0","0","0","41004","","123","","","68","44","","","","","","","","","","","","","","","d",""
"","S1","","html-keyboard-response","265","336531","0.0-1.0-407.0","0","0","41004","","null","","","null","45","","","","","","","","","","","","","","","",""
"","ISI","","html-keyboard-response","266","337036","0.0-1.0-408.0","0","0","41004","","19","","","68","45","d","","","","","","","","","","","","","","",""
"","S2","","html-keyboard-response","267","337075","0.0-1.0-409.0","0","0","41004","","33","","","68","45","","d","1","45","training","adjacent","ED","5","4","R.jpg","N.jpg","1","0","0","",""
"","feedback","","html-keyboard-response","268","338080","0.0-1.0-411.0-0.0","0","0","41004","","null","","","null","45","","","","","","","","","","","","","","","",""
"","time_out","","html-keyboard-response","269","340087","0.0-1.0-413.0-0.0","0","0","41004","","null","","","null","45","","","","","","","","","","","","","","","",""
"","ITI","","html-keyboard-response","270","341107","0.0-1.0-414.0","0","0","41004","","108","","","75","45","","","","","","","","","","","","","","","k",""
"","S1","","html-keyboard-response","271","341415","0.0-1.0-416.0","0","0","41004","","null","","","null","46","","","","","","","","","","","","","","","",""
"","ISI","","html-keyboard-response","272","341935","0.0-1.0-417.0","0","0","41004","","6","","","75","46","k","","","","","","","","","","","","","","",""
"","S2","","html-keyboard-response","273","342023","0.0-1.0-418.0","0","0","41004","","80","","","75","46","","k","1","46","training","adjacent","GF","7","6","O.jpg","L.jpg","0","0","1","",""
"","feedback","","html-keyboard-response","274","343033","0.0-1.0-420.0-0.0","0","0","41004","","null","","","null","46","","","","","","","","","","","","","","","",""
"","ITI","","html-keyboard-response","275","344042","0.0-1.0-423.0","0","0","41004","","102","","","75","46","","","","","","","","","","","","","","","k",""
"","S1","","html-keyboard-response","276","344296","0.0-1.0-425.0","0","0","41004","","null","","","null","47","","","","","","","","","","","","","","","",""
"","ISI","","html-keyboard-response","277","344801","0.0-1.0-426.0","0","0","41004","","7","","","75","47","k","","","","","","","","","","","","","","",""
"","S2","","html-keyboard-response","278","345046","0.0-1.0-427.0","0","0","41004","","238","","","68","47","","d","1","47","training","adjacent","BC","2","3","P.jpg","M.jpg","1","1","1","",""
"","feedback","","html-keyboard-response","279","346050","0.0-1.0-429.0-0.0","0","0","41004","","null","","","null","47","","","","","","","","","","","","","","","",""
"","ITI","","html-keyboard-response","280","347055","0.0-1.0-432.0","0","0","41004","","16","","","75","47","","","","","","","","","","","","","","","k",""
"","block_over","","html-keyboard-response","281","353175","0.0-1.0-433.0-0.0","0","0","41004","","6106","","","32","47","","","","","","","","","","","","","","","",""
"","S1","","html-keyboard-response","282","353433","0.0-1.0-434.0","0","0","41004","","null","","","null","48","","","","","","","","","","","","","","","",""
"","ISI","","html-keyboard-response","283","353936","0.0-1.0-435.0","0","0","41004","","null","","","null","48","NaN","","","","","","","","","","","","","","",""
"","S2","","html-keyboard-response","284","354210","0.0-1.0-436.0","0","0","41004","","null","","","null","48","","NaN","","","","","","","","","","","","","",""
"","response","","html-keyboard-response","285","354517","0.0-1.0-437.0-0.0","0","0","41004","","298","","","68","48","","","2","48","training","adjacent","DE","4","5","N.jpg","R.jpg","1","1","1","",""
"","feedback","","html-keyboard-response","286","355524","0.0-1.0-438.0-0.0","0","0","41004","","null","","","null","48","","","","","","","","","","","","","","","",""
"","ITI","","html-keyboard-response","287","356530","0.0-1.0-441.0","0","0","41004","","153","","","68","48","","","","","","","","","","","","","","","d",""
"","S1","","html-keyboard-response","288","356786","0.0-1.0-443.0","0","0","41004","","null","","","null","49","","","","","","","","","","","","","","","",""
"","ISI","","html-keyboard-response","289","357291","0.0-1.0-444.0","0","0","41004","","54","","","68","49","d","","","","","","","","","","","","","","",""
"","S2","","html-keyboard-response","290","357325","0.0-1.0-445.0","0","0","41004","","24","","","68","49","","d","2","49","training","adjacent","FG","6","7","L.jpg","O.jpg","1","1","1","",""
"","feedback","","html-keyboard-response","291","358344","0.0-1.0-447.0-0.0","0","0","41004","","null","","","null","49","","","","","","","","","","","","","","","",""
"","ITI","","html-keyboard-response","292","359354","0.0-1.0-450.0","0","0","41004","","195","","","68","49","","","","","","","","","","","","","","","d",""
"","S1","","html-keyboard-response","293","359613","0.0-1.0-452.0","0","0","41004","","null","","","null","50","","","","","","","","","","","","","","","",""
"","ISI","","html-keyboard-response","294","360121","0.0-1.0-453.0","0","0","41004","","156","","","68","50","d","","","","","","","","","","","","","","",""
"","S2","","html-keyboard-response","295","360231","0.0-1.0-454.0","0","0","41004","","106","","","68","50","","d","2","50","training","adjacent","GF","7","6","O.jpg","L.jpg","1","0","0","",""
"","feedback","","html-keyboard-response","296","361241","0.0-1.0-456.0-0.0","0","0","41004","","null","","","null","50","","","","","","","","","","","","","","","",""
"","time_out","","html-keyboard-response","297","363302","0.0-1.0-458.0-0.0","0","0","41004","","null","","","null","50","","","","","","","","","","","","","","","",""
"","ITI","","html-keyboard-response","298","364312","0.0-1.0-459.0","0","0","41004","","102","","","75","50","","","","","","","","","","","","","","","k",""
"","S1","","html-keyboard-response","299","364573","0.0-1.0-461.0","0","0","41004","","null","","","null","51","","","","","","","","","","","","","","","",""
"","ISI","","html-keyboard-response","300","365079","0.0-1.0-462.0","0","0","41004","","97","","","68","51","d","","","","","","","","","","","","","","",""
"","S2","","html-keyboard-response","301","365181","0.0-1.0-463.0","0","0","41004","","86","","","68","51","","d","2","51","training","adjacent","BA","2","1","P.jpg","Q.jpg","1","0","0","",""
"","feedback","","html-keyboard-response","302","366197","0.0-1.0-465.0-0.0","0","0","41004","","null","","","null","51","","","","","","","","","","","","","","","",""
"","time_out","","html-keyboard-response","303","368228","0.0-1.0-467.0-0.0","0","0","41004","","null","","","null","51","","","","","","","","","","","","","","","",""
"","ITI","","html-keyboard-response","304","369287","0.0-1.0-468.0","0","0","41004","","571","","","68","51","","","","","","","","","","","","","","","d",""
"","S1","","html-keyboard-response","305","369545","0.0-1.0-470.0","0","0","41004","","null","","","null","52","","","","","","","","","","","","","","","",""
"","ISI","","html-keyboard-response","306","370050","0.0-1.0-471.0","0","0","41004","","20","","","68","52","d","","","","","","","","","","","","","","",""
"","S2","","html-keyboard-response","307","370223","0.0-1.0-472.0","0","0","41004","","162","","","75","52","","k","2","52","training","adjacent","CD","3","4","M.jpg","N.jpg","0","1","0","",""
"","feedback","","html-keyboard-response","308","371257","0.0-1.0-474.0-0.0","0","0","41004","","null","","","null","52","","","","","","","","","","","","","","","",""
"","time_out","","html-keyboard-response","309","373285","0.0-1.0-476.0-0.0","0","0","41004","","null","","","null","52","","","","","","","","","","","","","","","",""
"","ITI","","html-keyboard-response","310","374288","0.0-1.0-477.0","0","0","41004","","7","","","68","52","","","","","","","","","","","","","","","d",""
"","S1","","html-keyboard-response","311","374543","0.0-1.0-479.0","0","0","41004","","null","","","null","53","","","","","","","","","","","","","","","",""
"","ISI","","html-keyboard-response","312","375082","0.0-1.0-480.0","0","0","41004","","196","","","68","53","d","","","","","","","","","","","","","","",""
"","S2","","html-keyboard-response","313","375156","0.0-1.0-481.0","0","0","41004","","71","","","75","53","","k","2","53","training","adjacent","DC","4","3","N.jpg","M.jpg","0","0","1","",""
"","feedback","","html-keyboard-response","314","376163","0.0-1.0-483.0-0.0","0","0","41004","","null","","","null","53","","","","","","","","","","","","","","","",""
"","ITI","","html-keyboard-response","315","377171","0.0-1.0-486.0","0","0","41004","","17","","","68","53","","","","","","","","","","","","","","","d",""
"","S1","","html-keyboard-response","316","377430","0.0-1.0-488.0","0","0","41004","","null","","","null","54","","","","","","","","","","","","","","","",""
"","ISI","","html-keyboard-response","317","377937","0.0-1.0-489.0","0","0","41004","","26","","","68","54","d","","","","","","","","","","","","","","",""
"","S2","","html-keyboard-response","318","378088","0.0-1.0-490.0","0","0","41004","","145","","","75","54","","k","2","54","training","adjacent","EF","5","6","R.jpg","L.jpg","0","1","0","",""
"","feedback","","html-keyboard-response","319","379094","0.0-1.0-492.0-0.0","0","0","41004","","null","","","null","54","","","","","","","","","","","","","","","",""
"","time_out","","html-keyboard-response","320","381104","0.0-1.0-494.0-0.0","0","0","41004","","null","","","null","54","","","","","","","","","","","","","","","",""
"","ITI","","html-keyboard-response","321","382112","0.0-1.0-495.0","0","0","41004","","113","","","75","54","","","","","","","","","","","","","","","k",""
"","S1","","html-keyboard-response","322","382370","0.0-1.0-497.0","0","0","41004","","null","","","null","55","","","","","","","","","","","","","","","",""
"","ISI","","html-keyboard-response","323","382874","0.0-1.0-498.0","0","0","41004","","218","","","68","55","d","","","","","","","","","","","","","","",""
"","S2","","html-keyboard-response","324","383063","0.0-1.0-499.0","0","0","41004","","185","","","68","55","","d","2","55","training","adjacent","FE","6","5","L.jpg","R.jpg","1","0","0","",""
"","feedback","","html-keyboard-response","325","384070","0.0-1.0-501.0-0.0","0","0","41004","","null","","","null","55","","","","","","","","","","","","","","","",""
"","time_out","","html-keyboard-response","326","386077","0.0-1.0-503.0-0.0","0","0","41004","","null","","","null","55","","","","","","","","","","","","","","","",""
"","ITI","","html-keyboard-response","327","387082","0.0-1.0-504.0","0","0","41004","","71","","","68","55","","","","","","","","","","","","","","","d",""
"","S1","","html-keyboard-response","328","387338","0.0-1.0-506.0","0","0","41004","","null","","","null","56","","","","","","","","","","","","","","","",""
"","ISI","","html-keyboard-response","329","387843","0.0-1.0-507.0","0","0","41004","","130","","","75","56","k","","","","","","","","","","","","","","",""
"","S2","","html-keyboard-response","330","388187","0.0-1.0-508.0","0","0","41004","","336","","","68","56","","d","2","56","training","adjacent","CD","3","4","M.jpg","N.jpg","1","1","1","",""
"","feedback","","html-keyboard-response","331","389196","0.0-1.0-510.0-0.0","0","0","41004","","null","","","null","56","","","","","","","","","","","","","","","",""
"","ITI","","html-keyboard-response","332","390246","0.0-1.0-513.0","0","0","41004","","172","","","75","56","","","","","","","","","","","","","","","k",""
"","S1","","html-keyboard-response","333","390535","0.0-1.0-515.0","0","0","41004","","null","","","null","57","","","","","","","","","","","","","","","",""
"","ISI","","html-keyboard-response","334","391040","0.0-1.0-516.0","0","0","41004","","55","","","68","57","d","","","","","","","","","","","","","","",""
"","S2","","html-keyboard-response","335","391112","0.0-1.0-517.0","0","0","41004","","68","","","75","57","","k","2","57","training","adjacent","BA","2","1","P.jpg","Q.jpg","0","0","1","",""
"","feedback","","html-keyboard-response","336","392212","0.0-1.0-519.0-0.0","0","0","41004","","null","","","null","57","","","","","","","","","","","","","","","",""
"","ITI","","html-keyboard-response","337","393241","0.0-1.0-522.0","0","0","41004","","86","","","68","57","","","","","","","","","","","","","","","d",""
"","S1","","html-keyboard-response","338","393498","0.0-1.0-524.0","0","0","41004","","null","","","null","58","","","","","","","","","","","","","","","",""
"","ISI","","html-keyboard-response","339","394005","0.0-1.0-525.0","0","0","41004","","69","","","68","58","d","","","","","","","","","","","","","","",""
"","S2","","html-keyboard-response","340","394022","0.0-1.0-526.0","0","0","41004","","11","","","68","58","","d","2","58","training","adjacent","CD","3","4","M.jpg","N.jpg","1","1","1","",""
"","feedback","","html-keyboard-response","341","395027","0.0-1.0-528.0-0.0","0","0","41004","","null","","","null","58","","","","","","","","","","","","","","","",""
"","ITI","","html-keyboard-response","342","396037","0.0-1.0-531.0","0","0","41004","","152","","","75","58","","","","","","","","","","","","","","","k",""
"","S1","","html-keyboard-response","343","396293","0.0-1.0-533.0","0","0","41004","","null","","","null","59","","","","","","","","","","","","","","","",""
"","ISI","","html-keyboard-response","344","396796","0.0-1.0-534.0","0","0","41004","","236","","","68","59","d","","","","","","","","","","","","","","",""
"","S2","","html-keyboard-response","345","396996","0.0-1.0-535.0","0","0","41004","","193","","","68","59","","d","2","59","training","adjacent","CD","3","4","M.jpg","N.jpg","1","1","1","",""
"","feedback","","html-keyboard-response","346","398003","0.0-1.0-537.0-0.0","0","0","41004","","null","","","null","59","","","","","","","","","","","","","","","",""
"","ITI","","html-keyboard-response","347","399010","0.0-1.0-540.0","0","0","41004","","155","","","75","59","","","","","","","","","","","","","","","k",""
"","S1","","html-keyboard-response","348","399264","0.0-1.0-542.0","0","0","41004","","null","","","null","60","","","","","","","","","","","","","","","",""
"","ISI","","html-keyboard-response","349","399770","0.0-1.0-543.0","0","0","41004","","38","","","75","60","k","","","","","","","","","","","","","","",""
"","S2","","html-keyboard-response","350","400026","0.0-1.0-544.0","0","0","41004","","null","","","null","60","","NaN","","","","","","","","","","","","","",""
"","response","","html-keyboard-response","351","400255","0.0-1.0-545.0-0.0","0","0","41004","","224","","","68","60","","","2","60","training","adjacent","GF","7","6","O.jpg","L.jpg","1","0","0","",""
"","feedback","","html-keyboard-response","352","401261","0.0-1.0-546.0-0.0","0","0","41004","","null","","","null","60","","","","","","","","","","","","","","","",""
"","time_out","","html-keyboard-response","353","403269","0.0-1.0-548.0-0.0","0","0","41004","","null","","","null","60","","","","","","","","","","","","","","","",""
"","ITI","","html-keyboard-response","354","404274","0.0-1.0-549.0","0","0","41004","","128","","","68","60","","","","","","","","","","","","","","","d",""
"","S1","","html-keyboard-response","355","404532","0.0-1.0-551.0","0","0","41004","","null","","","null","61","","","","","","","","","","","","","","","",""
"","ISI","","html-keyboard-response","356","405037","0.0-1.0-552.0","0","0","41004","","97","","","68","61","d","","","","","","","","","","","","","","",""
"","S2","","html-keyboard-response","357","405112","0.0-1.0-553.0","0","0","41004","","71","","","68","61","","d","2","61","training","adjacent","FE","6","5","L.jpg","R.jpg","1","0","0","",""
"","feedback","","html-keyboard-response","358","406115","0.0-1.0-555.0-0.0","0","0","41004","","null","","","null","61","","","","","","","","","","","","","","","",""
"","time_out","","html-keyboard-response","359","408127","0.0-1.0-557.0-0.0","0","0","41004","","null","","","null","61","","","","","","","","","","","","","","","",""
"","ITI","","html-keyboard-response","360","409133","0.0-1.0-558.0","0","0","41004","","81","","","68","61","","","","","","","","","","","","","","","d",""
"","S1","","html-keyboard-response","361","409388","0.0-1.0-560.0","0","0","41004","","null","","","null","62","","","","","","","","","","","","","","","",""
"","ISI","","html-keyboard-response","362","409898","0.0-1.0-561.0","0","0","41004","","125","","","68","62","d","","","","","","","","","","","","","","",""
"","S2","","html-keyboard-response","363","409965","0.0-1.0-562.0","0","0","41004","","59","","","68","62","","d","2","62","training","adjacent","ED","5","4","R.jpg","N.jpg","1","0","0","",""
"","feedback","","html-keyboard-response","364","410973","0.0-1.0-564.0-0.0","0","0","41004","","null","","","null","62","","","","","","","","","","","","","","","",""
"","time_out","","html-keyboard-response","365","413055","0.0-1.0-566.0-0.0","0","0","41004","","null","","","null","62","","","","","","","","","","","","","","","",""
"","ITI","","html-keyboard-response","366","414064","0.0-1.0-567.0","0","0","41004","","2","","","75","62","","","","","","","","","","","","","","","k",""
"","S1","","html-keyboard-response","367","414380","0.0-1.0-569.0","0","0","41004","","null","","","null","63","","","","","","","","","","","","","","","",""
"","ISI","","html-keyboard-response","368","414886","0.0-1.0-570.0","0","0","41004","","139","","","68","63","d","","","","","","","","","","","","","","",""
"","S2","","html-keyboard-response","369","414971","0.0-1.0-571.0","0","0","41004","","78","","","68","63","","d","2","63","training","adjacent","FG","6","7","L.jpg","O.jpg","1","1","1","",""
"","feedback","","html-keyboard-response","370","415978","0.0-1.0-573.0-0.0","0","0","41004","","null","","","null","63","","","","","","","","","","","","","","","",""
"","ITI","","html-keyboard-response","371","416984","0.0-1.0-576.0","0","0","41004","","182","","","68","63","","","","","","","","","","","","","","","d",""
"","S1","","html-keyboard-response","372","417248","0.0-1.0-578.0","0","0","41004","","null","","","null","64","","","","","","","","","","","","","","","",""
"","ISI","","html-keyboard-response","373","417754","0.0-1.0-579.0","0","0","41004","","38","","","68","64","d","","","","","","","","","","","","","","",""
"","S2","","html-keyboard-response","374","417960","0.0-1.0-580.0","0","0","41004","","202","","","68","64","","d","2","64","training","adjacent","BC","2","3","P.jpg","M.jpg","1","1","1","",""
"","feedback","","html-keyboard-response","375","418970","0.0-1.0-582.0-0.0","0","0","41004","","null","","","null","64","","","","","","","","","","","","","","","",""
"","ITI","","html-keyboard-response","376","419977","0.0-1.0-585.0","0","0","41004","","78","","","68","64","","","","","","","","","","","","","","","d",""
"","S1","","html-keyboard-response","377","420270","0.0-1.0-587.0","0","0","41004","","null","","","null","65","","","","","","","","","","","","","","","",""
"","ISI","","html-keyboard-response","378","420783","0.0-1.0-588.0","0","0","41004","","38","","","68","65","d","","","","","","","","","","","","","","",""
"","S2","","html-keyboard-response","379","421037","0.0-1.0-589.0","0","0","41004","","null","","","null","65","","NaN","","","","","","","","","","","","","",""
"","response","","html-keyboard-response","380","421366","0.0-1.0-590.0-0.0","0","0","41004","","324","","","75","65","","","2","65","training","adjacent","GF","7","6","O.jpg","L.jpg","0","0","1","",""
"","feedback","","html-keyboard-response","381","422372","0.0-1.0-591.0-0.0","0","0","41004","","null","","","null","65","","","","","","","","","","","","","","","",""
"","ITI","","html-keyboard-response","382","423380","0.0-1.0-594.0","0","0","41004","","35","","","68","65","","","","","","","","","","","","","","","d",""
"","S1","","html-keyboard-response","383","423638","0.0-1.0-596.0","0","0","41004","","null","","","null","66","","","","","","","","","","","","","","","",""
"","ISI","","html-keyboard-response","384","424145","0.0-1.0-597.0","0","0","41004","","209","","","68","66","d","","","","","","","","","","","","","","",""
"","S2","","html-keyboard-response","385","424343","0.0-1.0-598.0","0","0","41004","","192","","","75","66","","k","2","66","training","adjacent","CB","3","2","M.jpg","P.jpg","0","0","1","",""
"","feedback","","html-keyboard-response","386","425427","0.0-1.0-600.0-0.0","0","0","41004","","null","","","null","66","","","","","","","","","","","","","","","",""
"","ITI","","html-keyboard-response","387","426432","0.0-1.0-603.0","0","0","41004","","14","","","68","66","","","","","","","","","","","","","","","d",""
"","S1","","html-keyboard-response","388","426685","0.0-1.0-605.0","0","0","41004","","null","","","null","67","","","","","","","","","","","","","","","",""
"","ISI","","html-keyboard-response","389","427206","0.0-1.0-606.0","0","0","41004","","23","","","75","67","k","","","","","","","","","","","","","","",""
"","S2","","html-keyboard-response","390","427216","0.0-1.0-607.0","0","0","41004","","3","","","75","67","","k","2","67","training","adjacent","AB","1","2","Q.jpg","P.jpg","0","1","0","",""
"","feedback","","html-keyboard-response","391","428225","0.0-1.0-609.0-0.0","0","0","41004","","null","","","null","67","","","","","","","","","","","","","","","",""
"","time_out","","html-keyboard-response","392","430249","0.0-1.0-611.0-0.0","0","0","41004","","null","","","null","67","","","","","","","","","","","","","","","",""
"","ITI","","html-keyboard-response","393","431296","0.0-1.0-612.0","0","0","41004","","39","","","75","67","","","","","","","","","","","","","","","k",""
"","S1","","html-keyboard-response","394","431551","0.0-1.0-614.0","0","0","41004","","null","","","null","68","","","","","","","","","","","","","","","",""
"","ISI","","html-keyboard-response","395","432057","0.0-1.0-615.0","0","0","41004","","179","","","68","68","d","","","","","","","","","","","","","","",""
"","S2","","html-keyboard-response","396","432246","0.0-1.0-616.0","0","0","41004","","183","","","68","68","","d","2","68","training","adjacent","EF","5","6","R.jpg","L.jpg","1","1","1","",""
"","feedback","","html-keyboard-response","397","433254","0.0-1.0-618.0-0.0","0","0","41004","","null","","","null","68","","","","","","","","","","","","","","","",""
"","ITI","","html-keyboard-response","398","434278","0.0-1.0-621.0","0","0","41004","","175","","","75","68","","","","","","","","","","","","","","","k",""
"","S1","","html-keyboard-response","399","434535","0.0-1.0-623.0","0","0","41004","","null","","","null","69","","","","","","","","","","","","","","","",""
"","ISI","","html-keyboard-response","400","435043","0.0-1.0-624.0","0","0","41004","","4","","","75","69","k","","","","","","","","","","","","","","",""
"","S2","","html-keyboard-response","401","435224","0.0-1.0-625.0","0","0","41004","","172","","","68","69","","d","2","69","training","adjacent","CB","3","2","M.jpg","P.jpg","1","0","0","",""
"","feedback","","html-keyboard-response","402","436231","0.0-1.0-627.0-0.0","0","0","41004","","null","","","null","69","","","","","","","","","","","","","","","",""
"","time_out","","html-keyboard-response","403","438237","0.0-1.0-629.0-0.0","0","0","41004","","null","","","null","69","","","","","","","","","","","","","","","",""
"","ITI","","html-keyboard-response","404","439241","0.0-1.0-630.0","0","0","41004","","572","","","75","69","","","","","","","","","","","","","","","k",""
"","S1","","html-keyboard-response","405","439496","0.0-1.0-632.0","0","0","41004","","null","","","null","70","","","","","","","","","","","","","","","",""
"","ISI","","html-keyboard-response","406","440003","0.0-1.0-633.0","0","0","41004","","101","","","75","70","k","","","","","","","","","","","","","","",""
"","S2","","html-keyboard-response","407","440202","0.0-1.0-634.0","0","0","41004","","192","","","75","70","","k","2","70","training","adjacent","ED","5","4","R.jpg","N.jpg","0","0","1","",""
"","feedback","","html-keyboard-response","408","441209","0.0-1.0-636.0-0.0","0","0","41004","","null","","","null","70","","","","","","","","","","","","","","","",""
"","ITI","","html-keyboard-response","409","442217","0.0-1.0-639.0","0","0","41004","","165","","","68","70","","","","","","","","","","","","","","","d",""
"","S1","","html-keyboard-response","410","442572","0.0-1.0-641.0","0","0","41004","","null","","","null","71","","","","","","","","","","","","","","","",""
"","ISI","","html-keyboard-response","411","443118","0.0-1.0-642.0","0","0","41004","","26","","","75","71","k","","","","","","","","","","","","","","",""
"","S2","","html-keyboard-response","412","443140","0.0-1.0-643.0","0","0","41004","","2","","","75","71","","k","2","71","training","adjacent","BC","2","3","P.jpg","M.jpg","0","1","0","",""
"","feedback","","html-keyboard-response","413","444146","0.0-1.0-645.0-0.0","0","0","41004","","null","","","null","71","","","","","","","","","","","","","","","",""
"","time_out","","html-keyboard-response","414","446152","0.0-1.0-647.0-0.0","0","0","41004","","null","","","null","71","","","","","","","","","","","","","","","",""
"","ITI","","html-keyboard-response","415","447204","0.0-1.0-648.0","0","0","41004","","18","","","68","71","","","","","","","","","","","","","","","d",""
"","S1","","html-keyboard-response","416","447459","0.0-1.0-650.0","0","0","41004","","null","","","null","72","","","","","","","","","","","","","","","",""
"","ISI","","html-keyboard-response","417","448009","0.0-1.0-651.0","0","0","41004","","54","","","68","72","d","","","","","","","","","","","","","","",""
"","S2","","html-keyboard-response","418","448019","0.0-1.0-652.0","0","0","41004","","7","","","68","72","","d","2","72","training","adjacent","BC","2","3","P.jpg","M.jpg","1","1","1","",""
"","feedback","","html-keyboard-response","419","449025","0.0-1.0-654.0-0.0","0","0","41004","","null","","","null","72","","","","","","","","","","","","","","","",""
"","ITI","","html-keyboard-response","420","450030","0.0-1.0-657.0","0","0","41004","","34","","","68","72","","","","","","","","","","","","","","","d",""
"","S1","","html-keyboard-response","421","450288","0.0-1.0-659.0","0","0","41004","","null","","","null","73","","","","","","","","","","","","","","","",""
"","ISI","","html-keyboard-response","422","450807","0.0-1.0-660.0","0","0","41004","","173","","","75","73","k","","","","","","","","","","","","","","",""
"","S2","","html-keyboard-response","423","450821","0.0-1.0-661.0","0","0","41004","","9","","","75","73","","k","2","73","training","adjacent","CB","3","2","M.jpg","P.jpg","0","0","1","",""
"","feedback","","html-keyboard-response","424","451827","0.0-1.0-663.0-0.0","0","0","41004","","null","","","null","73","","","","","","","","","","","","","","","",""
"","ITI","","html-keyboard-response","425","452833","0.0-1.0-666.0","0","0","41004","","90","","","75","73","","","","","","","","","","","","","","","k",""
"","S1","","html-keyboard-response","426","453091","0.0-1.0-668.0","0","0","41004","","null","","","null","74","","","","","","","","","","","","","","","",""
"","ISI","","html-keyboard-response","427","453597","0.0-1.0-669.0","0","0","41004","","241","","","75","74","k","","","","","","","","","","","","","","",""
"","S2","","html-keyboard-response","428","453793","0.0-1.0-670.0","0","0","41004","","190","","","75","74","","k","2","74","training","adjacent","FE","6","5","L.jpg","R.jpg","0","0","1","",""
"","feedback","","html-keyboard-response","429","454800","0.0-1.0-672.0-0.0","0","0","41004","","null","","","null","74","","","","","","","","","","","","","","","",""
"","ITI","","html-keyboard-response","430","455808","0.0-1.0-675.0","0","0","41004","","98","","","68","74","","","","","","","","","","","","","","","d",""
"","S1","","html-keyboard-response","431","456084","0.0-1.0-677.0","0","0","41004","","null","","","null","75","","","","","","","","","","","","","","","",""
"","ISI","","html-keyboard-response","432","456589","0.0-1.0-678.0","0","0","41004","","153","","","68","75","d","","","","","","","","","","","","","","",""
"","S2","","html-keyboard-response","433","456707","0.0-1.0-679.0","0","0","41004","","110","","","68","75","","d","2","75","training","adjacent","DC","4","3","N.jpg","M.jpg","1","0","0","",""
"","feedback","","html-keyboard-response","434","457712","0.0-1.0-681.0-0.0","0","0","41004","","null","","","null","75","","","","","","","","","","","","","","","",""
"","time_out","","html-keyboard-response","435","459719","0.0-1.0-683.0-0.0","0","0","41004","","null","","","null","75","","","","","","","","","","","","","","","",""
"","ITI","","html-keyboard-response","436","460725","0.0-1.0-684.0","0","0","41004","","11","","","75","75","","","","","","","","","","","","","","","k",""
"","S1","","html-keyboard-response","437","460981","0.0-1.0-686.0","0","0","41004","","null","","","null","76","","","","","","","","","","","","","","","",""
"","ISI","","html-keyboard-response","438","461576","0.0-1.0-687.0","0","0","41004","","102","","","68","76","d","","","","","","","","","","","","","","",""
"","S2","","html-keyboard-response","439","461643","0.0-1.0-688.0","0","0","41004","","59","","","75","76","","k","2","76","training","adjacent","ED","5","4","R.jpg","N.jpg","0","0","1","",""
"","feedback","","html-keyboard-response","440","462652","0.0-1.0-690.0-0.0","0","0","41004","","null","","","null","76","","","","","","","","","","","","","","","",""
"","ITI","","html-keyboard-response","441","463659","0.0-1.0-693.0","0","0","41004","","27","","","75","76","","","","","","","","","","","","","","","k",""
"","S1","","html-keyboard-response","442","463914","0.0-1.0-695.0","0","0","41004","","null","","","null","77","","","","","","","","","","","","","","","",""
"","ISI","","html-keyboard-response","443","464420","0.0-1.0-696.0","0","0","41004","","155","","","75","77","k","","","","","","","","","","","","","","",""
"","S2","","html-keyboard-response","444","464522","0.0-1.0-697.0","0","0","41004","","95","","","75","77","","k","2","77","training","adjacent","BC","2","3","P.jpg","M.jpg","0","1","0","",""
"","feedback","","html-keyboard-response","445","465530","0.0-1.0-699.0-0.0","0","0","41004","","null","","","null","77","","","","","","","","","","","","","","","",""
"","time_out","","html-keyboard-response","446","467539","0.0-1.0-701.0-0.0","0","0","41004","","null","","","null","77","","","","","","","","","","","","","","","",""
"","ITI","","html-keyboard-response","447","468547","0.0-1.0-702.0","0","0","41004","","2","","","75","77","","","","","","","","","","","","","","","k",""
"","S1","","html-keyboard-response","448","468803","0.0-1.0-704.0","0","0","41004","","null","","","null","78","","","","","","","","","","","","","","","",""
"","ISI","","html-keyboard-response","449","469309","0.0-1.0-705.0","0","0","41004","","46","","","68","78","d","","","","","","","","","","","","","","",""
"","S2","","html-keyboard-response","450","469318","0.0-1.0-706.0","0","0","41004","","2","","","75","78","","k","2","78","training","adjacent","BA","2","1","P.jpg","Q.jpg","0","0","1","",""
"","feedback","","html-keyboard-response","451","470328","0.0-1.0-708.0-0.0","0","0","41004","","null","","","null","78","","","","","","","","","","","","","","","",""
"","ITI","","html-keyboard-response","452","471335","0.0-1.0-711.0","0","0","41004","","131","","","75","78","","","","","","","","","","","","","","","k",""
"","S1","","html-keyboard-response","453","471594","0.0-1.0-713.0","0","0","41004","","null","","","null","79","","","","","","","","","","","","","","","",""
"","ISI","","html-keyboard-response","454","472098","0.0-1.0-714.0","0","0","41004","","44","","","75","79","k","","","","","","","","","","","","","","",""
"","S2","","html-keyboard-response","455","472237","0.0-1.0-715.0","0","0","41004","","132","","","68","79","","d","2","79","training","adjacent","GF","7","6","O.jpg","L.jpg","1","0","0","",""
"","feedback","","html-keyboard-response","456","473246","0.0-1.0-717.0-0.0","0","0","41004","","null","","","null","79","","","","","","","","","","","","","","","",""
"","time_out","","html-keyboard-response","457","475257","0.0-1.0-719.0-0.0","0","0","41004","","null","","","null","79","","","","","","","","","","","","","","","",""
"","ITI","","html-keyboard-response","458","476313","0.0-1.0-720.0","0","0","41004","","73","","","75","79","","","","","","","","","","","","","","","k",""
"","S1","","html-keyboard-response","459","476569","0.0-1.0-722.0","0","0","41004","","null","","","null","80","","","","","","","","","","","","","","","",""
"","ISI","","html-keyboard-response","460","477072","0.0-1.0-723.0","0","0","41004","","218","","","75","80","k","","","","","","","","","","","","","","",""
"","S2","","html-keyboard-response","461","477083","0.0-1.0-724.0","0","0","41004","","6","","","75","80","","k","2","80","training","adjacent","DE","4","5","N.jpg","R.jpg","0","1","0","",""
"","feedback","","html-keyboard-response","462","478092","0.0-1.0-726.0-0.0","0","0","41004","","null","","","null","80","","","","","","","","","","","","","","","",""
"","time_out","","html-keyboard-response","463","480131","0.0-1.0-728.0-0.0","0","0","41004","","null","","","null","80","","","","","","","","","","","","","","","",""
"","ITI","","html-keyboard-response","464","481196","0.0-1.0-729.0","0","0","41004","","45","","","68","80","","","","","","","","","","","","","","","d",""
"","S1","","html-keyboard-response","465","481458","0.0-1.0-731.0","0","0","41004","","null","","","null","81","","","","","","","","","","","","","","","",""
"","ISI","","html-keyboard-response","466","481963","0.0-1.0-732.0","0","0","41004","","72","","","75","81","k","","","","","","","","","","","","","","",""
"","S2","","html-keyboard-response","467","481983","0.0-1.0-733.0","0","0","41004","","14","","","68","81","","d","2","81","training","adjacent","CB","3","2","M.jpg","P.jpg","1","0","0","",""
"","feedback","","html-keyboard-response","468","482989","0.0-1.0-735.0-0.0","0","0","41004","","null","","","null","81","","","","","","","","","","","","","","","",""
"","time_out","","html-keyboard-response","469","484995","0.0-1.0-737.0-0.0","0","0","41004","","null","","","null","81","","","","","","","","","","","","","","","",""
"","ITI","","html-keyboard-response","470","486016","0.0-1.0-738.0","0","0","41004","","94","","","75","81","","","","","","","","","","","","","","","k",""
"","S1","","html-keyboard-response","471","486273","0.0-1.0-740.0","0","0","41004","","null","","","null","82","","","","","","","","","","","","","","","",""
"","ISI","","html-keyboard-response","472","486779","0.0-1.0-741.0","0","0","41004","","176","","","75","82","k","","","","","","","","","","","","","","",""
"","S2","","html-keyboard-response","473","486904","0.0-1.0-742.0","0","0","41004","","119","","","75","82","","k","2","82","training","adjacent","DC","4","3","N.jpg","M.jpg","0","0","1","",""
"","feedback","","html-keyboard-response","474","487929","0.0-1.0-744.0-0.0","0","0","41004","","null","","","null","82","","","","","","","","","","","","","","","",""
"","ITI","","html-keyboard-response","475","488943","0.0-1.0-747.0","0","0","41004","","16","","","68","82","","","","","","","","","","","","","","","d",""
"","S1","","html-keyboard-response","476","489201","0.0-1.0-749.0","0","0","41004","","null","","","null","83","","","","","","","","","","","","","","","",""
"","ISI","","html-keyboard-response","477","489706","0.0-1.0-750.0","0","0","41004","","119","","","68","83","d","","","","","","","","","","","","","","",""
"","S2","","html-keyboard-response","478","489805","0.0-1.0-751.0","0","0","41004","","83","","","68","83","","d","2","83","training","adjacent","EF","5","6","R.jpg","L.jpg","1","1","1","",""
"","feedback","","html-keyboard-response","479","490817","0.0-1.0-753.0-0.0","0","0","41004","","null","","","null","83","","","","","","","","","","","","","","","",""
"","ITI","","html-keyboard-response","480","491824","0.0-1.0-756.0","0","0","41004","","52","","","68","83","","","","","","","","","","","","","","","d",""
"","S1","","html-keyboard-response","481","492082","0.0-1.0-758.0","0","0","41004","","null","","","null","84","","","","","","","","","","","","","","","",""
"","ISI","","html-keyboard-response","482","492698","0.0-1.0-759.0","0","0","41004","","75","","","75","84","k","","","","","","","","","","","","","","",""
"","S2","","html-keyboard-response","483","492720","0.0-1.0-760.0","0","0","41004","","15","","","68","84","","d","2","84","training","adjacent","DE","4","5","N.jpg","R.jpg","1","1","1","",""
"","feedback","","html-keyboard-response","484","493724","0.0-1.0-762.0-0.0","0","0","41004","","null","","","null","84","","","","","","","","","","","","","","","",""
"","ITI","","html-keyboard-response","485","494728","0.0-1.0-765.0","0","0","41004","","115","","","75","84","","","","","","","","","","","","","","","k",""
"","S1","","html-keyboard-response","486","494983","0.0-1.0-767.0","0","0","41004","","null","","","null","85","","","","","","","","","","","","","","","",""
"","ISI","","html-keyboard-response","487","495487","0.0-1.0-768.0","0","0","41004","","77","","","68","85","d","","","","","","","","","","","","","","",""
"","S2","","html-keyboard-response","488","495743","0.0-1.0-769.0","0","0","41004","","null","","","null","85","","NaN","","","","","","","","","","","","","",""
"","response","","html-keyboard-response","489","496483","0.0-1.0-770.0-0.0","0","0","41004","","734","","","68","85","","","2","85","training","adjacent","FG","6","7","L.jpg","O.jpg","1","1","1","",""
"","feedback","","html-keyboard-response","490","497493","0.0-1.0-771.0-0.0","0","0","41004","","null","","","null","85","","","","","","","","","","","","","","","",""
"","ITI","","html-keyboard-response","491","498498","0.0-1.0-774.0","0","0","41004","","15","","","68","85","","","","","","","","","","","","","","","d",""
"","S1","","html-keyboard-response","492","498754","0.0-1.0-776.0","0","0","41004","","null","","","null","86","","","","","","","","","","","","","","","",""
"","ISI","","html-keyboard-response","493","499268","0.0-1.0-777.0","0","0","41004","","115","","","75","86","k","","","","","","","","","","","","","","",""
"","S2","","html-keyboard-response","494","499387","0.0-1.0-778.0","0","0","41004","","113","","","75","86","","k","2","86","training","adjacent","ED","5","4","R.jpg","N.jpg","0","0","1","",""
"","feedback","","html-keyboard-response","495","500394","0.0-1.0-780.0-0.0","0","0","41004","","null","","","null","86","","","","","","","","","","","","","","","",""
"","ITI","","html-keyboard-response","496","501402","0.0-1.0-783.0","0","0","41004","","147","","","75","86","","","","","","","","","","","","","","","k",""
"","S1","","html-keyboard-response","497","501660","0.0-1.0-785.0","0","0","41004","","null","","","null","87","","","","","","","","","","","","","","","",""
"","ISI","","html-keyboard-response","498","502165","0.0-1.0-786.0","0","0","41004","","91","","","68","87","d","","","","","","","","","","","","","","",""
"","S2","","html-keyboard-response","499","502184","0.0-1.0-787.0","0","0","41004","","15","","","68","87","","d","2","87","training","adjacent","BA","2","1","P.jpg","Q.jpg","1","0","0","",""
"","feedback","","html-keyboard-response","500","503192","0.0-1.0-789.0-0.0","0","0","41004","","null","","","null","87","","","","","","","","","","","","","","","",""
"","time_out","","html-keyboard-response","501","505198","0.0-1.0-791.0-0.0","0","0","41004","","null","","","null","87","","","","","","","","","","","","","","","",""
"","ITI","","html-keyboard-response","502","506204","0.0-1.0-792.0","0","0","41004","","100","","","75","87","","","","","","","","","","","","","","","k",""
"","S1","","html-keyboard-response","503","506459","0.0-1.0-794.0","0","0","41004","","null","","","null","88","","","","","","","","","","","","","","","",""
"","ISI","","html-keyboard-response","504","506969","0.0-1.0-795.0","0","0","41004","","88","","","75","88","k","","","","","","","","","","","","","","",""
"","S2","","html-keyboard-response","505","507031","0.0-1.0-796.0","0","0","41004","","53","","","75","88","","k","2","88","training","adjacent","FE","6","5","L.jpg","R.jpg","0","0","1","",""
"","feedback","","html-keyboard-response","506","508037","0.0-1.0-798.0-0.0","0","0","41004","","null","","","null","88","","","","","","","","","","","","","","","",""
"","ITI","","html-keyboard-response","507","509059","0.0-1.0-801.0","0","0","41004","","39","","","68","88","","","","","","","","","","","","","","","d",""
"","S1","","html-keyboard-response","508","509315","0.0-1.0-803.0","0","0","41004","","null","","","null","89","","","","","","","","","","","","","","","",""
"","ISI","","html-keyboard-response","509","509822","0.0-1.0-804.0","0","0","41004","","0","","","75","89","k","","","","","","","","","","","","","","",""
"","S2","","html-keyboard-response","510","509906","0.0-1.0-805.0","0","0","41004","","79","","","75","89","","k","2","89","training","adjacent","AB","1","2","Q.jpg","P.jpg","0","1","0","",""
"","feedback","","html-keyboard-response","511","510912","0.0-1.0-807.0-0.0","0","0","41004","","null","","","null","89","","","","","","","","","","","","","","","",""
"","time_out","","html-keyboard-response","512","512919","0.0-1.0-809.0-0.0","0","0","41004","","null","","","null","89","","","","","","","","","","","","","","","",""
"","ITI","","html-keyboard-response","513","513924","0.0-1.0-810.0","0","0","41004","","91","","","75","89","","","","","","","","","","","","","","","k",""
"","S1","","html-keyboard-response","514","514177","0.0-1.0-812.0","0","0","41004","","null","","","null","90","","","","","","","","","","","","","","","",""
"","ISI","","html-keyboard-response","515","514684","0.0-1.0-813.0","0","0","41004","","204","","","75","90","k","","","","","","","","","","","","","","",""
"","S2","","html-keyboard-response","516","514826","0.0-1.0-814.0","0","0","41004","","133","","","68","90","","d","2","90","training","adjacent","DC","4","3","N.jpg","M.jpg","1","0","0","",""
"","feedback","","html-keyboard-response","517","515832","0.0-1.0-816.0-0.0","0","0","41004","","null","","","null","90","","","","","","","","","","","","","","","",""
"","time_out","","html-keyboard-response","518","517837","0.0-1.0-818.0-0.0","0","0","41004","","null","","","null","90","","","","","","","","","","","","","","","",""
"","ITI","","html-keyboard-response","519","518844","0.0-1.0-819.0","0","0","41004","","63","","","68","90","","","","","","","","","","","","","","","d",""
"","S1","","html-keyboard-response","520","519100","0.0-1.0-821.0","0","0","41004","","null","","","null","91","","","","","","","","","","","","","","","",""
"","ISI","","html-keyboard-response","521","519605","0.0-1.0-822.0","0","0","41004","","61","","","75","91","k","","","","","","","","","","","","","","",""
"","S2","","html-keyboard-response","522","519654","0.0-1.0-823.0","0","0","41004","","42","","","68","91","","d","2","91","training","adjacent","FG","6","7","L.jpg","O.jpg","1","1","1","",""
"","feedback","","html-keyboard-response","523","520661","0.0-1.0-825.0-0.0","0","0","41004","","null","","","null","91","","","","","","","","","","","","","","","",""
"","ITI","","html-keyboard-response","524","521668","0.0-1.0-828.0","0","0","41004","","11","","","68","91","","","","","","","","","","","","","","","d",""
"","S1","","html-keyboard-response","525","521941","0.0-1.0-830.0","0","0","41004","","null","","","null","92","","","","","","","","","","","","","","","",""
"","ISI","","html-keyboard-response","526","522447","0.0-1.0-831.0","0","0","41004","","57","","","75","92","k","","","","","","","","","","","","","","",""
"","S2","","html-keyboard-response","527","522464","0.0-1.0-832.0","0","0","41004","","11","","","68","92","","d","2","92","training","adjacent","AB","1","2","Q.jpg","P.jpg","1","1","1","",""
"","feedback","","html-keyboard-response","528","523476","0.0-1.0-834.0-0.0","0","0","41004","","null","","","null","92","","","","","","","","","","","","","","","",""
"","ITI","","html-keyboard-response","529","524481","0.0-1.0-837.0","0","0","41004","","140","","","75","92","","","","","","","","","","","","","","","k",""
"","S1","","html-keyboard-response","530","524735","0.0-1.0-839.0","0","0","41004","","null","","","null","93","","","","","","","","","","","","","","","",""
"","ISI","","html-keyboard-response","531","525241","0.0-1.0-840.0","0","0","41004","","113","","","68","93","d","","","","","","","","","","","","","","",""
"","S2","","html-keyboard-response","532","525352","0.0-1.0-841.0","0","0","41004","","105","","","68","93","","d","2","93","training","adjacent","AB","1","2","Q.jpg","P.jpg","1","1","1","",""
"","feedback","","html-keyboard-response","533","526359","0.0-1.0-843.0-0.0","0","0","41004","","null","","","null","93","","","","","","","","","","","","","","","",""
"","ITI","","html-keyboard-response","534","527364","0.0-1.0-846.0","0","0","41004","","209","","","68","93","","","","","","","","","","","","","","","d",""
"","S1","","html-keyboard-response","535","527619","0.0-1.0-848.0","0","0","41004","","null","","","null","94","","","","","","","","","","","","","","","",""
"","ISI","","html-keyboard-response","536","528125","0.0-1.0-849.0","0","0","41004","","212","","","68","94","d","","","","","","","","","","","","","","",""
"","S2","","html-keyboard-response","537","528336","0.0-1.0-850.0","0","0","41004","","204","","","68","94","","d","2","94","training","adjacent","EF","5","6","R.jpg","L.jpg","1","1","1","",""
"","feedback","","html-keyboard-response","538","529346","0.0-1.0-852.0-0.0","0","0","41004","","null","","","null","94","","","","","","","","","","","","","","","",""
"","ITI","","html-keyboard-response","539","530478","0.0-1.0-855.0","0","0","41004","","224","","","68","94","","","","","","","","","","","","","","","d",""
"","S1","","html-keyboard-response","540","530740","0.0-1.0-857.0","0","0","41004","","null","","","null","95","","","","","","","","","","","","","","","",""
"","ISI","","html-keyboard-response","541","531245","0.0-1.0-858.0","0","0","41004","","110","","","75","95","k","","","","","","","","","","","","","","",""
"","S2","","html-keyboard-response","542","531305","0.0-1.0-859.0","0","0","41004","","53","","","75","95","","k","2","95","training","adjacent","DE","4","5","N.jpg","R.jpg","0","1","0","",""
"","feedback","","html-keyboard-response","543","532315","0.0-1.0-861.0-0.0","0","0","41004","","null","","","null","95","","","","","","","","","","","","","","","",""
"","time_out","","html-keyboard-response","544","534368","0.0-1.0-863.0-0.0","0","0","41004","","null","","","null","95","","","","","","","","","","","","","","","",""
"","ITI","","html-keyboard-response","545","535424","0.0-1.0-864.0","0","0","41004","","55","","","68","95","","","","","","","","","","","","","","","d",""
"","block_over","","html-keyboard-response","546","537050","0.0-1.0-865.0-0.0","0","0","41004","","1622","","","32","95","","","","","","","","","","","","","","","",""
"","S1","","html-keyboard-response","547","537386","0.0-1.0-866.0","0","0","41004","","null","","","null","96","","","","","","","","","","","","","","","",""
"","ISI","","html-keyboard-response","548","537891","0.0-1.0-867.0","0","0","41004","","null","","","null","96","NaN","","","","","","","","","","","","","","",""
"","S2","","html-keyboard-response","549","538150","0.0-1.0-868.0","0","0","41004","","null","","","null","96","","NaN","","","","","","","","","","","","","",""
"","response","","html-keyboard-response","550","539908","0.0-1.0-869.0-0.0","0","0","41004","","null","","","null","96","","","3","96","training","adjacent","BA","2","1","P.jpg","Q.jpg","NaN","0","0","",""
"","too_slow_prompt","","html-keyboard-response","551","540914","0.0-1.0-871.0-0.0","1","0","41004","","null","","","null","","","","","","","","","","","","","","","","",""
"","time_out","","html-keyboard-response","552","542926","0.0-1.0-872.0-0.0","0","0","41004","","null","","","null","96","","","","","","","","","","","","","","","",""
"","ITI","","html-keyboard-response","553","543937","0.0-1.0-873.0","0","0","41004","","190","","","68","96","","","","","","","","","","","","","","","d",""
"","S1","","html-keyboard-response","554","544197","0.0-1.0-875.0","0","0","41004","","null","","","null","97","","","","","","","","","","","","","","","",""
"","ISI","","html-keyboard-response","555","544701","0.0-1.0-876.0","0","0","41004","","164","","","75","97","k","","","","","","","","","","","","","","",""
"","S2","","html-keyboard-response","556","544835","0.0-1.0-877.0","0","0","41004","","126","","","68","97","","d","3","97","training","adjacent","FG","6","7","L.jpg","O.jpg","1","1","1","",""
"","feedback","","html-keyboard-response","557","545844","0.0-1.0-879.0-0.0","0","0","41004","","null","","","null","97","","","","","","","","","","","","","","","",""
"","ITI","","html-keyboard-response","558","546852","0.0-1.0-882.0","0","0","41004","","95","","","68","97","","","","","","","","","","","","","","","d",""
"","S1","","html-keyboard-response","559","547106","0.0-1.0-884.0","0","0","41004","","null","","","null","98","","","","","","","","","","","","","","","",""
"","ISI","","html-keyboard-response","560","547612","0.0-1.0-885.0","0","0","41004","","11","","","75","98","k","","","","","","","","","","","","","","",""
"","S2","","html-keyboard-response","561","547804","0.0-1.0-886.0","0","0","41004","","185","","","75","98","","k","3","98","training","adjacent","DC","4","3","N.jpg","M.jpg","0","0","1","",""
"","feedback","","html-keyboard-response","562","548813","0.0-1.0-888.0-0.0","0","0","41004","","null","","","null","98","","","","","","","","","","","","","","","",""
"","ITI","","html-keyboard-response","563","549822","0.0-1.0-891.0","0","0","41004","","26","","","75","98","","","","","","","","","","","","","","","k",""
"","S1","","html-keyboard-response","564","550079","0.0-1.0-893.0","0","0","41004","","null","","","null","99","","","","","","","","","","","","","","","",""
"","ISI","","html-keyboard-response","565","550588","0.0-1.0-894.0","0","0","41004","","110","","","75","99","k","","","","","","","","","","","","","","",""
"","S2","","html-keyboard-response","566","550665","0.0-1.0-895.0","0","0","41004","","67","","","68","99","","d","3","99","training","adjacent","DC","4","3","N.jpg","M.jpg","1","0","0","",""
"","feedback","","html-keyboard-response","567","551670","0.0-1.0-897.0-0.0","0","0","41004","","null","","","null","99","","","","","","","","","","","","","","","",""
"","time_out","","html-keyboard-response","568","553676","0.0-1.0-899.0-0.0","0","0","41004","","null","","","null","99","","","","","","","","","","","","","","","",""
"","ITI","","html-keyboard-response","569","554684","0.0-1.0-900.0","0","0","41004","","130","","","75","99","","","","","","","","","","","","","","","k",""
"","S1","","html-keyboard-response","570","554939","0.0-1.0-902.0","0","0","41004","","null","","","null","100","","","","","","","","","","","","","","","",""
"","ISI","","html-keyboard-response","571","555443","0.0-1.0-903.0","0","0","41004","","67","","","68","100","d","","","","","","","","","","","","","","",""
"","S2","","html-keyboard-response","572","555594","0.0-1.0-904.0","0","0","41004","","144","","","75","100","","k","3","100","training","adjacent","GF","7","6","O.jpg","L.jpg","0","0","1","",""
"","feedback","","html-keyboard-response","573","556600","0.0-1.0-906.0-0.0","0","0","41004","","null","","","null","100","","","","","","","","","","","","","","","",""
"","ITI","","html-keyboard-response","574","557605","0.0-1.0-909.0","0","0","41004","","98","","","68","100","","","","","","","","","","","","","","","d",""
"","S1","","html-keyboard-response","575","557860","0.0-1.0-911.0","0","0","41004","","null","","","null","101","","","","","","","","","","","","","","","",""
"","ISI","","html-keyboard-response","576","558364","0.0-1.0-912.0","0","0","41004","","198","","","68","101","d","","","","","","","","","","","","","","",""
"","S2","","html-keyboard-response","577","558505","0.0-1.0-913.0","0","0","41004","","135","","","75","101","","k","3","101","training","adjacent","BA","2","1","P.jpg","Q.jpg","0","0","1","",""
"","feedback","","html-keyboard-response","578","559513","0.0-1.0-915.0-0.0","0","0","41004","","null","","","null","101","","","","","","","","","","","","","","","",""
"","ITI","","html-keyboard-response","579","560526","0.0-1.0-918.0","0","0","41004","","133","","","68","101","","","","","","","","","","","","","","","d",""
"","S1","","html-keyboard-response","580","560781","0.0-1.0-920.0","0","0","41004","","null","","","null","102","","","","","","","","","","","","","","","",""
"","ISI","","html-keyboard-response","581","561288","0.0-1.0-921.0","0","0","41004","","77","","","68","102","d","","","","","","","","","","","","","","",""
"","S2","","html-keyboard-response","582","561355","0.0-1.0-922.0","0","0","41004","","60","","","68","102","","d","3","102","training","adjacent","BC","2","3","P.jpg","M.jpg","1","1","1","",""
"","feedback","","html-keyboard-response","583","562364","0.0-1.0-924.0-0.0","0","0","41004","","null","","","null","102","","","","","","","","","","","","","","","",""
"","ITI","","html-keyboard-response","584","563371","0.0-1.0-927.0","0","0","41004","","208","","","75","102","","","","","","","","","","","","","","","k",""
