"success","ttype","start_time","trial_type","trial_index","time_elapsed","internal_node_id","warning","missed_checkup","PID","view_history","rt","responses","repeat_instructions","key_press","index","keypress_isi","keypress_S2","block","trial_num","phase","group_type","pair_type","S1_stim","S2_stim","S1_img","S2_img","S1_chosen","S1_higher","accuracy","keypress_iti","total_bonus_tally"
"true","full_screen","d04062023hr2228","fullscreen","0","18842","0.0-0.0","0","0","97721","","","","","","","","","","","","","","","","","","","","","",""
"","instructions","","instructions","1","136651","0.0-1.0-0.0-0.0","0","0","97721","[{""page_index"":0,""viewing_time"":9412},{""page_index"":1,""viewing_time"":91871},{""page_index"":2,""viewing_time"":14442},{""page_index"":3,""viewing_time"":2077}]","117804","","","","","","","","","","","","","","","","","","","",""
"","comprehension_check","","survey-multi-choice","2","169886","0.0-1.0-0.0-1.0","0","0","97721","","33226","{""Q0"":""True"",""Q1"":""K"",""Q2"":""Only when the screen 'MAKE A CHOICE' is shown"",""Q3"":""Green mark"",""Q4"":""either D or K""}","1","","","","","","","","","","","","","","","","","",""
"","missed_instruction_checkup","","html-keyboard-response","3","173606","0.0-1.0-0.0-2.0-0.0","0","1","97721","","3712","","","32","","","","","","","","","","","","","","","","",""
"","instructions","","instructions","4","191945","0.0-1.0-0.1-0.1","0","0","97721","[{""page_index"":0,""viewing_time"":2663},{""page_index"":1,""viewing_time"":11956},{""page_index"":2,""viewing_time"":2391},{""page_index"":3,""viewing_time"":1323}]","18334","","","","","","","","","","","","","","","","","","","",""
"","comprehension_check","","survey-multi-choice","5","209989","0.0-1.0-0.1-1.1","0","0","97721","","18037","{""Q0"":""True"",""Q1"":""K"",""Q2"":""Once the second image appears and while the screen 'MAKE A CHOICE' is shown"",""Q3"":""Green mark"",""Q4"":""either D or K""}","0","","","","","","","","","","","","","","","","","",""
"","start_exp","","html-keyboard-response","6","211558","0.0-1.0-1.0","0","0","97721","","1564","","","32","","","","","","","","","","","","","","","","",""
"","S1","","html-keyboard-response","7","211714","0.0-1.0-2.0","0","0","97721","","null","","","null","0","","","","","","","","","","","","","","","",""
"","ISI","","html-keyboard-response","8","213721","0.0-1.0-3.0","0","0","97721","","null","","","null","0","NaN","","","","","","","","","","","","","","",""
"","S2","","html-keyboard-response","9","213878","0.0-1.0-4.0","0","0","97721","","null","","","null","0","","NaN","","","","","","","","","","","","","",""
"","response","","html-keyboard-response","10","215739","0.0-1.0-5.0-0.0","0","0","97721","","null","","","null","0","","","1","0","training","adjacent","CB","3","2","L.jpg","O.jpg","NaN","0","0","",""
"","too_slow_prompt","","html-keyboard-response","11","216746","0.0-1.0-7.0-0.0","1","0","97721","","null","","","null","","","","","","","","","","","","","","","","",""
"","time_out","","html-keyboard-response","12","218754","0.0-1.0-8.0-0.0","0","0","97721","","null","","","null","0","","","","","","","","","","","","","","","",""
"","ITI","","html-keyboard-response","13","219762","0.0-1.0-9.0","0","0","97721","","null","","","null","0","","","","","","","","","","","","","","","NaN",""
"","S1","","html-keyboard-response","14","219922","0.0-1.0-11.0","0","0","97721","","null","","","null","1","","","","","","","","","","","","","","","",""
"","ISI","","html-keyboard-response","15","221930","0.0-1.0-12.0","0","0","97721","","null","","","null","1","NaN","","","","","","","","","","","","","","",""
"","S2","","html-keyboard-response","16","222090","0.0-1.0-13.0","0","0","97721","","null","","","null","1","","NaN","","","","","","","","","","","","","",""
"","response","","html-keyboard-response","17","222464","0.0-1.0-14.0-0.0","0","0","97721","","369","","","68","1","","","1","1","training","adjacent","AB","1","2","M.jpg","O.jpg","0","1","0","",""
"","feedback","","html-keyboard-response","18","223474","0.0-1.0-15.0-0.0","0","0","97721","","null","","","null","1","","","","","","","","","","","","","","","",""
"","time_out","","html-keyboard-response","19","225482","0.0-1.0-17.0-0.0","0","0","97721","","null","","","null","1","","","","","","","","","","","","","","","",""
"","ITI","","html-keyboard-response","20","226490","0.0-1.0-18.0","0","0","97721","","null","","","null","1","","","","","","","","","","","","","","","NaN",""
"","S1","","html-keyboard-response","21","226650","0.0-1.0-20.0","0","0","97721","","null","","","null","2","","","","","","","","","","","","","","","",""
"","ISI","","html-keyboard-response","22","228658","0.0-1.0-21.0","0","0","97721","","null","","","null","2","NaN","","","","","","","","","","","","","","",""
"","S2","","html-keyboard-response","23","228818","0.0-1.0-22.0","0","0","97721","","null","","","null","2","","NaN","","","","","","","","","","","","","",""
"","response","","html-keyboard-response","24","229029","0.0-1.0-23.0-0.0","0","0","97721","","206","","","75","2","","","1","2","training","adjacent","FG","6","7","R.jpg","P.jpg","1","1","1","",""
"","feedback","","html-keyboard-response","25","230034","0.0-1.0-24.0-0.0","0","0","97721","","null","","","null","2","","","","","","","","","","","","","","","",""
"","ITI","","html-keyboard-response","26","231042","0.0-1.0-27.0","0","0","97721","","null","","","null","2","","","","","","","","","","","","","","","NaN",""
"","S1","","html-keyboard-response","27","231202","0.0-1.0-29.0","0","0","97721","","null","","","null","3","","","","","","","","","","","","","","","",""
"","ISI","","html-keyboard-response","28","233210","0.0-1.0-30.0","0","0","97721","","null","","","null","3","NaN","","","","","","","","","","","","","","",""
"","S2","","html-keyboard-response","29","233370","0.0-1.0-31.0","0","0","97721","","null","","","null","3","","NaN","","","","","","","","","","","","","",""
"","response","","html-keyboard-response","30","233896","0.0-1.0-32.0-0.0","0","0","97721","","522","","","68","3","","","1","3","training","adjacent","ED","5","4","Q.jpg","N.jpg","0","0","1","",""
"","feedback","","html-keyboard-response","31","234906","0.0-1.0-33.0-0.0","0","0","97721","","null","","","null","3","","","","","","","","","","","","","","","",""
"","ITI","","html-keyboard-response","32","235914","0.0-1.0-36.0","0","0","97721","","null","","","null","3","","","","","","","","","","","","","","","NaN",""
"","S1","","html-keyboard-response","33","236074","0.0-1.0-38.0","0","0","97721","","null","","","null","4","","","","","","","","","","","","","","","",""
"","ISI","","html-keyboard-response","34","238082","0.0-1.0-39.0","0","0","97721","","null","","","null","4","NaN","","","","","","","","","","","","","","",""
"","S2","","html-keyboard-response","35","238242","0.0-1.0-40.0","0","0","97721","","null","","","null","4","","NaN","","","","","","","","","","","","","",""
"","response","","html-keyboard-response","36","238598","0.0-1.0-41.0-0.0","0","0","97721","","352","","","68","4","","","1","4","training","adjacent","GF","7","6","P.jpg","R.jpg","0","0","1","",""
"","feedback","","html-keyboard-response","37","239610","0.0-1.0-42.0-0.0","0","0","97721","","null","","","null","4","","","","","","","","","","","","","","","",""
"","ITI","","html-keyboard-response","38","240618","0.0-1.0-45.0","0","0","97721","","null","","","null","4","","","","","","","","","","","","","","","NaN",""
"","S1","","html-keyboard-response","39","240778","0.0-1.0-47.0","0","0","97721","","null","","","null","5","","","","","","","","","","","","","","","",""
"","ISI","","html-keyboard-response","40","242786","0.0-1.0-48.0","0","0","97721","","null","","","null","5","NaN","","","","","","","","","","","","","","",""
"","S2","","html-keyboard-response","41","242946","0.0-1.0-49.0","0","0","97721","","null","","","null","5","","NaN","","","","","","","","","","","","","",""
"","response","","html-keyboard-response","42","243362","0.0-1.0-50.0-0.0","0","0","97721","","412","","","68","5","","","1","5","training","adjacent","CB","3","2","L.jpg","O.jpg","0","0","1","",""
"","feedback","","html-keyboard-response","43","244370","0.0-1.0-51.0-0.0","0","0","97721","","null","","","null","5","","","","","","","","","","","","","","","",""
"","ITI","","html-keyboard-response","44","245378","0.0-1.0-54.0","0","0","97721","","null","","","null","5","","","","","","","","","","","","","","","NaN",""
"","S1","","html-keyboard-response","45","245538","0.0-1.0-56.0","0","0","97721","","null","","","null","6","","","","","","","","","","","","","","","",""
"","ISI","","html-keyboard-response","46","247546","0.0-1.0-57.0","0","0","97721","","null","","","null","6","NaN","","","","","","","","","","","","","","",""
"","S2","","html-keyboard-response","47","247706","0.0-1.0-58.0","0","0","97721","","null","","","null","6","","NaN","","","","","","","","","","","","","",""
"","response","","html-keyboard-response","48","248002","0.0-1.0-59.0-0.0","0","0","97721","","292","","","68","6","","","1","6","training","adjacent","FG","6","7","R.jpg","P.jpg","0","1","0","",""
"","feedback","","html-keyboard-response","49","249010","0.0-1.0-60.0-0.0","0","0","97721","","null","","","null","6","","","","","","","","","","","","","","","",""
"","time_out","","html-keyboard-response","50","251018","0.0-1.0-62.0-0.0","0","0","97721","","null","","","null","6","","","","","","","","","","","","","","","",""
"","ITI","","html-keyboard-response","51","252026","0.0-1.0-63.0","0","0","97721","","null","","","null","6","","","","","","","","","","","","","","","NaN",""
"","S1","","html-keyboard-response","52","252186","0.0-1.0-65.0","0","0","97721","","null","","","null","7","","","","","","","","","","","","","","","",""
"","ISI","","html-keyboard-response","53","254194","0.0-1.0-66.0","0","0","97721","","null","","","null","7","NaN","","","","","","","","","","","","","","",""
"","S2","","html-keyboard-response","54","254354","0.0-1.0-67.0","0","0","97721","","null","","","null","7","","NaN","","","","","","","","","","","","","",""
"","response","","html-keyboard-response","55","254588","0.0-1.0-68.0-0.0","0","0","97721","","229","","","75","7","","","1","7","training","adjacent","FE","6","5","R.jpg","Q.jpg","1","0","0","",""
"","feedback","","html-keyboard-response","56","255594","0.0-1.0-69.0-0.0","0","0","97721","","null","","","null","7","","","","","","","","","","","","","","","",""
"","time_out","","html-keyboard-response","57","257602","0.0-1.0-71.0-0.0","0","0","97721","","null","","","null","7","","","","","","","","","","","","","","","",""
"","ITI","","html-keyboard-response","58","258610","0.0-1.0-72.0","0","0","97721","","null","","","null","7","","","","","","","","","","","","","","","NaN",""
"","S1","","html-keyboard-response","59","258770","0.0-1.0-74.0","0","0","97721","","null","","","null","8","","","","","","","","","","","","","","","",""
"","ISI","","html-keyboard-response","60","260778","0.0-1.0-75.0","0","0","97721","","null","","","null","8","NaN","","","","","","","","","","","","","","",""
"","S2","","html-keyboard-response","61","260937","0.0-1.0-76.0","0","0","97721","","null","","","null","8","","NaN","","","","","","","","","","","","","",""
"","response","","html-keyboard-response","62","261367","0.0-1.0-77.0-0.0","0","0","97721","","425","","","68","8","","","1","8","training","adjacent","BC","2","3","O.jpg","L.jpg","0","1","0","",""
"","feedback","","html-keyboard-response","63","262378","0.0-1.0-78.0-0.0","0","0","97721","","null","","","null","8","","","","","","","","","","","","","","","",""
"","time_out","","html-keyboard-response","64","264386","0.0-1.0-80.0-0.0","0","0","97721","","null","","","null","8","","","","","","","","","","","","","","","",""
"","ITI","","html-keyboard-response","65","265394","0.0-1.0-81.0","0","0","97721","","null","","","null","8","","","","","","","","","","","","","","","NaN",""
"","S1","","html-keyboard-response","66","265554","0.0-1.0-83.0","0","0","97721","","null","","","null","9","","","","","","","","","","","","","","","",""
"","ISI","","html-keyboard-response","67","267561","0.0-1.0-84.0","0","0","97721","","null","","","null","9","NaN","","","","","","","","","","","","","","",""
"","S2","","html-keyboard-response","68","267722","0.0-1.0-85.0","0","0","97721","","null","","","null","9","","NaN","","","","","","","","","","","","","",""
"","response","","html-keyboard-response","69","268007","0.0-1.0-86.0-0.0","0","0","97721","","281","","","75","9","","","1","9","training","adjacent","GF","7","6","P.jpg","R.jpg","1","0","0","",""
"","feedback","","html-keyboard-response","70","269018","0.0-1.0-87.0-0.0","0","0","97721","","null","","","null","9","","","","","","","","","","","","","","","",""
"","time_out","","html-keyboard-response","71","271025","0.0-1.0-89.0-0.0","0","0","97721","","null","","","null","9","","","","","","","","","","","","","","","",""
"","ITI","","html-keyboard-response","72","272033","0.0-1.0-90.0","0","0","97721","","null","","","null","9","","","","","","","","","","","","","","","NaN",""
"","S1","","html-keyboard-response","73","272193","0.0-1.0-92.0","0","0","97721","","null","","","null","10","","","","","","","","","","","","","","","",""
"","ISI","","html-keyboard-response","74","274202","0.0-1.0-93.0","0","0","97721","","null","","","null","10","NaN","","","","","","","","","","","","","","",""
"","S2","","html-keyboard-response","75","274362","0.0-1.0-94.0","0","0","97721","","null","","","null","10","","NaN","","","","","","","","","","","","","",""
"","response","","html-keyboard-response","76","275070","0.0-1.0-95.0-0.0","0","0","97721","","704","","","68","10","","","1","10","training","adjacent","FE","6","5","R.jpg","Q.jpg","0","0","1","",""
"","feedback","","html-keyboard-response","77","276082","0.0-1.0-96.0-0.0","0","0","97721","","null","","","null","10","","","","","","","","","","","","","","","",""
"","ITI","","html-keyboard-response","78","277090","0.0-1.0-99.0","0","0","97721","","null","","","null","10","","","","","","","","","","","","","","","NaN",""
"","S1","","html-keyboard-response","79","277249","0.0-1.0-101.0","0","0","97721","","null","","","null","11","","","","","","","","","","","","","","","",""
"","ISI","","html-keyboard-response","80","279258","0.0-1.0-102.0","0","0","97721","","null","","","null","11","NaN","","","","","","","","","","","","","","",""
"","S2","","html-keyboard-response","81","279418","0.0-1.0-103.0","0","0","97721","","null","","","null","11","","NaN","","","","","","","","","","","","","",""
"","response","","html-keyboard-response","82","279946","0.0-1.0-104.0-0.0","0","0","97721","","524","","","68","11","","","1","11","training","adjacent","ED","5","4","Q.jpg","N.jpg","0","0","1","",""
"","feedback","","html-keyboard-response","83","280954","0.0-1.0-105.0-0.0","0","0","97721","","null","","","null","11","","","","","","","","","","","","","","","",""
"","ITI","","html-keyboard-response","84","281962","0.0-1.0-108.0","0","0","97721","","null","","","null","11","","","","","","","","","","","","","","","NaN",""
"","S1","","html-keyboard-response","85","282122","0.0-1.0-110.0","0","0","97721","","null","","","null","12","","","","","","","","","","","","","","","",""
"","ISI","","html-keyboard-response","86","284130","0.0-1.0-111.0","0","0","97721","","null","","","null","12","NaN","","","","","","","","","","","","","","",""
"","S2","","html-keyboard-response","87","284290","0.0-1.0-112.0","0","0","97721","","null","","","null","12","","NaN","","","","","","","","","","","","","",""
"","response","","html-keyboard-response","88","284801","0.0-1.0-113.0-0.0","0","0","97721","","507","","","75","12","","","1","12","training","adjacent","CD","3","4","L.jpg","N.jpg","1","1","1","",""
"","feedback","","html-keyboard-response","89","285810","0.0-1.0-114.0-0.0","0","0","97721","","null","","","null","12","","","","","","","","","","","","","","","",""
"","ITI","","html-keyboard-response","90","286818","0.0-1.0-117.0","0","0","97721","","null","","","null","12","","","","","","","","","","","","","","","NaN",""
"","S1","","html-keyboard-response","91","286978","0.0-1.0-119.0","0","0","97721","","null","","","null","13","","","","","","","","","","","","","","","",""
"","ISI","","html-keyboard-response","92","288986","0.0-1.0-120.0","0","0","97721","","null","","","null","13","NaN","","","","","","","","","","","","","","",""
"","S2","","html-keyboard-response","93","289146","0.0-1.0-121.0","0","0","97721","","null","","","null","13","","NaN","","","","","","","","","","","","","",""
"","response","","html-keyboard-response","94","289613","0.0-1.0-122.0-0.0","0","0","97721","","464","","","68","13","","","1","13","training","adjacent","ED","5","4","Q.jpg","N.jpg","0","0","1","",""
"","feedback","","html-keyboard-response","95","290626","0.0-1.0-123.0-0.0","0","0","97721","","null","","","null","13","","","","","","","","","","","","","","","",""
"","ITI","","html-keyboard-response","96","291634","0.0-1.0-126.0","0","0","97721","","null","","","null","13","","","","","","","","","","","","","","","NaN",""
"","S1","","html-keyboard-response","97","291794","0.0-1.0-128.0","0","0","97721","","null","","","null","14","","","","","","","","","","","","","","","",""
"","ISI","","html-keyboard-response","98","293802","0.0-1.0-129.0","0","0","97721","","null","","","null","14","NaN","","","","","","","","","","","","","","",""
"","S2","","html-keyboard-response","99","293961","0.0-1.0-130.0","0","0","97721","","null","","","null","14","","NaN","","","","","","","","","","","","","",""
"","response","","html-keyboard-response","100","294200","0.0-1.0-131.0-0.0","0","0","97721","","235","","","75","14","","","1","14","training","adjacent","ED","5","4","Q.jpg","N.jpg","1","0","0","",""
"","feedback","","html-keyboard-response","101","295210","0.0-1.0-132.0-0.0","0","0","97721","","null","","","null","14","","","","","","","","","","","","","","","",""
"","time_out","","html-keyboard-response","102","297217","0.0-1.0-134.0-0.0","0","0","97721","","null","","","null","14","","","","","","","","","","","","","","","",""
"","ITI","","html-keyboard-response","103","298226","0.0-1.0-135.0","0","0","97721","","null","","","null","14","","","","","","","","","","","","","","","NaN",""
"","S1","","html-keyboard-response","104","298386","0.0-1.0-137.0","0","0","97721","","null","","","null","15","","","","","","","","","","","","","","","",""
"","ISI","","html-keyboard-response","105","300393","0.0-1.0-138.0","0","0","97721","","null","","","null","15","NaN","","","","","","","","","","","","","","",""
"","S2","","html-keyboard-response","106","300554","0.0-1.0-139.0","0","0","97721","","null","","","null","15","","NaN","","","","","","","","","","","","","",""
"","response","","html-keyboard-response","107","301163","0.0-1.0-140.0-0.0","0","0","97721","","605","","","75","15","","","1","15","training","adjacent","BC","2","3","O.jpg","L.jpg","1","1","1","",""
"","feedback","","html-keyboard-response","108","302170","0.0-1.0-141.0-0.0","0","0","97721","","null","","","null","15","","","","","","","","","","","","","","","",""
"","ITI","","html-keyboard-response","109","303178","0.0-1.0-144.0","0","0","97721","","null","","","null","15","","","","","","","","","","","","","","","NaN",""
"","S1","","html-keyboard-response","110","303338","0.0-1.0-146.0","0","0","97721","","null","","","null","16","","","","","","","","","","","","","","","",""
"","ISI","","html-keyboard-response","111","305345","0.0-1.0-147.0","0","0","97721","","null","","","null","16","NaN","","","","","","","","","","","","","","",""
"","S2","","html-keyboard-response","112","305506","0.0-1.0-148.0","0","0","97721","","null","","","null","16","","NaN","","","","","","","","","","","","","",""
"","response","","html-keyboard-response","113","306461","0.0-1.0-149.0-0.0","0","0","97721","","950","","","75","16","","","1","16","training","adjacent","BA","2","1","O.jpg","M.jpg","1","0","0","",""
"","feedback","","html-keyboard-response","114","307465","0.0-1.0-150.0-0.0","0","0","97721","","null","","","null","16","","","","","","","","","","","","","","","",""
"","time_out","","html-keyboard-response","115","309474","0.0-1.0-152.0-0.0","0","0","97721","","null","","","null","16","","","","","","","","","","","","","","","",""
"","ITI","","html-keyboard-response","116","310482","0.0-1.0-153.0","0","0","97721","","null","","","null","16","","","","","","","","","","","","","","","NaN",""
"","S1","","html-keyboard-response","117","310642","0.0-1.0-155.0","0","0","97721","","null","","","null","17","","","","","","","","","","","","","","","",""
"","ISI","","html-keyboard-response","118","312650","0.0-1.0-156.0","0","0","97721","","null","","","null","17","NaN","","","","","","","","","","","","","","",""
"","S2","","html-keyboard-response","119","312810","0.0-1.0-157.0","0","0","97721","","null","","","null","17","","NaN","","","","","","","","","","","","","",""
"","response","","html-keyboard-response","120","313058","0.0-1.0-158.0-0.0","0","0","97721","","244","","","68","17","","","1","17","training","adjacent","CD","3","4","L.jpg","N.jpg","0","1","0","",""
"","feedback","","html-keyboard-response","121","314066","0.0-1.0-159.0-0.0","0","0","97721","","null","","","null","17","","","","","","","","","","","","","","","",""
"","time_out","","html-keyboard-response","122","316074","0.0-1.0-161.0-0.0","0","0","97721","","null","","","null","17","","","","","","","","","","","","","","","",""
"","ITI","","html-keyboard-response","123","317082","0.0-1.0-162.0","0","0","97721","","null","","","null","17","","","","","","","","","","","","","","","NaN",""
"","S1","","html-keyboard-response","124","317242","0.0-1.0-164.0","0","0","97721","","null","","","null","18","","","","","","","","","","","","","","","",""
"","ISI","","html-keyboard-response","125","319249","0.0-1.0-165.0","0","0","97721","","null","","","null","18","NaN","","","","","","","","","","","","","","",""
"","S2","","html-keyboard-response","126","319410","0.0-1.0-166.0","0","0","97721","","null","","","null","18","","NaN","","","","","","","","","","","","","",""
"","response","","html-keyboard-response","127","319981","0.0-1.0-167.0-0.0","0","0","97721","","566","","","68","18","","","1","18","training","adjacent","DE","4","5","N.jpg","Q.jpg","0","1","0","",""
"","feedback","","html-keyboard-response","128","320994","0.0-1.0-168.0-0.0","0","0","97721","","null","","","null","18","","","","","","","","","","","","","","","",""
"","time_out","","html-keyboard-response","129","323002","0.0-1.0-170.0-0.0","0","0","97721","","null","","","null","18","","","","","","","","","","","","","","","",""
"","ITI","","html-keyboard-response","130","324010","0.0-1.0-171.0","0","0","97721","","null","","","null","18","","","","","","","","","","","","","","","NaN",""
"","S1","","html-keyboard-response","131","324169","0.0-1.0-173.0","0","0","97721","","null","","","null","19","","","","","","","","","","","","","","","",""
"","ISI","","html-keyboard-response","132","326178","0.0-1.0-174.0","0","0","97721","","null","","","null","19","NaN","","","","","","","","","","","","","","",""
"","S2","","html-keyboard-response","133","326338","0.0-1.0-175.0","0","0","97721","","null","","","null","19","","NaN","","","","","","","","","","","","","",""
"","response","","html-keyboard-response","134","326499","0.0-1.0-176.0-0.0","0","0","97721","","157","","","75","19","","","1","19","training","adjacent","DE","4","5","N.jpg","Q.jpg","1","1","1","",""
"","feedback","","html-keyboard-response","135","327506","0.0-1.0-177.0-0.0","0","0","97721","","null","","","null","19","","","","","","","","","","","","","","","",""
"","ITI","","html-keyboard-response","136","328513","0.0-1.0-180.0","0","0","97721","","null","","","null","19","","","","","","","","","","","","","","","NaN",""
"","S1","","html-keyboard-response","137","328674","0.0-1.0-182.0","0","0","97721","","null","","","null","20","","","","","","","","","","","","","","","",""
"","ISI","","html-keyboard-response","138","330682","0.0-1.0-183.0","0","0","97721","","730","","","68","20","d","","","","","","","","","","","","","","",""
"","S2","","html-keyboard-response","139","330842","0.0-1.0-184.0","0","0","97721","","null","","","null","20","","NaN","","","","","","","","","","","","","",""
"","response","","html-keyboard-response","140","330955","0.0-1.0-185.0-0.0","0","0","97721","","109","","","68","20","","","1","20","training","adjacent","AB","1","2","M.jpg","O.jpg","0","1","0","",""
"","feedback","","html-keyboard-response","141","331962","0.0-1.0-186.0-0.0","0","0","97721","","null","","","null","20","","","","","","","","","","","","","","","",""
"","time_out","","html-keyboard-response","142","333970","0.0-1.0-188.0-0.0","0","0","97721","","null","","","null","20","","","","","","","","","","","","","","","",""
"","ITI","","html-keyboard-response","143","334978","0.0-1.0-189.0","0","0","97721","","null","","","null","20","","","","","","","","","","","","","","","NaN",""
"","S1","","html-keyboard-response","144","335138","0.0-1.0-191.0","0","0","97721","","null","","","null","21","","","","","","","","","","","","","","","",""
"","ISI","","html-keyboard-response","145","337146","0.0-1.0-192.0","0","0","97721","","null","","","null","21","NaN","","","","","","","","","","","","","","",""
"","S2","","html-keyboard-response","146","337306","0.0-1.0-193.0","0","0","97721","","null","","","null","21","","NaN","","","","","","","","","","","","","",""
"","response","","html-keyboard-response","147","337492","0.0-1.0-194.0-0.0","0","0","97721","","182","","","75","21","","","1","21","training","adjacent","CD","3","4","L.jpg","N.jpg","1","1","1","",""
"","feedback","","html-keyboard-response","148","338498","0.0-1.0-195.0-0.0","0","0","97721","","null","","","null","21","","","","","","","","","","","","","","","",""
"","ITI","","html-keyboard-response","149","339506","0.0-1.0-198.0","0","0","97721","","null","","","null","21","","","","","","","","","","","","","","","NaN",""
"","S1","","html-keyboard-response","150","339666","0.0-1.0-200.0","0","0","97721","","null","","","null","22","","","","","","","","","","","","","","","",""
"","ISI","","html-keyboard-response","151","341674","0.0-1.0-201.0","0","0","97721","","null","","","null","22","NaN","","","","","","","","","","","","","","",""
"","S2","","html-keyboard-response","152","341834","0.0-1.0-202.0","0","0","97721","","null","","","null","22","","NaN","","","","","","","","","","","","","",""
"","response","","html-keyboard-response","153","342532","0.0-1.0-203.0-0.0","0","0","97721","","694","","","75","22","","","1","22","training","adjacent","DC","4","3","N.jpg","L.jpg","1","0","0","",""
"","feedback","","html-keyboard-response","154","343538","0.0-1.0-204.0-0.0","0","0","97721","","null","","","null","22","","","","","","","","","","","","","","","",""
"","time_out","","html-keyboard-response","155","345546","0.0-1.0-206.0-0.0","0","0","97721","","null","","","null","22","","","","","","","","","","","","","","","",""
"","ITI","","html-keyboard-response","156","346554","0.0-1.0-207.0","0","0","97721","","null","","","null","22","","","","","","","","","","","","","","","NaN",""
"","S1","","html-keyboard-response","157","346714","0.0-1.0-209.0","0","0","97721","","null","","","null","23","","","","","","","","","","","","","","","",""
"","ISI","","html-keyboard-response","158","348722","0.0-1.0-210.0","0","0","97721","","null","","","null","23","NaN","","","","","","","","","","","","","","",""
"","S2","","html-keyboard-response","159","348882","0.0-1.0-211.0","0","0","97721","","null","","","null","23","","NaN","","","","","","","","","","","","","",""
"","response","","html-keyboard-response","160","349128","0.0-1.0-212.0-0.0","0","0","97721","","241","","","68","23","","","1","23","training","adjacent","AB","1","2","M.jpg","O.jpg","0","1","0","",""
"","feedback","","html-keyboard-response","161","350138","0.0-1.0-213.0-0.0","0","0","97721","","null","","","null","23","","","","","","","","","","","","","","","",""
"","time_out","","html-keyboard-response","162","352146","0.0-1.0-215.0-0.0","0","0","97721","","null","","","null","23","","","","","","","","","","","","","","","",""
"","ITI","","html-keyboard-response","163","353154","0.0-1.0-216.0","0","0","97721","","null","","","null","23","","","","","","","","","","","","","","","NaN",""
"","S1","","html-keyboard-response","164","353314","0.0-1.0-218.0","0","0","97721","","null","","","null","24","","","","","","","","","","","","","","","",""
"","ISI","","html-keyboard-response","165","355322","0.0-1.0-219.0","0","0","97721","","null","","","null","24","NaN","","","","","","","","","","","","","","",""
"","S2","","html-keyboard-response","166","355482","0.0-1.0-220.0","0","0","97721","","null","","","null","24","","NaN","","","","","","","","","","","","","",""
"","response","","html-keyboard-response","167","355997","0.0-1.0-221.0-0.0","0","0","97721","","510","","","75","24","","","1","24","training","adjacent","CB","3","2","L.jpg","O.jpg","1","0","0","",""
"","feedback","","html-keyboard-response","168","357002","0.0-1.0-222.0-0.0","0","0","97721","","null","","","null","24","","","","","","","","","","","","","","","",""
"","time_out","","html-keyboard-response","169","359010","0.0-1.0-224.0-0.0","0","0","97721","","null","","","null","24","","","","","","","","","","","","","","","",""
"","ITI","","html-keyboard-response","170","360020","0.0-1.0-225.0","0","0","97721","","null","","","null","24","","","","","","","","","","","","","","","NaN",""
"","S1","","html-keyboard-response","171","360178","0.0-1.0-227.0","0","0","97721","","null","","","null","25","","","","","","","","","","","","","","","",""
"","ISI","","html-keyboard-response","172","362185","0.0-1.0-228.0","0","0","97721","","null","","","null","25","NaN","","","","","","","","","","","","","","",""
"","S2","","html-keyboard-response","173","362346","0.0-1.0-229.0","0","0","97721","","null","","","null","25","","NaN","","","","","","","","","","","","","",""
"","response","","html-keyboard-response","174","362763","0.0-1.0-230.0-0.0","0","0","97721","","413","","","68","25","","","1","25","training","adjacent","EF","5","6","Q.jpg","R.jpg","0","1","0","",""
"","feedback","","html-keyboard-response","175","363770","0.0-1.0-231.0-0.0","0","0","97721","","null","","","null","25","","","","","","","","","","","","","","","",""
"","time_out","","html-keyboard-response","176","365777","0.0-1.0-233.0-0.0","0","0","97721","","null","","","null","25","","","","","","","","","","","","","","","",""
"","ITI","","html-keyboard-response","177","366786","0.0-1.0-234.0","0","0","97721","","null","","","null","25","","","","","","","","","","","","","","","NaN",""
"","S1","","html-keyboard-response","178","366946","0.0-1.0-236.0","0","0","97721","","null","","","null","26","","","","","","","","","","","","","","","",""
"","ISI","","html-keyboard-response","179","368954","0.0-1.0-237.0","0","0","97721","","null","","","null","26","NaN","","","","","","","","","","","","","","",""
"","S2","","html-keyboard-response","180","369114","0.0-1.0-238.0","0","0","97721","","null","","","null","26","","NaN","","","","","","","","","","","","","",""
"","response","","html-keyboard-response","181","369277","0.0-1.0-239.0-0.0","0","0","97721","","158","","","75","26","","","1","26","training","adjacent","FE","6","5","R.jpg","Q.jpg","1","0","0","",""
"","feedback","","html-keyboard-response","182","370282","0.0-1.0-240.0-0.0","0","0","97721","","null","","","null","26","","","","","","","","","","","","","","","",""
"","time_out","","html-keyboard-response","183","372289","0.0-1.0-242.0-0.0","0","0","97721","","null","","","null","26","","","","","","","","","","","","","","","",""
"","ITI","","html-keyboard-response","184","373298","0.0-1.0-243.0","0","0","97721","","null","","","null","26","","","","","","","","","","","","","","","NaN",""
"","S1","","html-keyboard-response","185","373458","0.0-1.0-245.0","0","0","97721","","null","","","null","27","","","","","","","","","","","","","","","",""
"","ISI","","html-keyboard-response","186","375466","0.0-1.0-246.0","0","0","97721","","null","","","null","27","NaN","","","","","","","","","","","","","","",""
"","S2","","html-keyboard-response","187","375626","0.0-1.0-247.0","0","0","97721","","null","","","null","27","","NaN","","","","","","","","","","","","","",""
"","response","","html-keyboard-response","188","376294","0.0-1.0-248.0-0.0","0","0","97721","","663","","","68","27","","","1","27","training","adjacent","CD","3","4","L.jpg","N.jpg","0","1","0","",""
"","feedback","","html-keyboard-response","189","377306","0.0-1.0-249.0-0.0","0","0","97721","","null","","","null","27","","","","","","","","","","","","","","","",""
"","time_out","","html-keyboard-response","190","379314","0.0-1.0-251.0-0.0","0","0","97721","","null","","","null","27","","","","","","","","","","","","","","","",""
"","ITI","","html-keyboard-response","191","380322","0.0-1.0-252.0","0","0","97721","","null","","","null","27","","","","","","","","","","","","","","","NaN",""
"","S1","","html-keyboard-response","192","380482","0.0-1.0-254.0","0","0","97721","","null","","","null","28","","","","","","","","","","","","","","","",""
"","ISI","","html-keyboard-response","193","382490","0.0-1.0-255.0","0","0","97721","","243","","","75","28","k","","","","","","","","","","","","","","",""
"","S2","","html-keyboard-response","194","382650","0.0-1.0-256.0","0","0","97721","","null","","","null","28","","NaN","","","","","","","","","","","","","",""
"","response","","html-keyboard-response","195","383446","0.0-1.0-257.0-0.0","0","0","97721","","792","","","68","28","","","1","28","training","adjacent","DE","4","5","N.jpg","Q.jpg","0","1","0","",""
"","feedback","","html-keyboard-response","196","384458","0.0-1.0-258.0-0.0","0","0","97721","","null","","","null","28","","","","","","","","","","","","","","","",""
"","time_out","","html-keyboard-response","197","386465","0.0-1.0-260.0-0.0","0","0","97721","","null","","","null","28","","","","","","","","","","","","","","","",""
"","ITI","","html-keyboard-response","198","387474","0.0-1.0-261.0","0","0","97721","","null","","","null","28","","","","","","","","","","","","","","","NaN",""
"","S1","","html-keyboard-response","199","387634","0.0-1.0-263.0","0","0","97721","","null","","","null","29","","","","","","","","","","","","","","","",""
"","ISI","","html-keyboard-response","200","389642","0.0-1.0-264.0","0","0","97721","","null","","","null","29","NaN","","","","","","","","","","","","","","",""
"","S2","","html-keyboard-response","201","389802","0.0-1.0-265.0","0","0","97721","","null","","","null","29","","NaN","","","","","","","","","","","","","",""
"","response","","html-keyboard-response","202","390421","0.0-1.0-266.0-0.0","0","0","97721","","615","","","68","29","","","1","29","training","adjacent","CB","3","2","L.jpg","O.jpg","0","0","1","",""
"","feedback","","html-keyboard-response","203","391425","0.0-1.0-267.0-0.0","0","0","97721","","null","","","null","29","","","","","","","","","","","","","","","",""
"","ITI","","html-keyboard-response","204","392434","0.0-1.0-270.0","0","0","97721","","null","","","null","29","","","","","","","","","","","","","","","NaN",""
"","S1","","html-keyboard-response","205","392594","0.0-1.0-272.0","0","0","97721","","null","","","null","30","","","","","","","","","","","","","","","",""
"","ISI","","html-keyboard-response","206","394601","0.0-1.0-273.0","0","0","97721","","null","","","null","30","NaN","","","","","","","","","","","","","","",""
"","S2","","html-keyboard-response","207","394762","0.0-1.0-274.0","0","0","97721","","null","","","null","30","","NaN","","","","","","","","","","","","","",""
"","response","","html-keyboard-response","208","395142","0.0-1.0-275.0-0.0","0","0","97721","","376","","","68","30","","","1","30","training","adjacent","GF","7","6","P.jpg","R.jpg","0","0","1","",""
"","feedback","","html-keyboard-response","209","396154","0.0-1.0-276.0-0.0","0","0","97721","","null","","","null","30","","","","","","","","","","","","","","","",""
"","ITI","","html-keyboard-response","210","397162","0.0-1.0-279.0","0","0","97721","","null","","","null","30","","","","","","","","","","","","","","","NaN",""
"","S1","","html-keyboard-response","211","397322","0.0-1.0-281.0","0","0","97721","","null","","","null","31","","","","","","","","","","","","","","","",""
"","ISI","","html-keyboard-response","212","399330","0.0-1.0-282.0","0","0","97721","","null","","","null","31","NaN","","","","","","","","","","","","","","",""
"","S2","","html-keyboard-response","213","399490","0.0-1.0-283.0","0","0","97721","","null","","","null","31","","NaN","","","","","","","","","","","","","",""
"","response","","html-keyboard-response","214","400113","0.0-1.0-284.0-0.0","0","0","97721","","619","","","75","31","","","1","31","training","adjacent","EF","5","6","Q.jpg","R.jpg","1","1","1","",""
"","feedback","","html-keyboard-response","215","401122","0.0-1.0-285.0-0.0","0","0","97721","","null","","","null","31","","","","","","","","","","","","","","","",""
"","ITI","","html-keyboard-response","216","402130","0.0-1.0-288.0","0","0","97721","","null","","","null","31","","","","","","","","","","","","","","","NaN",""
"","S1","","html-keyboard-response","217","402290","0.0-1.0-290.0","0","0","97721","","null","","","null","32","","","","","","","","","","","","","","","",""
"","ISI","","html-keyboard-response","218","404298","0.0-1.0-291.0","0","0","97721","","null","","","null","32","NaN","","","","","","","","","","","","","","",""
"","S2","","html-keyboard-response","219","404458","0.0-1.0-292.0","0","0","97721","","null","","","null","32","","NaN","","","","","","","","","","","","","",""
"","response","","html-keyboard-response","220","404853","0.0-1.0-293.0-0.0","0","0","97721","","391","","","68","32","","","1","32","training","adjacent","DE","4","5","N.jpg","Q.jpg","0","1","0","",""
"","feedback","","html-keyboard-response","221","405866","0.0-1.0-294.0-0.0","0","0","97721","","null","","","null","32","","","","","","","","","","","","","","","",""
"","time_out","","html-keyboard-response","222","407874","0.0-1.0-296.0-0.0","0","0","97721","","null","","","null","32","","","","","","","","","","","","","","","",""
"","ITI","","html-keyboard-response","223","408882","0.0-1.0-297.0","0","0","97721","","null","","","null","32","","","","","","","","","","","","","","","NaN",""
"","S1","","html-keyboard-response","224","409042","0.0-1.0-299.0","0","0","97721","","null","","","null","33","","","","","","","","","","","","","","","",""
"","ISI","","html-keyboard-response","225","411051","0.0-1.0-300.0","0","0","97721","","null","","","null","33","NaN","","","","","","","","","","","","","","",""
"","S2","","html-keyboard-response","226","411210","0.0-1.0-301.0","0","0","97721","","null","","","null","33","","NaN","","","","","","","","","","","","","",""
"","response","","html-keyboard-response","227","411732","0.0-1.0-302.0-0.0","0","0","97721","","518","","","68","33","","","1","33","training","adjacent","BC","2","3","O.jpg","L.jpg","0","1","0","",""
"","feedback","","html-keyboard-response","228","412737","0.0-1.0-303.0-0.0","0","0","97721","","null","","","null","33","","","","","","","","","","","","","","","",""
"","time_out","","html-keyboard-response","229","414746","0.0-1.0-305.0-0.0","0","0","97721","","null","","","null","33","","","","","","","","","","","","","","","",""
"","ITI","","html-keyboard-response","230","415754","0.0-1.0-306.0","0","0","97721","","null","","","null","33","","","","","","","","","","","","","","","NaN",""
"","S1","","html-keyboard-response","231","415914","0.0-1.0-308.0","0","0","97721","","null","","","null","34","","","","","","","","","","","","","","","",""
"","ISI","","html-keyboard-response","232","417921","0.0-1.0-309.0","0","0","97721","","null","","","null","34","NaN","","","","","","","","","","","","","","",""
"","S2","","html-keyboard-response","233","418082","0.0-1.0-310.0","0","0","97721","","null","","","null","34","","NaN","","","","","","","","","","","","","",""
"","response","","html-keyboard-response","234","418692","0.0-1.0-311.0-0.0","0","0","97721","","606","","","68","34","","","1","34","training","adjacent","BA","2","1","O.jpg","M.jpg","0","0","1","",""
"","feedback","","html-keyboard-response","235","419698","0.0-1.0-312.0-0.0","0","0","97721","","null","","","null","34","","","","","","","","","","","","","","","",""
"","ITI","","html-keyboard-response","236","420705","0.0-1.0-315.0","0","0","97721","","null","","","null","34","","","","","","","","","","","","","","","NaN",""
"","S1","","html-keyboard-response","237","420865","0.0-1.0-317.0","0","0","97721","","null","","","null","35","","","","","","","","","","","","","","","",""
"","ISI","","html-keyboard-response","238","422874","0.0-1.0-318.0","0","0","97721","","null","","","null","35","NaN","","","","","","","","","","","","","","",""
"","S2","","html-keyboard-response","239","423034","0.0-1.0-319.0","0","0","97721","","null","","","null","35","","NaN","","","","","","","","","","","","","",""
"","response","","html-keyboard-response","240","423725","0.0-1.0-320.0-0.0","0","0","97721","","687","","","68","35","","","1","35","training","adjacent","BA","2","1","O.jpg","M.jpg","0","0","1","",""
"","feedback","","html-keyboard-response","241","424730","0.0-1.0-321.0-0.0","0","0","97721","","null","","","null","35","","","","","","","","","","","","","","","",""
"","ITI","","html-keyboard-response","242","425738","0.0-1.0-324.0","0","0","97721","","null","","","null","35","","","","","","","","","","","","","","","NaN",""
"","S1","","html-keyboard-response","243","425898","0.0-1.0-326.0","0","0","97721","","null","","","null","36","","","","","","","","","","","","","","","",""
"","ISI","","html-keyboard-response","244","427906","0.0-1.0-327.0","0","0","97721","","null","","","null","36","NaN","","","","","","","","","","","","","","",""
"","S2","","html-keyboard-response","245","428066","0.0-1.0-328.0","0","0","97721","","null","","","null","36","","NaN","","","","","","","","","","","","","",""
"","response","","html-keyboard-response","246","428519","0.0-1.0-329.0-0.0","0","0","97721","","449","","","75","36","","","1","36","training","adjacent","DC","4","3","N.jpg","L.jpg","1","0","0","",""
"","feedback","","html-keyboard-response","247","429530","0.0-1.0-330.0-0.0","0","0","97721","","null","","","null","36","","","","","","","","","","","","","","","",""
"","time_out","","html-keyboard-response","248","431538","0.0-1.0-332.0-0.0","0","0","97721","","null","","","null","36","","","","","","","","","","","","","","","",""
"","ITI","","html-keyboard-response","249","432546","0.0-1.0-333.0","0","0","97721","","null","","","null","36","","","","","","","","","","","","","","","NaN",""
"","S1","","html-keyboard-response","250","432706","0.0-1.0-335.0","0","0","97721","","null","","","null","37","","","","","","","","","","","","","","","",""
"","ISI","","html-keyboard-response","251","434714","0.0-1.0-336.0","0","0","97721","","null","","","null","37","NaN","","","","","","","","","","","","","","",""
"","S2","","html-keyboard-response","252","434874","0.0-1.0-337.0","0","0","97721","","null","","","null","37","","NaN","","","","","","","","","","","","","",""
"","response","","html-keyboard-response","253","435438","0.0-1.0-338.0-0.0","0","0","97721","","560","","","68","37","","","1","37","training","adjacent","FG","6","7","R.jpg","P.jpg","0","1","0","",""
"","feedback","","html-keyboard-response","254","436450","0.0-1.0-339.0-0.0","0","0","97721","","null","","","null","37","","","","","","","","","","","","","","","",""
"","time_out","","html-keyboard-response","255","438457","0.0-1.0-341.0-0.0","0","0","97721","","null","","","null","37","","","","","","","","","","","","","","","",""
"","ITI","","html-keyboard-response","256","439466","0.0-1.0-342.0","0","0","97721","","null","","","null","37","","","","","","","","","","","","","","","NaN",""
"","S1","","html-keyboard-response","257","439626","0.0-1.0-344.0","0","0","97721","","null","","","null","38","","","","","","","","","","","","","","","",""
"","ISI","","html-keyboard-response","258","441633","0.0-1.0-345.0","0","0","97721","","null","","","null","38","NaN","","","","","","","","","","","","","","",""
"","S2","","html-keyboard-response","259","441794","0.0-1.0-346.0","0","0","97721","","null","","","null","38","","NaN","","","","","","","","","","","","","",""
"","response","","html-keyboard-response","260","442307","0.0-1.0-347.0-0.0","0","0","97721","","509","","","75","38","","","1","38","training","adjacent","EF","5","6","Q.jpg","R.jpg","1","1","1","",""
"","feedback","","html-keyboard-response","261","443313","0.0-1.0-348.0-0.0","0","0","97721","","null","","","null","38","","","","","","","","","","","","","","","",""
"","ITI","","html-keyboard-response","262","444321","0.0-1.0-351.0","0","0","97721","","null","","","null","38","","","","","","","","","","","","","","","NaN",""
"","S1","","html-keyboard-response","263","444482","0.0-1.0-353.0","0","0","97721","","null","","","null","39","","","","","","","","","","","","","","","",""
"","ISI","","html-keyboard-response","264","446490","0.0-1.0-354.0","0","0","97721","","null","","","null","39","NaN","","","","","","","","","","","","","","",""
"","S2","","html-keyboard-response","265","446650","0.0-1.0-355.0","0","0","97721","","null","","","null","39","","NaN","","","","","","","","","","","","","",""
"","response","","html-keyboard-response","266","447113","0.0-1.0-356.0-0.0","0","0","97721","","460","","","75","39","","","1","39","training","adjacent","EF","5","6","Q.jpg","R.jpg","1","1","1","",""
"","feedback","","html-keyboard-response","267","448122","0.0-1.0-357.0-0.0","0","0","97721","","null","","","null","39","","","","","","","","","","","","","","","",""
"","ITI","","html-keyboard-response","268","449134","0.0-1.0-360.0","0","0","97721","","null","","","null","39","","","","","","","","","","","","","","","NaN",""
"","S1","","html-keyboard-response","269","449290","0.0-1.0-362.0","0","0","97721","","null","","","null","40","","","","","","","","","","","","","","","",""
"","ISI","","html-keyboard-response","270","451297","0.0-1.0-363.0","0","0","97721","","null","","","null","40","NaN","","","","","","","","","","","","","","",""
"","S2","","html-keyboard-response","271","451458","0.0-1.0-364.0","0","0","97721","","null","","","null","40","","NaN","","","","","","","","","","","","","",""
"","response","","html-keyboard-response","272","452226","0.0-1.0-365.0-0.0","0","0","97721","","764","","","75","40","","","1","40","training","adjacent","BC","2","3","O.jpg","L.jpg","1","1","1","",""
"","feedback","","html-keyboard-response","273","453234","0.0-1.0-366.0-0.0","0","0","97721","","null","","","null","40","","","","","","","","","","","","","","","",""
"","ITI","","html-keyboard-response","274","454242","0.0-1.0-369.0","0","0","97721","","null","","","null","40","","","","","","","","","","","","","","","NaN",""
"","S1","","html-keyboard-response","275","454401","0.0-1.0-371.0","0","0","97721","","null","","","null","41","","","","","","","","","","","","","","","",""
"","ISI","","html-keyboard-response","276","456410","0.0-1.0-372.0","0","0","97721","","null","","","null","41","NaN","","","","","","","","","","","","","","",""
"","S2","","html-keyboard-response","277","456570","0.0-1.0-373.0","0","0","97721","","null","","","null","41","","NaN","","","","","","","","","","","","","",""
"","response","","html-keyboard-response","278","457376","0.0-1.0-374.0-0.0","0","0","97721","","802","","","75","41","","","1","41","training","adjacent","FG","6","7","R.jpg","P.jpg","1","1","1","",""
"","feedback","","html-keyboard-response","279","458386","0.0-1.0-375.0-0.0","0","0","97721","","null","","","null","41","","","","","","","","","","","","","","","",""
"","ITI","","html-keyboard-response","280","459394","0.0-1.0-378.0","0","0","97721","","null","","","null","41","","","","","","","","","","","","","","","NaN",""
"","S1","","html-keyboard-response","281","459554","0.0-1.0-380.0","0","0","97721","","null","","","null","42","","","","","","","","","","","","","","","",""
"","ISI","","html-keyboard-response","282","461562","0.0-1.0-381.0","0","0","97721","","null","","","null","42","NaN","","","","","","","","","","","","","","",""
"","S2","","html-keyboard-response","283","461722","0.0-1.0-382.0","0","0","97721","","null","","","null","42","","NaN","","","","","","","","","","","","","",""
"","response","","html-keyboard-response","284","462551","0.0-1.0-383.0-0.0","0","0","97721","","825","","","75","42","","","1","42","training","adjacent","BA","2","1","O.jpg","M.jpg","1","0","0","",""
"","feedback","","html-keyboard-response","285","463562","0.0-1.0-384.0-0.0","0","0","97721","","null","","","null","42","","","","","","","","","","","","","","","",""
"","time_out","","html-keyboard-response","286","465569","0.0-1.0-386.0-0.0","0","0","97721","","null","","","null","42","","","","","","","","","","","","","","","",""
"","ITI","","html-keyboard-response","287","466578","0.0-1.0-387.0","0","0","97721","","null","","","null","42","","","","","","","","","","","","","","","NaN",""
"","S1","","html-keyboard-response","288","466738","0.0-1.0-389.0","0","0","97721","","null","","","null","43","","","","","","","","","","","","","","","",""
"","ISI","","html-keyboard-response","289","468745","0.0-1.0-390.0","0","0","97721","","null","","","null","43","NaN","","","","","","","","","","","","","","",""
"","S2","","html-keyboard-response","290","468906","0.0-1.0-391.0","0","0","97721","","null","","","null","43","","NaN","","","","","","","","","","","","","",""
"","response","","html-keyboard-response","291","469686","0.0-1.0-392.0-0.0","0","0","97721","","776","","","68","43","","","1","43","training","adjacent","GF","7","6","P.jpg","R.jpg","0","0","1","",""
"","feedback","","html-keyboard-response","292","470698","0.0-1.0-393.0-0.0","0","0","97721","","null","","","null","43","","","","","","","","","","","","","","","",""
"","ITI","","html-keyboard-response","293","471706","0.0-1.0-396.0","0","0","97721","","null","","","null","43","","","","","","","","","","","","","","","NaN",""
"","S1","","html-keyboard-response","294","471866","0.0-1.0-398.0","0","0","97721","","null","","","null","44","","","","","","","","","","","","","","","",""
"","ISI","","html-keyboard-response","295","473874","0.0-1.0-399.0","0","0","97721","","null","","","null","44","NaN","","","","","","","","","","","","","","",""
"","S2","","html-keyboard-response","296","474034","0.0-1.0-400.0","0","0","97721","","null","","","null","44","","NaN","","","","","","","","","","","","","",""
"","response","","html-keyboard-response","297","474913","0.0-1.0-401.0-0.0","0","0","97721","","875","","","68","44","","","1","44","training","adjacent","FE","6","5","R.jpg","Q.jpg","0","0","1","",""
"","feedback","","html-keyboard-response","298","475922","0.0-1.0-402.0-0.0","0","0","97721","","null","","","null","44","","","","","","","","","","","","","","","",""
"","ITI","","html-keyboard-response","299","476930","0.0-1.0-405.0","0","0","97721","","null","","","null","44","","","","","","","","","","","","","","","NaN",""
"","S1","","html-keyboard-response","300","477090","0.0-1.0-407.0","0","0","97721","","null","","","null","45","","","","","","","","","","","","","","","",""
"","ISI","","html-keyboard-response","301","479098","0.0-1.0-408.0","0","0","97721","","null","","","null","45","NaN","","","","","","","","","","","","","","",""
"","S2","","html-keyboard-response","302","479258","0.0-1.0-409.0","0","0","97721","","null","","","null","45","","NaN","","","","","","","","","","","","","",""
"","response","","html-keyboard-response","303","479731","0.0-1.0-410.0-0.0","0","0","97721","","469","","","68","45","","","1","45","training","adjacent","AB","1","2","M.jpg","O.jpg","0","1","0","",""
"","feedback","","html-keyboard-response","304","480737","0.0-1.0-411.0-0.0","0","0","97721","","null","","","null","45","","","","","","","","","","","","","","","",""
"","time_out","","html-keyboard-response","305","482746","0.0-1.0-413.0-0.0","0","0","97721","","null","","","null","45","","","","","","","","","","","","","","","",""
"","ITI","","html-keyboard-response","306","483754","0.0-1.0-414.0","0","0","97721","","null","","","null","45","","","","","","","","","","","","","","","NaN",""
"","S1","","html-keyboard-response","307","483914","0.0-1.0-416.0","0","0","97721","","null","","","null","46","","","","","","","","","","","","","","","",""
"","ISI","","html-keyboard-response","308","485921","0.0-1.0-417.0","0","0","97721","","null","","","null","46","NaN","","","","","","","","","","","","","","",""
"","S2","","html-keyboard-response","309","486082","0.0-1.0-418.0","0","0","97721","","null","","","null","46","","NaN","","","","","","","","","","","","","",""
"","response","","html-keyboard-response","310","486410","0.0-1.0-419.0-0.0","0","0","97721","","324","","","75","46","","","1","46","training","adjacent","DC","4","3","N.jpg","L.jpg","1","0","0","",""
"","feedback","","html-keyboard-response","311","487418","0.0-1.0-420.0-0.0","0","0","97721","","null","","","null","46","","","","","","","","","","","","","","","",""
"","time_out","","html-keyboard-response","312","489426","0.0-1.0-422.0-0.0","0","0","97721","","null","","","null","46","","","","","","","","","","","","","","","",""
"","ITI","","html-keyboard-response","313","490434","0.0-1.0-423.0","0","0","97721","","null","","","null","46","","","","","","","","","","","","","","","NaN",""
"","S1","","html-keyboard-response","314","490594","0.0-1.0-425.0","0","0","97721","","null","","","null","47","","","","","","","","","","","","","","","",""
"","ISI","","html-keyboard-response","315","492602","0.0-1.0-426.0","0","0","97721","","null","","","null","47","NaN","","","","","","","","","","","","","","",""
"","S2","","html-keyboard-response","316","492762","0.0-1.0-427.0","0","0","97721","","null","","","null","47","","NaN","","","","","","","","","","","","","",""
"","response","","html-keyboard-response","317","492962","0.0-1.0-428.0-0.0","0","0","97721","","196","","","68","47","","","1","47","training","adjacent","DC","4","3","N.jpg","L.jpg","0","0","1","",""
"","feedback","","html-keyboard-response","318","493970","0.0-1.0-429.0-0.0","0","0","97721","","null","","","null","47","","","","","","","","","","","","","","","",""
"","ITI","","html-keyboard-response","319","494978","0.0-1.0-432.0","0","0","97721","","null","","","null","47","","","","","","","","","","","","","","","NaN",""
"","block_over","","html-keyboard-response","320","535882","0.0-1.0-433.0-0.0","0","0","97721","","40899","","","32","47","","","","","","","","","","","","","","","",""
"","S1","","html-keyboard-response","321","536042","0.0-1.0-434.0","0","0","97721","","null","","","null","48","","","","","","","","","","","","","","","",""
"","ISI","","html-keyboard-response","322","538049","0.0-1.0-435.0","0","0","97721","","null","","","null","48","NaN","","","","","","","","","","","","","","",""
"","S2","","html-keyboard-response","323","538210","0.0-1.0-436.0","0","0","97721","","null","","","null","48","","NaN","","","","","","","","","","","","","",""
"","response","","html-keyboard-response","324","538383","0.0-1.0-437.0-0.0","0","0","97721","","169","","","68","48","","","2","48","training","adjacent","DC","4","3","N.jpg","L.jpg","0","0","1","",""
"","feedback","","html-keyboard-response","325","539394","0.0-1.0-438.0-0.0","0","0","97721","","null","","","null","48","","","","","","","","","","","","","","","",""
"","ITI","","html-keyboard-response","326","540402","0.0-1.0-441.0","0","0","97721","","null","","","null","48","","","","","","","","","","","","","","","NaN",""
"","S1","","html-keyboard-response","327","540562","0.0-1.0-443.0","0","0","97721","","null","","","null","49","","","","","","","","","","","","","","","",""
"","ISI","","html-keyboard-response","328","542570","0.0-1.0-444.0","0","0","97721","","null","","","null","49","NaN","","","","","","","","","","","","","","",""
"","S2","","html-keyboard-response","329","542730","0.0-1.0-445.0","0","0","97721","","null","","","null","49","","NaN","","","","","","","","","","","","","",""
"","response","","html-keyboard-response","330","542976","0.0-1.0-446.0-0.0","0","0","97721","","241","","","75","49","","","2","49","training","adjacent","ED","5","4","Q.jpg","N.jpg","1","0","0","",""
"","feedback","","html-keyboard-response","331","543986","0.0-1.0-447.0-0.0","0","0","97721","","null","","","null","49","","","","","","","","","","","","","","","",""
"","time_out","","html-keyboard-response","332","545994","0.0-1.0-449.0-0.0","0","0","97721","","null","","","null","49","","","","","","","","","","","","","","","",""
"","ITI","","html-keyboard-response","333","547002","0.0-1.0-450.0","0","0","97721","","null","","","null","49","","","","","","","","","","","","","","","NaN",""
"","S1","","html-keyboard-response","334","547162","0.0-1.0-452.0","0","0","97721","","null","","","null","50","","","","","","","","","","","","","","","",""
"","ISI","","html-keyboard-response","335","549170","0.0-1.0-453.0","0","0","97721","","null","","","null","50","NaN","","","","","","","","","","","","","","",""
"","S2","","html-keyboard-response","336","549330","0.0-1.0-454.0","0","0","97721","","null","","","null","50","","NaN","","","","","","","","","","","","","",""
"","response","","html-keyboard-response","337","549727","0.0-1.0-455.0-0.0","0","0","97721","","393","","","68","50","","","2","50","training","adjacent","DE","4","5","N.jpg","Q.jpg","0","1","0","",""
"","feedback","","html-keyboard-response","338","550738","0.0-1.0-456.0-0.0","0","0","97721","","null","","","null","50","","","","","","","","","","","","","","","",""
"","time_out","","html-keyboard-response","339","552746","0.0-1.0-458.0-0.0","0","0","97721","","null","","","null","50","","","","","","","","","","","","","","","",""
"","ITI","","html-keyboard-response","340","553754","0.0-1.0-459.0","0","0","97721","","null","","","null","50","","","","","","","","","","","","","","","NaN",""
"","S1","","html-keyboard-response","341","553914","0.0-1.0-461.0","0","0","97721","","null","","","null","51","","","","","","","","","","","","","","","",""
"","ISI","","html-keyboard-response","342","555922","0.0-1.0-462.0","0","0","97721","","null","","","null","51","NaN","","","","","","","","","","","","","","",""
"","S2","","html-keyboard-response","343","556082","0.0-1.0-463.0","0","0","97721","","null","","","null","51","","NaN","","","","","","","","","","","","","",""
"","response","","html-keyboard-response","344","556294","0.0-1.0-464.0-0.0","0","0","97721","","207","","","68","51","","","2","51","training","adjacent","BA","2","1","O.jpg","M.jpg","0","0","1","",""
"","feedback","","html-keyboard-response","345","557306","0.0-1.0-465.0-0.0","0","0","97721","","null","","","null","51","","","","","","","","","","","","","","","",""
"","ITI","","html-keyboard-response","346","558314","0.0-1.0-468.0","0","0","97721","","null","","","null","51","","","","","","","","","","","","","","","NaN",""
"","S1","","html-keyboard-response","347","558474","0.0-1.0-470.0","0","0","97721","","null","","","null","52","","","","","","","","","","","","","","","",""
"","ISI","","html-keyboard-response","348","560482","0.0-1.0-471.0","0","0","97721","","null","","","null","52","NaN","","","","","","","","","","","","","","",""
"","S2","","html-keyboard-response","349","560642","0.0-1.0-472.0","0","0","97721","","null","","","null","52","","NaN","","","","","","","","","","","","","",""
"","response","","html-keyboard-response","350","561045","0.0-1.0-473.0-0.0","0","0","97721","","398","","","75","52","","","2","52","training","adjacent","FG","6","7","R.jpg","P.jpg","1","1","1","",""
"","feedback","","html-keyboard-response","351","562050","0.0-1.0-474.0-0.0","0","0","97721","","null","","","null","52","","","","","","","","","","","","","","","",""
"","ITI","","html-keyboard-response","352","563058","0.0-1.0-477.0","0","0","97721","","null","","","null","52","","","","","","","","","","","","","","","NaN",""
"","S1","","html-keyboard-response","353","563218","0.0-1.0-479.0","0","0","97721","","null","","","null","53","","","","","","","","","","","","","","","",""
"","ISI","","html-keyboard-response","354","565226","0.0-1.0-480.0","0","0","97721","","null","","","null","53","NaN","","","","","","","","","","","","","","",""
"","S2","","html-keyboard-response","355","565386","0.0-1.0-481.0","0","0","97721","","null","","","null","53","","NaN","","","","","","","","","","","","","",""
"","response","","html-keyboard-response","356","565744","0.0-1.0-482.0-0.0","0","0","97721","","352","","","75","53","","","2","53","training","adjacent","AB","1","2","M.jpg","O.jpg","1","1","1","",""
"","feedback","","html-keyboard-response","357","566754","0.0-1.0-483.0-0.0","0","0","97721","","null","","","null","53","","","","","","","","","","","","","","","",""
"","ITI","","html-keyboard-response","358","567761","0.0-1.0-486.0","0","0","97721","","null","","","null","53","","","","","","","","","","","","","","","NaN",""
"","S1","","html-keyboard-response","359","567922","0.0-1.0-488.0","0","0","97721","","null","","","null","54","","","","","","","","","","","","","","","",""
"","ISI","","html-keyboard-response","360","569930","0.0-1.0-489.0","0","0","97721","","null","","","null","54","NaN","","","","","","","","","","","","","","",""
"","S2","","html-keyboard-response","361","570090","0.0-1.0-490.0","0","0","97721","","null","","","null","54","","NaN","","","","","","","","","","","","","",""
"","response","","html-keyboard-response","362","570329","0.0-1.0-491.0-0.0","0","0","97721","","235","","","68","54","","","2","54","training","adjacent","FG","6","7","R.jpg","P.jpg","0","1","0","",""
"","feedback","","html-keyboard-response","363","571338","0.0-1.0-492.0-0.0","0","0","97721","","null","","","null","54","","","","","","","","","","","","","","","",""
"","time_out","","html-keyboard-response","364","573346","0.0-1.0-494.0-0.0","0","0","97721","","null","","","null","54","","","","","","","","","","","","","","","",""
"","ITI","","html-keyboard-response","365","574354","0.0-1.0-495.0","0","0","97721","","null","","","null","54","","","","","","","","","","","","","","","NaN",""
"","S1","","html-keyboard-response","366","574514","0.0-1.0-497.0","0","0","97721","","null","","","null","55","","","","","","","","","","","","","","","",""
"","ISI","","html-keyboard-response","367","576522","0.0-1.0-498.0","0","0","97721","","null","","","null","55","NaN","","","","","","","","","","","","","","",""
"","S2","","html-keyboard-response","368","576682","0.0-1.0-499.0","0","0","97721","","null","","","null","55","","NaN","","","","","","","","","","","","","",""
"","response","","html-keyboard-response","369","577292","0.0-1.0-500.0-0.0","0","0","97721","","605","","","68","55","","","2","55","training","adjacent","BC","2","3","O.jpg","L.jpg","0","1","0","",""
"","feedback","","html-keyboard-response","370","578298","0.0-1.0-501.0-0.0","0","0","97721","","null","","","null","55","","","","","","","","","","","","","","","",""
"","time_out","","html-keyboard-response","371","580306","0.0-1.0-503.0-0.0","0","0","97721","","null","","","null","55","","","","","","","","","","","","","","","",""
"","ITI","","html-keyboard-response","372","581314","0.0-1.0-504.0","0","0","97721","","null","","","null","55","","","","","","","","","","","","","","","NaN",""
"","S1","","html-keyboard-response","373","581473","0.0-1.0-506.0","0","0","97721","","null","","","null","56","","","","","","","","","","","","","","","",""
"","ISI","","html-keyboard-response","374","583482","0.0-1.0-507.0","0","0","97721","","null","","","null","56","NaN","","","","","","","","","","","","","","",""
"","S2","","html-keyboard-response","375","583642","0.0-1.0-508.0","0","0","97721","","null","","","null","56","","NaN","","","","","","","","","","","","","",""
"","response","","html-keyboard-response","376","584211","0.0-1.0-509.0-0.0","0","0","97721","","565","","","68","56","","","2","56","training","adjacent","DE","4","5","N.jpg","Q.jpg","0","1","0","",""
"","feedback","","html-keyboard-response","377","585218","0.0-1.0-510.0-0.0","0","0","97721","","null","","","null","56","","","","","","","","","","","","","","","",""
"","time_out","","html-keyboard-response","378","587226","0.0-1.0-512.0-0.0","0","0","97721","","null","","","null","56","","","","","","","","","","","","","","","",""
"","ITI","","html-keyboard-response","379","588234","0.0-1.0-513.0","0","0","97721","","null","","","null","56","","","","","","","","","","","","","","","NaN",""
"","S1","","html-keyboard-response","380","588394","0.0-1.0-515.0","0","0","97721","","null","","","null","57","","","","","","","","","","","","","","","",""
"","ISI","","html-keyboard-response","381","590402","0.0-1.0-516.0","0","0","97721","","null","","","null","57","NaN","","","","","","","","","","","","","","",""
"","S2","","html-keyboard-response","382","590561","0.0-1.0-517.0","0","0","97721","","null","","","null","57","","NaN","","","","","","","","","","","","","",""
"","response","","html-keyboard-response","383","591072","0.0-1.0-518.0-0.0","0","0","97721","","506","","","75","57","","","2","57","training","adjacent","EF","5","6","Q.jpg","R.jpg","1","1","1","",""
"","feedback","","html-keyboard-response","384","592081","0.0-1.0-519.0-0.0","0","0","97721","","null","","","null","57","","","","","","","","","","","","","","","",""
"","ITI","","html-keyboard-response","385","593089","0.0-1.0-522.0","0","0","97721","","null","","","null","57","","","","","","","","","","","","","","","NaN",""
"","S1","","html-keyboard-response","386","593250","0.0-1.0-524.0","0","0","97721","","null","","","null","58","","","","","","","","","","","","","","","",""
"","ISI","","html-keyboard-response","387","595258","0.0-1.0-525.0","0","0","97721","","null","","","null","58","NaN","","","","","","","","","","","","","","",""
"","S2","","html-keyboard-response","388","595418","0.0-1.0-526.0","0","0","97721","","null","","","null","58","","NaN","","","","","","","","","","","","","",""
"","response","","html-keyboard-response","389","595901","0.0-1.0-527.0-0.0","0","0","97721","","478","","","68","58","","","2","58","training","adjacent","CB","3","2","L.jpg","O.jpg","0","0","1","",""
"","feedback","","html-keyboard-response","390","596914","0.0-1.0-528.0-0.0","0","0","97721","","null","","","null","58","","","","","","","","","","","","","","","",""
"","ITI","","html-keyboard-response","391","597922","0.0-1.0-531.0","0","0","97721","","null","","","null","58","","","","","","","","","","","","","","","NaN",""
"","S1","","html-keyboard-response","392","598082","0.0-1.0-533.0","0","0","97721","","null","","","null","59","","","","","","","","","","","","","","","",""
"","ISI","","html-keyboard-response","393","600090","0.0-1.0-534.0","0","0","97721","","null","","","null","59","NaN","","","","","","","","","","","","","","",""
"","S2","","html-keyboard-response","394","600249","0.0-1.0-535.0","0","0","97721","","null","","","null","59","","NaN","","","","","","","","","","","","","",""
"","response","","html-keyboard-response","395","600862","0.0-1.0-536.0-0.0","0","0","97721","","607","","","75","59","","","2","59","training","adjacent","ED","5","4","Q.jpg","N.jpg","1","0","0","",""
"","feedback","","html-keyboard-response","396","601874","0.0-1.0-537.0-0.0","0","0","97721","","null","","","null","59","","","","","","","","","","","","","","","",""
"","time_out","","html-keyboard-response","397","603882","0.0-1.0-539.0-0.0","0","0","97721","","null","","","null","59","","","","","","","","","","","","","","","",""
"","ITI","","html-keyboard-response","398","604890","0.0-1.0-540.0","0","0","97721","","null","","","null","59","","","","","","","","","","","","","","","NaN",""
"","S1","","html-keyboard-response","399","605050","0.0-1.0-542.0","0","0","97721","","null","","","null","60","","","","","","","","","","","","","","","",""
"","ISI","","html-keyboard-response","400","607058","0.0-1.0-543.0","0","0","97721","","null","","","null","60","NaN","","","","","","","","","","","","","","",""
"","S2","","html-keyboard-response","401","607218","0.0-1.0-544.0","0","0","97721","","null","","","null","60","","NaN","","","","","","","","","","","","","",""
"","response","","html-keyboard-response","402","607647","0.0-1.0-545.0-0.0","0","0","97721","","425","","","75","60","","","2","60","training","adjacent","BC","2","3","O.jpg","L.jpg","1","1","1","",""
"","feedback","","html-keyboard-response","403","608658","0.0-1.0-546.0-0.0","0","0","97721","","null","","","null","60","","","","","","","","","","","","","","","",""
"","ITI","","html-keyboard-response","404","609666","0.0-1.0-549.0","0","0","97721","","null","","","null","60","","","","","","","","","","","","","","","NaN",""
"","S1","","html-keyboard-response","405","609826","0.0-1.0-551.0","0","0","97721","","null","","","null","61","","","","","","","","","","","","","","","",""
"","ISI","","html-keyboard-response","406","611834","0.0-1.0-552.0","0","0","97721","","null","","","null","61","NaN","","","","","","","","","","","","","","",""
"","S2","","html-keyboard-response","407","611994","0.0-1.0-553.0","0","0","97721","","null","","","null","61","","NaN","","","","","","","","","","","","","",""
"","response","","html-keyboard-response","408","612320","0.0-1.0-554.0-0.0","0","0","97721","","322","","","75","61","","","2","61","training","adjacent","FG","6","7","R.jpg","P.jpg","1","1","1","",""
"","feedback","","html-keyboard-response","409","613330","0.0-1.0-555.0-0.0","0","0","97721","","null","","","null","61","","","","","","","","","","","","","","","",""
"","ITI","","html-keyboard-response","410","614338","0.0-1.0-558.0","0","0","97721","","null","","","null","61","","","","","","","","","","","","","","","NaN",""
"","S1","","html-keyboard-response","411","614498","0.0-1.0-560.0","0","0","97721","","null","","","null","62","","","","","","","","","","","","","","","",""
"","ISI","","html-keyboard-response","412","616506","0.0-1.0-561.0","0","0","97721","","null","","","null","62","NaN","","","","","","","","","","","","","","",""
"","S2","","html-keyboard-response","413","616666","0.0-1.0-562.0","0","0","97721","","null","","","null","62","","NaN","","","","","","","","","","","","","",""
"","response","","html-keyboard-response","414","617484","0.0-1.0-563.0-0.0","0","0","97721","","813","","","75","62","","","2","62","training","adjacent","DE","4","5","N.jpg","Q.jpg","1","1","1","",""
"","feedback","","html-keyboard-response","415","618490","0.0-1.0-564.0-0.0","0","0","97721","","null","","","null","62","","","","","","","","","","","","","","","",""
"","ITI","","html-keyboard-response","416","619498","0.0-1.0-567.0","0","0","97721","","null","","","null","62","","","","","","","","","","","","","","","NaN",""
"","S1","","html-keyboard-response","417","619658","0.0-1.0-569.0","0","0","97721","","null","","","null","63","","","","","","","","","","","","","","","",""
"","ISI","","html-keyboard-response","418","621666","0.0-1.0-570.0","0","0","97721","","null","","","null","63","NaN","","","","","","","","","","","","","","",""
"","S2","","html-keyboard-response","419","621826","0.0-1.0-571.0","0","0","97721","","null","","","null","63","","NaN","","","","","","","","","","","","","",""
"","response","","html-keyboard-response","420","622054","0.0-1.0-572.0-0.0","0","0","97721","","223","","","68","63","","","2","63","training","adjacent","DC","4","3","N.jpg","L.jpg","0","0","1","",""
"","feedback","","html-keyboard-response","421","623066","0.0-1.0-573.0-0.0","0","0","97721","","null","","","null","63","","","","","","","","","","","","","","","",""
"","ITI","","html-keyboard-response","422","624073","0.0-1.0-576.0","0","0","97721","","null","","","null","63","","","","","","","","","","","","","","","NaN",""
"","S1","","html-keyboard-response","423","624234","0.0-1.0-578.0","0","0","97721","","null","","","null","64","","","","","","","","","","","","","","","",""
"","ISI","","html-keyboard-response","424","626241","0.0-1.0-579.0","0","0","97721","","null","","","null","64","NaN","","","","","","","","","","","","","","",""
"","S2","","html-keyboard-response","425","626402","0.0-1.0-580.0","0","0","97721","","null","","","null","64","","NaN","","","","","","","","","","","","","",""
"","response","","html-keyboard-response","426","626652","0.0-1.0-581.0-0.0","0","0","97721","","246","","","68","64","","","2","64","training","adjacent","CD","3","4","L.jpg","N.jpg","0","1","0","",""
"","feedback","","html-keyboard-response","427","627658","0.0-1.0-582.0-0.0","0","0","97721","","null","","","null","64","","","","","","","","","","","","","","","",""
"","time_out","","html-keyboard-response","428","629666","0.0-1.0-584.0-0.0","0","0","97721","","null","","","null","64","","","","","","","","","","","","","","","",""
"","ITI","","html-keyboard-response","429","630674","0.0-1.0-585.0","0","0","97721","","null","","","null","64","","","","","","","","","","","","","","","NaN",""
"","S1","","html-keyboard-response","430","630834","0.0-1.0-587.0","0","0","97721","","null","","","null","65","","","","","","","","","","","","","","","",""
"","ISI","","html-keyboard-response","431","632842","0.0-1.0-588.0","0","0","97721","","null","","","null","65","NaN","","","","","","","","","","","","","","",""
"","S2","","html-keyboard-response","432","633002","0.0-1.0-589.0","0","0","97721","","null","","","null","65","","NaN","","","","","","","","","","","","","",""
"","response","","html-keyboard-response","433","633397","0.0-1.0-590.0-0.0","0","0","97721","","391","","","75","65","","","2","65","training","adjacent","EF","5","6","Q.jpg","R.jpg","1","1","1","",""
"","feedback","","html-keyboard-response","434","634402","0.0-1.0-591.0-0.0","0","0","97721","","null","","","null","65","","","","","","","","","","","","","","","",""
"","ITI","","html-keyboard-response","435","635410","0.0-1.0-594.0","0","0","97721","","null","","","null","65","","","","","","","","","","","","","","","NaN",""
"","S1","","html-keyboard-response","436","635570","0.0-1.0-596.0","0","0","97721","","null","","","null","66","","","","","","","","","","","","","","","",""
"","ISI","","html-keyboard-response","437","637578","0.0-1.0-597.0","0","0","97721","","null","","","null","66","NaN","","","","","","","","","","","","","","",""
"","S2","","html-keyboard-response","438","637738","0.0-1.0-598.0","0","0","97721","","null","","","null","66","","NaN","","","","","","","","","","","","","",""
"","response","","html-keyboard-response","439","638156","0.0-1.0-599.0-0.0","0","0","97721","","414","","","75","66","","","2","66","training","adjacent","ED","5","4","Q.jpg","N.jpg","1","0","0","",""
"","feedback","","html-keyboard-response","440","639162","0.0-1.0-600.0-0.0","0","0","97721","","null","","","null","66","","","","","","","","","","","","","","","",""
"","time_out","","html-keyboard-response","441","641170","0.0-1.0-602.0-0.0","0","0","97721","","null","","","null","66","","","","","","","","","","","","","","","",""
"","ITI","","html-keyboard-response","442","642178","0.0-1.0-603.0","0","0","97721","","null","","","null","66","","","","","","","","","","","","","","","NaN",""
"","S1","","html-keyboard-response","443","642338","0.0-1.0-605.0","0","0","97721","","null","","","null","67","","","","","","","","","","","","","","","",""
"","ISI","","html-keyboard-response","444","644346","0.0-1.0-606.0","0","0","97721","","null","","","null","67","NaN","","","","","","","","","","","","","","",""
"","S2","","html-keyboard-response","445","644506","0.0-1.0-607.0","0","0","97721","","null","","","null","67","","NaN","","","","","","","","","","","","","",""
"","response","","html-keyboard-response","446","645092","0.0-1.0-608.0-0.0","0","0","97721","","582","","","68","67","","","2","67","training","adjacent","DC","4","3","N.jpg","L.jpg","0","0","1","",""
"","feedback","","html-keyboard-response","447","646098","0.0-1.0-609.0-0.0","0","0","97721","","null","","","null","67","","","","","","","","","","","","","","","",""
"","ITI","","html-keyboard-response","448","647106","0.0-1.0-612.0","0","0","97721","","null","","","null","67","","","","","","","","","","","","","","","NaN",""
"","S1","","html-keyboard-response","449","647266","0.0-1.0-614.0","0","0","97721","","null","","","null","68","","","","","","","","","","","","","","","",""
"","ISI","","html-keyboard-response","450","649274","0.0-1.0-615.0","0","0","97721","","707","","","75","68","k","","","","","","","","","","","","","","",""
"","S2","","html-keyboard-response","451","649434","0.0-1.0-616.0","0","0","97721","","null","","","null","68","","NaN","","","","","","","","","","","","","",""
"","response","","html-keyboard-response","452","649830","0.0-1.0-617.0-0.0","0","0","97721","","392","","","75","68","","","2","68","training","adjacent","AB","1","2","M.jpg","O.jpg","1","1","1","",""
"","feedback","","html-keyboard-response","453","650842","0.0-1.0-618.0-0.0","0","0","97721","","null","","","null","68","","","","","","","","","","","","","","","",""
"","ITI","","html-keyboard-response","454","651850","0.0-1.0-621.0","0","0","97721","","null","","","null","68","","","","","","","","","","","","","","","NaN",""
"","S1","","html-keyboard-response","455","652010","0.0-1.0-623.0","0","0","97721","","null","","","null","69","","","","","","","","","","","","","","","",""
"","ISI","","html-keyboard-response","456","654017","0.0-1.0-624.0","0","0","97721","","null","","","null","69","NaN","","","","","","","","","","","","","","",""
"","S2","","html-keyboard-response","457","654178","0.0-1.0-625.0","0","0","97721","","null","","","null","69","","NaN","","","","","","","","","","","","","",""
"","response","","html-keyboard-response","458","654635","0.0-1.0-626.0-0.0","0","0","97721","","453","","","68","69","","","2","69","training","adjacent","CB","3","2","L.jpg","O.jpg","0","0","1","",""
"","feedback","","html-keyboard-response","459","655642","0.0-1.0-627.0-0.0","0","0","97721","","null","","","null","69","","","","","","","","","","","","","","","",""
"","ITI","","html-keyboard-response","460","656650","0.0-1.0-630.0","0","0","97721","","null","","","null","69","","","","","","","","","","","","","","","NaN",""
"","S1","","html-keyboard-response","461","656810","0.0-1.0-632.0","0","0","97721","","null","","","null","70","","","","","","","","","","","","","","","",""
"","ISI","","html-keyboard-response","462","658818","0.0-1.0-633.0","0","0","97721","","null","","","null","70","NaN","","","","","","","","","","","","","","",""
"","S2","","html-keyboard-response","463","658977","0.0-1.0-634.0","0","0","97721","","null","","","null","70","","NaN","","","","","","","","","","","","","",""
"","response","","html-keyboard-response","464","659403","0.0-1.0-635.0-0.0","0","0","97721","","421","","","75","70","","","2","70","training","adjacent","FE","6","5","R.jpg","Q.jpg","1","0","0","",""
"","feedback","","html-keyboard-response","465","660410","0.0-1.0-636.0-0.0","0","0","97721","","null","","","null","70","","","","","","","","","","","","","","","",""
"","time_out","","html-keyboard-response","466","662418","0.0-1.0-638.0-0.0","0","0","97721","","null","","","null","70","","","","","","","","","","","","","","","",""
"","ITI","","html-keyboard-response","467","663426","0.0-1.0-639.0","0","0","97721","","null","","","null","70","","","","","","","","","","","","","","","NaN",""
"","S1","","html-keyboard-response","468","663586","0.0-1.0-641.0","0","0","97721","","null","","","null","71","","","","","","","","","","","","","","","",""
"","ISI","","html-keyboard-response","469","665594","0.0-1.0-642.0","0","0","97721","","null","","","null","71","NaN","","","","","","","","","","","","","","",""
"","S2","","html-keyboard-response","470","665754","0.0-1.0-643.0","0","0","97721","","null","","","null","71","","NaN","","","","","","","","","","","","","",""
"","response","","html-keyboard-response","471","666140","0.0-1.0-644.0-0.0","0","0","97721","","382","","","68","71","","","2","71","training","adjacent","FE","6","5","R.jpg","Q.jpg","0","0","1","",""
"","feedback","","html-keyboard-response","472","667146","0.0-1.0-645.0-0.0","0","0","97721","","null","","","null","71","","","","","","","","","","","","","","","",""
"","ITI","","html-keyboard-response","473","668154","0.0-1.0-648.0","0","0","97721","","null","","","null","71","","","","","","","","","","","","","","","NaN",""
"","S1","","html-keyboard-response","474","668314","0.0-1.0-650.0","0","0","97721","","null","","","null","72","","","","","","","","","","","","","","","",""
"","ISI","","html-keyboard-response","475","670322","0.0-1.0-651.0","0","0","97721","","null","","","null","72","NaN","","","","","","","","","","","","","","",""
"","S2","","html-keyboard-response","476","670482","0.0-1.0-652.0","0","0","97721","","null","","","null","72","","NaN","","","","","","","","","","","","","",""
"","response","","html-keyboard-response","477","670966","0.0-1.0-653.0-0.0","0","0","97721","","480","","","68","72","","","2","72","training","adjacent","CD","3","4","L.jpg","N.jpg","0","1","0","",""
"","feedback","","html-keyboard-response","478","671978","0.0-1.0-654.0-0.0","0","0","97721","","null","","","null","72","","","","","","","","","","","","","","","",""
"","time_out","","html-keyboard-response","479","673985","0.0-1.0-656.0-0.0","0","0","97721","","null","","","null","72","","","","","","","","","","","","","","","",""
"","ITI","","html-keyboard-response","480","674994","0.0-1.0-657.0","0","0","97721","","null","","","null","72","","","","","","","","","","","","","","","NaN",""
"","S1","","html-keyboard-response","481","675154","0.0-1.0-659.0","0","0","97721","","null","","","null","73","","","","","","","","","","","","","","","",""
"","ISI","","html-keyboard-response","482","677162","0.0-1.0-660.0","0","0","97721","","1040","","","75","73","k","","","","","","","","","","","","","","",""
"","S2","","html-keyboard-response","483","677322","0.0-1.0-661.0","0","0","97721","","null","","","null","73","","NaN","","","","","","","","","","","","","",""
"","response","","html-keyboard-response","484","677982","0.0-1.0-662.0-0.0","0","0","97721","","656","","","68","73","","","2","73","training","adjacent","GF","7","6","P.jpg","R.jpg","0","0","1","",""
"","feedback","","html-keyboard-response","485","678994","0.0-1.0-663.0-0.0","0","0","97721","","null","","","null","73","","","","","","","","","","","","","","","",""
"","ITI","","html-keyboard-response","486","680002","0.0-1.0-666.0","0","0","97721","","null","","","null","73","","","","","","","","","","","","","","","NaN",""
"","S1","","html-keyboard-response","487","680161","0.0-1.0-668.0","0","0","97721","","null","","","null","74","","","","","","","","","","","","","","","",""
"","ISI","","html-keyboard-response","488","682170","0.0-1.0-669.0","0","0","97721","","null","","","null","74","NaN","","","","","","","","","","","","","","",""
"","S2","","html-keyboard-response","489","682330","0.0-1.0-670.0","0","0","97721","","null","","","null","74","","NaN","","","","","","","","","","","","","",""
"","response","","html-keyboard-response","490","682578","0.0-1.0-671.0-0.0","0","0","97721","","244","","","68","74","","","2","74","training","adjacent","BA","2","1","O.jpg","M.jpg","0","0","1","",""
"","feedback","","html-keyboard-response","491","683586","0.0-1.0-672.0-0.0","0","0","97721","","null","","","null","74","","","","","","","","","","","","","","","",""
"","ITI","","html-keyboard-response","492","684594","0.0-1.0-675.0","0","0","97721","","null","","","null","74","","","","","","","","","","","","","","","NaN",""
"","S1","","html-keyboard-response","493","684754","0.0-1.0-677.0","0","0","97721","","null","","","null","75","","","","","","","","","","","","","","","",""
"","ISI","","html-keyboard-response","494","686762","0.0-1.0-678.0","0","0","97721","","null","","","null","75","NaN","","","","","","","","","","","","","","",""
"","S2","","html-keyboard-response","495","686922","0.0-1.0-679.0","0","0","97721","","null","","","null","75","","NaN","","","","","","","","","","","","","",""
"","response","","html-keyboard-response","496","687140","0.0-1.0-680.0-0.0","0","0","97721","","214","","","68","75","","","2","75","training","adjacent","BC","2","3","O.jpg","L.jpg","0","1","0","",""
"","feedback","","html-keyboard-response","497","688145","0.0-1.0-681.0-0.0","0","0","97721","","null","","","null","75","","","","","","","","","","","","","","","",""
"","time_out","","html-keyboard-response","498","690154","0.0-1.0-683.0-0.0","0","0","97721","","null","","","null","75","","","","","","","","","","","","","","","",""
"","ITI","","html-keyboard-response","499","691162","0.0-1.0-684.0","0","0","97721","","null","","","null","75","","","","","","","","","","","","","","","NaN",""
"","S1","","html-keyboard-response","500","691322","0.0-1.0-686.0","0","0","97721","","null","","","null","76","","","","","","","","","","","","","","","",""
"","ISI","","html-keyboard-response","501","693330","0.0-1.0-687.0","0","0","97721","","null","","","null","76","NaN","","","","","","","","","","","","","","",""
"","S2","","html-keyboard-response","502","693490","0.0-1.0-688.0","0","0","97721","","null","","","null","76","","NaN","","","","","","","","","","","","","",""
"","response","","html-keyboard-response","503","694309","0.0-1.0-689.0-0.0","0","0","97721","","814","","","68","76","","","2","76","training","adjacent","CB","3","2","L.jpg","O.jpg","0","0","1","",""
"","feedback","","html-keyboard-response","504","695322","0.0-1.0-690.0-0.0","0","0","97721","","null","","","null","76","","","","","","","","","","","","","","","",""
"","ITI","","html-keyboard-response","505","696330","0.0-1.0-693.0","0","0","97721","","null","","","null","76","","","","","","","","","","","","","","","NaN",""
"","S1","","html-keyboard-response","506","696490","0.0-1.0-695.0","0","0","97721","","null","","","null","77","","","","","","","","","","","","","","","",""
"","ISI","","html-keyboard-response","507","698497","0.0-1.0-696.0","0","0","97721","","null","","","null","77","NaN","","","","","","","","","","","","","","",""
"","S2","","html-keyboard-response","508","698657","0.0-1.0-697.0","0","0","97721","","null","","","null","77","","NaN","","","","","","","","","","","","","",""
"","response","","html-keyboard-response","509","699279","0.0-1.0-698.0-0.0","0","0","97721","","618","","","68","77","","","2","77","training","adjacent","EF","5","6","Q.jpg","R.jpg","0","1","0","",""
"","feedback","","html-keyboard-response","510","700290","0.0-1.0-699.0-0.0","0","0","97721","","null","","","null","77","","","","","","","","","","","","","","","",""
"","time_out","","html-keyboard-response","511","702298","0.0-1.0-701.0-0.0","0","0","97721","","null","","","null","77","","","","","","","","","","","","","","","",""
"","ITI","","html-keyboard-response","512","703306","0.0-1.0-702.0","0","0","97721","","null","","","null","77","","","","","","","","","","","","","","","NaN",""
"","S1","","html-keyboard-response","513","703466","0.0-1.0-704.0","0","0","97721","","null","","","null","78","","","","","","","","","","","","","","","",""
"","ISI","","html-keyboard-response","514","705474","0.0-1.0-705.0","0","0","97721","","null","","","null","78","NaN","","","","","","","","","","","","","","",""
"","S2","","html-keyboard-response","515","705634","0.0-1.0-706.0","0","0","97721","","null","","","null","78","","NaN","","","","","","","","","","","","","",""
"","response","","html-keyboard-response","516","706793","0.0-1.0-707.0-0.0","0","0","97721","","1155","","","68","78","","","2","78","training","adjacent","DC","4","3","N.jpg","L.jpg","0","0","1","",""
"","feedback","","html-keyboard-response","517","707802","0.0-1.0-708.0-0.0","0","0","97721","","null","","","null","78","","","","","","","","","","","","","","","",""
"","ITI","","html-keyboard-response","518","708810","0.0-1.0-711.0","0","0","97721","","null","","","null","78","","","","","","","","","","","","","","","NaN",""
"","S1","","html-keyboard-response","519","708969","0.0-1.0-713.0","0","0","97721","","null","","","null","79","","","","","","","","","","","","","","","",""
"","ISI","","html-keyboard-response","520","710978","0.0-1.0-714.0","0","0","97721","","null","","","null","79","NaN","","","","","","","","","","","","","","",""
"","S2","","html-keyboard-response","521","711137","0.0-1.0-715.0","0","0","97721","","null","","","null","79","","NaN","","","","","","","","","","","","","",""
"","response","","html-keyboard-response","522","711625","0.0-1.0-716.0-0.0","0","0","97721","","483","","","75","79","","","2","79","training","adjacent","CD","3","4","L.jpg","N.jpg","1","1","1","",""
"","feedback","","html-keyboard-response","523","712634","0.0-1.0-717.0-0.0","0","0","97721","","null","","","null","79","","","","","","","","","","","","","","","",""
"","ITI","","html-keyboard-response","524","713642","0.0-1.0-720.0","0","0","97721","","null","","","null","79","","","","","","","","","","","","","","","NaN",""
"","S1","","html-keyboard-response","525","713802","0.0-1.0-722.0","0","0","97721","","null","","","null","80","","","","","","","","","","","","","","","",""
"","ISI","","html-keyboard-response","526","715809","0.0-1.0-723.0","0","0","97721","","null","","","null","80","NaN","","","","","","","","","","","","","","",""
"","S2","","html-keyboard-response","527","715970","0.0-1.0-724.0","0","0","97721","","null","","","null","80","","NaN","","","","","","","","","","","","","",""
"","response","","html-keyboard-response","528","716212","0.0-1.0-725.0-0.0","0","0","97721","","237","","","68","80","","","2","80","training","adjacent","FE","6","5","R.jpg","Q.jpg","0","0","1","",""
"","feedback","","html-keyboard-response","529","717218","0.0-1.0-726.0-0.0","0","0","97721","","null","","","null","80","","","","","","","","","","","","","","","",""
"","ITI","","html-keyboard-response","530","718226","0.0-1.0-729.0","0","0","97721","","null","","","null","80","","","","","","","","","","","","","","","NaN",""
"","S1","","html-keyboard-response","531","718386","0.0-1.0-731.0","0","0","97721","","null","","","null","81","","","","","","","","","","","","","","","",""
"","ISI","","html-keyboard-response","532","720393","0.0-1.0-732.0","0","0","97721","","null","","","null","81","NaN","","","","","","","","","","","","","","",""
"","S2","","html-keyboard-response","533","720554","0.0-1.0-733.0","0","0","97721","","null","","","null","81","","NaN","","","","","","","","","","","","","",""
"","response","","html-keyboard-response","534","721855","0.0-1.0-734.0-0.0","0","0","97721","","1296","","","68","81","","","2","81","training","adjacent","EF","5","6","Q.jpg","R.jpg","0","1","0","",""
"","feedback","","html-keyboard-response","535","722866","0.0-1.0-735.0-0.0","0","0","97721","","null","","","null","81","","","","","","","","","","","","","","","",""
"","time_out","","html-keyboard-response","536","724874","0.0-1.0-737.0-0.0","0","0","97721","","null","","","null","81","","","","","","","","","","","","","","","",""
"","ITI","","html-keyboard-response","537","725882","0.0-1.0-738.0","0","0","97721","","null","","","null","81","","","","","","","","","","","","","","","NaN",""
"","S1","","html-keyboard-response","538","726042","0.0-1.0-740.0","0","0","97721","","null","","","null","82","","","","","","","","","","","","","","","",""
"","ISI","","html-keyboard-response","539","728050","0.0-1.0-741.0","0","0","97721","","null","","","null","82","NaN","","","","","","","","","","","","","","",""
"","S2","","html-keyboard-response","540","728210","0.0-1.0-742.0","0","0","97721","","null","","","null","82","","NaN","","","","","","","","","","","","","",""
"","response","","html-keyboard-response","541","728761","0.0-1.0-743.0-0.0","0","0","97721","","547","","","68","82","","","2","82","training","adjacent","DE","4","5","N.jpg","Q.jpg","0","1","0","",""
"","feedback","","html-keyboard-response","542","729770","0.0-1.0-744.0-0.0","0","0","97721","","null","","","null","82","","","","","","","","","","","","","","","",""
"","time_out","","html-keyboard-response","543","731777","0.0-1.0-746.0-0.0","0","0","97721","","null","","","null","82","","","","","","","","","","","","","","","",""
"","ITI","","html-keyboard-response","544","732786","0.0-1.0-747.0","0","0","97721","","null","","","null","82","","","","","","","","","","","","","","","NaN",""
"","S1","","html-keyboard-response","545","732946","0.0-1.0-749.0","0","0","97721","","null","","","null","83","","","","","","","","","","","","","","","",""
"","ISI","","html-keyboard-response","546","734954","0.0-1.0-750.0","0","0","97721","","null","","","null","83","NaN","","","","","","","","","","","","","","",""
"","S2","","html-keyboard-response","547","735114","0.0-1.0-751.0","0","0","97721","","null","","","null","83","","NaN","","","","","","","","","","","","","",""
"","response","","html-keyboard-response","548","735869","0.0-1.0-752.0-0.0","0","0","97721","","751","","","75","83","","","2","83","training","adjacent","GF","7","6","P.jpg","R.jpg","1","0","0","",""
"","feedback","","html-keyboard-response","549","736874","0.0-1.0-753.0-0.0","0","0","97721","","null","","","null","83","","","","","","","","","","","","","","","",""
"","time_out","","html-keyboard-response","550","738882","0.0-1.0-755.0-0.0","0","0","97721","","null","","","null","83","","","","","","","","","","","","","","","",""
"","ITI","","html-keyboard-response","551","739890","0.0-1.0-756.0","0","0","97721","","null","","","null","83","","","","","","","","","","","","","","","NaN",""
"","S1","","html-keyboard-response","552","740050","0.0-1.0-758.0","0","0","97721","","null","","","null","84","","","","","","","","","","","","","","","",""
"","ISI","","html-keyboard-response","553","742058","0.0-1.0-759.0","0","0","97721","","null","","","null","84","NaN","","","","","","","","","","","","","","",""
"","S2","","html-keyboard-response","554","742218","0.0-1.0-760.0","0","0","97721","","null","","","null","84","","NaN","","","","","","","","","","","","","",""
"","response","","html-keyboard-response","555","743006","0.0-1.0-761.0-0.0","0","0","97721","","784","","","75","84","","","2","84","training","adjacent","ED","5","4","Q.jpg","N.jpg","1","0","0","",""
"","feedback","","html-keyboard-response","556","744017","0.0-1.0-762.0-0.0","0","0","97721","","null","","","null","84","","","","","","","","","","","","","","","",""
"","time_out","","html-keyboard-response","557","746026","0.0-1.0-764.0-0.0","0","0","97721","","null","","","null","84","","","","","","","","","","","","","","","",""
"","ITI","","html-keyboard-response","558","747034","0.0-1.0-765.0","0","0","97721","","null","","","null","84","","","","","","","","","","","","","","","NaN",""
"","S1","","html-keyboard-response","559","747194","0.0-1.0-767.0","0","0","97721","","null","","","null","85","","","","","","","","","","","","","","","",""
"","ISI","","html-keyboard-response","560","749202","0.0-1.0-768.0","0","0","97721","","null","","","null","85","NaN","","","","","","","","","","","","","","",""
"","S2","","html-keyboard-response","561","749362","0.0-1.0-769.0","0","0","97721","","null","","","null","85","","NaN","","","","","","","","","","","","","",""
"","response","","html-keyboard-response","562","750226","0.0-1.0-770.0-0.0","0","0","97721","","859","","","68","85","","","2","85","training","adjacent","AB","1","2","M.jpg","O.jpg","0","1","0","",""
"","feedback","","html-keyboard-response","563","751233","0.0-1.0-771.0-0.0","0","0","97721","","null","","","null","85","","","","","","","","","","","","","","","",""
"","time_out","","html-keyboard-response","564","753242","0.0-1.0-773.0-0.0","0","0","97721","","null","","","null","85","","","","","","","","","","","","","","","",""
"","ITI","","html-keyboard-response","565","754250","0.0-1.0-774.0","0","0","97721","","null","","","null","85","","","","","","","","","","","","","","","NaN",""
"","S1","","html-keyboard-response","566","754410","0.0-1.0-776.0","0","0","97721","","null","","","null","86","","","","","","","","","","","","","","","",""
"","ISI","","html-keyboard-response","567","756418","0.0-1.0-777.0","0","0","97721","","null","","","null","86","NaN","","","","","","","","","","","","","","",""
"","S2","","html-keyboard-response","568","756578","0.0-1.0-778.0","0","0","97721","","null","","","null","86","","NaN","","","","","","","","","","","","","",""
"","response","","html-keyboard-response","569","757112","0.0-1.0-779.0-0.0","0","0","97721","","530","","","75","86","","","2","86","training","adjacent","FG","6","7","R.jpg","P.jpg","1","1","1","",""
"","feedback","","html-keyboard-response","570","758122","0.0-1.0-780.0-0.0","0","0","97721","","null","","","null","86","","","","","","","","","","","","","","","",""
"","ITI","","html-keyboard-response","571","759129","0.0-1.0-783.0","0","0","97721","","null","","","null","86","","","","","","","","","","","","","","","NaN",""
"","S1","","html-keyboard-response","572","759290","0.0-1.0-785.0","0","0","97721","","null","","","null","87","","","","","","","","","","","","","","","",""
"","ISI","","html-keyboard-response","573","761298","0.0-1.0-786.0","0","0","97721","","null","","","null","87","NaN","","","","","","","","","","","","","","",""
"","S2","","html-keyboard-response","574","761458","0.0-1.0-787.0","0","0","97721","","null","","","null","87","","NaN","","","","","","","","","","","","","",""
"","response","","html-keyboard-response","575","761940","0.0-1.0-788.0-0.0","0","0","97721","","478","","","75","87","","","2","87","training","adjacent","GF","7","6","P.jpg","R.jpg","1","0","0","",""
"","feedback","","html-keyboard-response","576","762946","0.0-1.0-789.0-0.0","0","0","97721","","null","","","null","87","","","","","","","","","","","","","","","",""
"","time_out","","html-keyboard-response","577","764954","0.0-1.0-791.0-0.0","0","0","97721","","null","","","null","87","","","","","","","","","","","","","","","",""
"","ITI","","html-keyboard-response","578","765962","0.0-1.0-792.0","0","0","97721","","null","","","null","87","","","","","","","","","","","","","","","NaN",""
"","S1","","html-keyboard-response","579","766122","0.0-1.0-794.0","0","0","97721","","null","","","null","88","","","","","","","","","","","","","","","",""
"","ISI","","html-keyboard-response","580","768129","0.0-1.0-795.0","0","0","97721","","null","","","null","88","NaN","","","","","","","","","","","","","","",""
"","S2","","html-keyboard-response","581","768290","0.0-1.0-796.0","0","0","97721","","null","","","null","88","","NaN","","","","","","","","","","","","","",""
