"success","ttype","start_time","trial_type","trial_index","time_elapsed","internal_node_id","warning","missed_checkup","PID","view_history","rt","responses","repeat_instructions","key_press","index","keypress_isi","keypress_S2","block","trial_num","phase","group_type","pair_type","S1_stim","S2_stim","S1_img","S2_img","S1_chosen","S1_higher","accuracy","keypress_iti","total_bonus_tally"
"true","full_screen","d04062023hr1950","fullscreen","0","7868","0.0-0.0","0","0","64586","","","","","","","","","","","","","","","","","","","","","",""
"","instructions","","instructions","1","102610","0.0-1.0-0.0-0.0","0","0","64586","[{""page_index"":0,""viewing_time"":10734},{""page_index"":1,""viewing_time"":42270},{""page_index"":2,""viewing_time"":14854},{""page_index"":1,""viewing_time"":23043},{""page_index"":2,""viewing_time"":1888},{""page_index"":3,""viewing_time"":1944}]","94735","","","","","","","","","","","","","","","","","","","",""
"","comprehension_check","","survey-multi-choice","2","152326","0.0-1.0-0.0-1.0","0","0","64586","","49697","{""Q0"":""True"",""Q1"":""D"",""Q2"":""Only when the screen 'MAKE A CHOICE' is shown"",""Q3"":""Green mark"",""Q4"":""either D or K""}","1","","","","","","","","","","","","","","","","","",""
"","missed_instruction_checkup","","html-keyboard-response","3","155554","0.0-1.0-0.0-2.0-0.0","0","1","64586","","3217","","","32","","","","","","","","","","","","","","","","",""
"","instructions","","instructions","4","171822","0.0-1.0-0.1-0.1","0","0","64586","[{""page_index"":0,""viewing_time"":5545},{""page_index"":1,""viewing_time"":8833},{""page_index"":2,""viewing_time"":927},{""page_index"":3,""viewing_time"":955}]","16261","","","","","","","","","","","","","","","","","","","",""
"","comprehension_check","","survey-multi-choice","5","185358","0.0-1.0-0.1-1.1","0","0","64586","","13519","{""Q0"":""True"",""Q1"":""D"",""Q2"":""Once the second image appears and while the screen 'MAKE A CHOICE' is shown"",""Q3"":""Green mark"",""Q4"":""either D or K""}","0","","","","","","","","","","","","","","","","","",""
"","start_exp","","html-keyboard-response","6","187532","0.0-1.0-1.0","0","0","64586","","2167","","","32","","","","","","","","","","","","","","","","",""
"","S1","","html-keyboard-response","7","187689","0.0-1.0-2.0","0","0","64586","","null","","","null","0","","","","","","","","","","","","","","","",""
"","ISI","","html-keyboard-response","8","189693","0.0-1.0-3.0","0","0","64586","","null","","","null","0","NaN","","","","","","","","","","","","","","",""
"","S2","","html-keyboard-response","9","189848","0.0-1.0-4.0","0","0","64586","","null","","","null","0","","NaN","","","","","","","","","","","","","",""
"","response","","html-keyboard-response","10","191602","0.0-1.0-5.0-0.0","0","0","64586","","1749","","","68","0","","","1","0","training","adjacent","BA","2","1","R.jpg","O.jpg","1","0","0","",""
"","feedback","","html-keyboard-response","11","192607","0.0-1.0-6.0-0.0","0","0","64586","","null","","","null","0","","","","","","","","","","","","","","","",""
"","time_out","","html-keyboard-response","12","194612","0.0-1.0-8.0-0.0","0","0","64586","","null","","","null","0","","","","","","","","","","","","","","","",""
"","ITI","","html-keyboard-response","13","195616","0.0-1.0-9.0","0","0","64586","","null","","","null","0","","","","","","","","","","","","","","","NaN",""
"","S1","","html-keyboard-response","14","195771","0.0-1.0-11.0","0","0","64586","","null","","","null","1","","","","","","","","","","","","","","","",""
"","ISI","","html-keyboard-response","15","197775","0.0-1.0-12.0","0","0","64586","","370","","","75","1","k","","","","","","","","","","","","","","",""
"","S2","","html-keyboard-response","16","197929","0.0-1.0-13.0","0","0","64586","","null","","","null","1","","NaN","","","","","","","","","","","","","",""
"","response","","html-keyboard-response","17","198201","0.0-1.0-14.0-0.0","0","0","64586","","268","","","75","1","","","1","1","training","adjacent","DE","4","5","P.jpg","Q.jpg","0","1","0","",""
"","feedback","","html-keyboard-response","18","199206","0.0-1.0-15.0-0.0","0","0","64586","","null","","","null","1","","","","","","","","","","","","","","","",""
"","time_out","","html-keyboard-response","19","201213","0.0-1.0-17.0-0.0","0","0","64586","","null","","","null","1","","","","","","","","","","","","","","","",""
"","ITI","","html-keyboard-response","20","202218","0.0-1.0-18.0","0","0","64586","","null","","","null","1","","","","","","","","","","","","","","","NaN",""
"","S1","","html-keyboard-response","21","202377","0.0-1.0-20.0","0","0","64586","","null","","","null","2","","","","","","","","","","","","","","","",""
"","ISI","","html-keyboard-response","22","204383","0.0-1.0-21.0","0","0","64586","","null","","","null","2","NaN","","","","","","","","","","","","","","",""
"","S2","","html-keyboard-response","23","204541","0.0-1.0-22.0","0","0","64586","","null","","","null","2","","NaN","","","","","","","","","","","","","",""
"","response","","html-keyboard-response","24","205199","0.0-1.0-23.0-0.0","0","0","64586","","652","","","68","2","","","1","2","training","adjacent","BC","2","3","R.jpg","M.jpg","1","1","1","",""
"","feedback","","html-keyboard-response","25","206207","0.0-1.0-24.0-0.0","0","0","64586","","null","","","null","2","","","","","","","","","","","","","","","",""
"","ITI","","html-keyboard-response","26","207215","0.0-1.0-27.0","0","0","64586","","null","","","null","2","","","","","","","","","","","","","","","NaN",""
"","S1","","html-keyboard-response","27","207372","0.0-1.0-29.0","0","0","64586","","null","","","null","3","","","","","","","","","","","","","","","",""
"","ISI","","html-keyboard-response","28","209379","0.0-1.0-30.0","0","0","64586","","null","","","null","3","NaN","","","","","","","","","","","","","","",""
"","S2","","html-keyboard-response","29","209537","0.0-1.0-31.0","0","0","64586","","null","","","null","3","","NaN","","","","","","","","","","","","","",""
"","response","","html-keyboard-response","30","210065","0.0-1.0-32.0-0.0","0","0","64586","","522","","","68","3","","","1","3","training","adjacent","AB","1","2","O.jpg","R.jpg","1","1","1","",""
"","feedback","","html-keyboard-response","31","211073","0.0-1.0-33.0-0.0","0","0","64586","","null","","","null","3","","","","","","","","","","","","","","","",""
"","ITI","","html-keyboard-response","32","212080","0.0-1.0-36.0","0","0","64586","","null","","","null","3","","","","","","","","","","","","","","","NaN",""
"","S1","","html-keyboard-response","33","212237","0.0-1.0-38.0","0","0","64586","","null","","","null","4","","","","","","","","","","","","","","","",""
"","ISI","","html-keyboard-response","34","214242","0.0-1.0-39.0","0","0","64586","","null","","","null","4","NaN","","","","","","","","","","","","","","",""
"","S2","","html-keyboard-response","35","214398","0.0-1.0-40.0","0","0","64586","","null","","","null","4","","NaN","","","","","","","","","","","","","",""
"","response","","html-keyboard-response","36","214806","0.0-1.0-41.0-0.0","0","0","64586","","404","","","68","4","","","1","4","training","adjacent","CB","3","2","M.jpg","R.jpg","1","0","0","",""
"","feedback","","html-keyboard-response","37","215812","0.0-1.0-42.0-0.0","0","0","64586","","null","","","null","4","","","","","","","","","","","","","","","",""
"","time_out","","html-keyboard-response","38","217816","0.0-1.0-44.0-0.0","0","0","64586","","null","","","null","4","","","","","","","","","","","","","","","",""
"","ITI","","html-keyboard-response","39","218823","0.0-1.0-45.0","0","0","64586","","null","","","null","4","","","","","","","","","","","","","","","NaN",""
"","S1","","html-keyboard-response","40","218981","0.0-1.0-47.0","0","0","64586","","null","","","null","5","","","","","","","","","","","","","","","",""
"","ISI","","html-keyboard-response","41","220986","0.0-1.0-48.0","0","0","64586","","308","","","75","5","k","","","","","","","","","","","","","","",""
"","S2","","html-keyboard-response","42","221141","0.0-1.0-49.0","0","0","64586","","null","","","null","5","","NaN","","","","","","","","","","","","","",""
"","response","","html-keyboard-response","43","221325","0.0-1.0-50.0-0.0","0","0","64586","","181","","","75","5","","","1","5","training","adjacent","CD","3","4","M.jpg","P.jpg","0","1","0","",""
"","feedback","","html-keyboard-response","44","222330","0.0-1.0-51.0-0.0","0","0","64586","","null","","","null","5","","","","","","","","","","","","","","","",""
"","time_out","","html-keyboard-response","45","224335","0.0-1.0-53.0-0.0","0","0","64586","","null","","","null","5","","","","","","","","","","","","","","","",""
"","ITI","","html-keyboard-response","46","225339","0.0-1.0-54.0","0","0","64586","","null","","","null","5","","","","","","","","","","","","","","","NaN",""
"","S1","","html-keyboard-response","47","225497","0.0-1.0-56.0","0","0","64586","","null","","","null","6","","","","","","","","","","","","","","","",""
"","ISI","","html-keyboard-response","48","227501","0.0-1.0-57.0","0","0","64586","","null","","","null","6","NaN","","","","","","","","","","","","","","",""
"","S2","","html-keyboard-response","49","227656","0.0-1.0-58.0","0","0","64586","","null","","","null","6","","NaN","","","","","","","","","","","","","",""
"","response","","html-keyboard-response","50","227730","0.0-1.0-59.0-0.0","0","0","64586","","70","","","68","6","","","1","6","training","adjacent","CD","3","4","M.jpg","P.jpg","1","1","1","",""
"","feedback","","html-keyboard-response","51","228736","0.0-1.0-60.0-0.0","0","0","64586","","null","","","null","6","","","","","","","","","","","","","","","",""
"","ITI","","html-keyboard-response","52","229740","0.0-1.0-63.0","0","0","64586","","null","","","null","6","","","","","","","","","","","","","","","NaN",""
"","S1","","html-keyboard-response","53","229895","0.0-1.0-65.0","0","0","64586","","null","","","null","7","","","","","","","","","","","","","","","",""
"","ISI","","html-keyboard-response","54","231900","0.0-1.0-66.0","0","0","64586","","null","","","null","7","NaN","","","","","","","","","","","","","","",""
"","S2","","html-keyboard-response","55","232029","0.0-1.0-67.0","0","0","64586","","125","","","68","7","","d","1","7","training","adjacent","BC","2","3","R.jpg","M.jpg","1","1","1","",""
"","feedback","","html-keyboard-response","56","233036","0.0-1.0-69.0-0.0","0","0","64586","","null","","","null","7","","","","","","","","","","","","","","","",""
"","ITI","","html-keyboard-response","57","234042","0.0-1.0-72.0","0","0","64586","","null","","","null","7","","","","","","","","","","","","","","","NaN",""
"","S1","","html-keyboard-response","58","234198","0.0-1.0-74.0","0","0","64586","","null","","","null","8","","","","","","","","","","","","","","","",""
"","ISI","","html-keyboard-response","59","236204","0.0-1.0-75.0","0","0","64586","","null","","","null","8","NaN","","","","","","","","","","","","","","",""
"","S2","","html-keyboard-response","60","236361","0.0-1.0-76.0","0","0","64586","","null","","","null","8","","NaN","","","","","","","","","","","","","",""
"","response","","html-keyboard-response","61","236456","0.0-1.0-77.0-0.0","0","0","64586","","90","","","68","8","","","1","8","training","adjacent","FE","6","5","N.jpg","Q.jpg","1","0","0","",""
"","feedback","","html-keyboard-response","62","237464","0.0-1.0-78.0-0.0","0","0","64586","","null","","","null","8","","","","","","","","","","","","","","","",""
"","time_out","","html-keyboard-response","63","239470","0.0-1.0-80.0-0.0","0","0","64586","","null","","","null","8","","","","","","","","","","","","","","","",""
"","ITI","","html-keyboard-response","64","240476","0.0-1.0-81.0","0","0","64586","","null","","","null","8","","","","","","","","","","","","","","","NaN",""
"","S1","","html-keyboard-response","65","240634","0.0-1.0-83.0","0","0","64586","","null","","","null","9","","","","","","","","","","","","","","","",""
"","ISI","","html-keyboard-response","66","242640","0.0-1.0-84.0","0","0","64586","","64","","","75","9","k","","","","","","","","","","","","","","",""
"","S2","","html-keyboard-response","67","242798","0.0-1.0-85.0","0","0","64586","","null","","","null","9","","NaN","","","","","","","","","","","","","",""
"","response","","html-keyboard-response","68","243032","0.0-1.0-86.0-0.0","0","0","64586","","229","","","75","9","","","1","9","training","adjacent","DC","4","3","P.jpg","M.jpg","0","0","1","",""
"","feedback","","html-keyboard-response","69","244036","0.0-1.0-87.0-0.0","0","0","64586","","null","","","null","9","","","","","","","","","","","","","","","",""
"","ITI","","html-keyboard-response","70","245055","0.0-1.0-90.0","0","0","64586","","null","","","null","9","","","","","","","","","","","","","","","NaN",""
"","S1","","html-keyboard-response","71","245212","0.0-1.0-92.0","0","0","64586","","null","","","null","10","","","","","","","","","","","","","","","",""
"","ISI","","html-keyboard-response","72","247219","0.0-1.0-93.0","0","0","64586","","375","","","75","10","k","","","","","","","","","","","","","","",""
"","S2","","html-keyboard-response","73","247376","0.0-1.0-94.0","0","0","64586","","null","","","null","10","","NaN","","","","","","","","","","","","","",""
"","response","","html-keyboard-response","74","247410","0.0-1.0-95.0-0.0","0","0","64586","","29","","","75","10","","","1","10","training","adjacent","AB","1","2","O.jpg","R.jpg","0","1","0","",""
"","feedback","","html-keyboard-response","75","248418","0.0-1.0-96.0-0.0","0","0","64586","","null","","","null","10","","","","","","","","","","","","","","","",""
"","time_out","","html-keyboard-response","76","250425","0.0-1.0-98.0-0.0","0","0","64586","","null","","","null","10","","","","","","","","","","","","","","","",""
"","ITI","","html-keyboard-response","77","251431","0.0-1.0-99.0","0","0","64586","","499","","","75","10","","","","","","","","","","","","","","","k",""
"","S1","","html-keyboard-response","78","251598","0.0-1.0-101.0","0","0","64586","","null","","","null","11","","","","","","","","","","","","","","","",""
"","ISI","","html-keyboard-response","79","253605","0.0-1.0-102.0","0","0","64586","","62","","","68","11","d","","","","","","","","","","","","","","",""
"","S2","","html-keyboard-response","80","253763","0.0-1.0-103.0","0","0","64586","","null","","","null","11","","NaN","","","","","","","","","","","","","",""
"","response","","html-keyboard-response","81","253876","0.0-1.0-104.0-0.0","0","0","64586","","108","","","68","11","","","1","11","training","adjacent","DC","4","3","P.jpg","M.jpg","1","0","0","",""
"","feedback","","html-keyboard-response","82","254884","0.0-1.0-105.0-0.0","0","0","64586","","null","","","null","11","","","","","","","","","","","","","","","",""
"","time_out","","html-keyboard-response","83","256889","0.0-1.0-107.0-0.0","0","0","64586","","null","","","null","11","","","","","","","","","","","","","","","",""
"","ITI","","html-keyboard-response","84","257895","0.0-1.0-108.0","0","0","64586","","null","","","null","11","","","","","","","","","","","","","","","NaN",""
"","S1","","html-keyboard-response","85","258053","0.0-1.0-110.0","0","0","64586","","null","","","null","12","","","","","","","","","","","","","","","",""
"","ISI","","html-keyboard-response","86","260058","0.0-1.0-111.0","0","0","64586","","null","","","null","12","NaN","","","","","","","","","","","","","","",""
"","S2","","html-keyboard-response","87","260213","0.0-1.0-112.0","0","0","64586","","null","","","null","12","","NaN","","","","","","","","","","","","","",""
"","response","","html-keyboard-response","88","260892","0.0-1.0-113.0-0.0","0","0","64586","","676","","","68","12","","","1","12","training","adjacent","FG","6","7","N.jpg","L.jpg","1","1","1","",""
"","feedback","","html-keyboard-response","89","261896","0.0-1.0-114.0-0.0","0","0","64586","","null","","","null","12","","","","","","","","","","","","","","","",""
"","ITI","","html-keyboard-response","90","262901","0.0-1.0-117.0","0","0","64586","","null","","","null","12","","","","","","","","","","","","","","","NaN",""
"","S1","","html-keyboard-response","91","263055","0.0-1.0-119.0","0","0","64586","","null","","","null","13","","","","","","","","","","","","","","","",""
"","ISI","","html-keyboard-response","92","265060","0.0-1.0-120.0","0","0","64586","","null","","","null","13","NaN","","","","","","","","","","","","","","",""
"","S2","","html-keyboard-response","93","265229","0.0-1.0-121.0","0","0","64586","","null","","","null","13","","NaN","","","","","","","","","","","","","",""
"","response","","html-keyboard-response","94","267084","0.0-1.0-122.0-0.0","0","0","64586","","null","","","null","13","","","1","13","training","adjacent","DC","4","3","P.jpg","M.jpg","NaN","0","0","",""
"","too_slow_prompt","","html-keyboard-response","95","268092","0.0-1.0-124.0-0.0","1","0","64586","","null","","","null","","","","","","","","","","","","","","","","",""
"","time_out","","html-keyboard-response","96","270099","0.0-1.0-125.0-0.0","0","0","64586","","null","","","null","13","","","","","","","","","","","","","","","",""
"","ITI","","html-keyboard-response","97","271104","0.0-1.0-126.0","0","0","64586","","null","","","null","13","","","","","","","","","","","","","","","NaN",""
"","S1","","html-keyboard-response","98","271259","0.0-1.0-128.0","0","0","64586","","null","","","null","14","","","","","","","","","","","","","","","",""
"","ISI","","html-keyboard-response","99","273265","0.0-1.0-129.0","0","0","64586","","null","","","null","14","NaN","","","","","","","","","","","","","","",""
"","S2","","html-keyboard-response","100","273421","0.0-1.0-130.0","0","0","64586","","null","","","null","14","","NaN","","","","","","","","","","","","","",""
"","response","","html-keyboard-response","101","273542","0.0-1.0-131.0-0.0","0","0","64586","","118","","","75","14","","","1","14","training","adjacent","DE","4","5","P.jpg","Q.jpg","0","1","0","",""
"","feedback","","html-keyboard-response","102","274548","0.0-1.0-132.0-0.0","0","0","64586","","null","","","null","14","","","","","","","","","","","","","","","",""
"","time_out","","html-keyboard-response","103","276554","0.0-1.0-134.0-0.0","0","0","64586","","null","","","null","14","","","","","","","","","","","","","","","",""
"","ITI","","html-keyboard-response","104","277558","0.0-1.0-135.0","0","0","64586","","null","","","null","14","","","","","","","","","","","","","","","NaN",""
"","S1","","html-keyboard-response","105","277715","0.0-1.0-137.0","0","0","64586","","null","","","null","15","","","","","","","","","","","","","","","",""
"","ISI","","html-keyboard-response","106","279722","0.0-1.0-138.0","0","0","64586","","289","","","68","15","d","","","","","","","","","","","","","","",""
"","S2","","html-keyboard-response","107","279877","0.0-1.0-139.0","0","0","64586","","null","","","null","15","","NaN","","","","","","","","","","","","","",""
"","response","","html-keyboard-response","108","279903","0.0-1.0-140.0-0.0","0","0","64586","","22","","","68","15","","","1","15","training","adjacent","CB","3","2","M.jpg","R.jpg","1","0","0","",""
"","feedback","","html-keyboard-response","109","280916","0.0-1.0-141.0-0.0","0","0","64586","","null","","","null","15","","","","","","","","","","","","","","","",""
"","time_out","","html-keyboard-response","110","282921","0.0-1.0-143.0-0.0","0","0","64586","","null","","","null","15","","","","","","","","","","","","","","","",""
"","ITI","","html-keyboard-response","111","283927","0.0-1.0-144.0","0","0","64586","","null","","","null","15","","","","","","","","","","","","","","","NaN",""
"","S1","","html-keyboard-response","112","284097","0.0-1.0-146.0","0","0","64586","","null","","","null","16","","","","","","","","","","","","","","","",""
"","ISI","","html-keyboard-response","113","286105","0.0-1.0-147.0","0","0","64586","","412","","","75","16","k","","","","","","","","","","","","","","",""
"","S2","","html-keyboard-response","114","286263","0.0-1.0-148.0","0","0","64586","","null","","","null","16","","NaN","","","","","","","","","","","","","",""
"","response","","html-keyboard-response","115","286334","0.0-1.0-149.0-0.0","0","0","64586","","63","","","68","16","","","1","16","training","adjacent","EF","5","6","Q.jpg","N.jpg","1","1","1","",""
"","feedback","","html-keyboard-response","116","287341","0.0-1.0-150.0-0.0","0","0","64586","","null","","","null","16","","","","","","","","","","","","","","","",""
"","ITI","","html-keyboard-response","117","288349","0.0-1.0-153.0","0","0","64586","","null","","","null","16","","","","","","","","","","","","","","","NaN",""
"","S1","","html-keyboard-response","118","288507","0.0-1.0-155.0","0","0","64586","","null","","","null","17","","","","","","","","","","","","","","","",""
"","ISI","","html-keyboard-response","119","290514","0.0-1.0-156.0","0","0","64586","","null","","","null","17","NaN","","","","","","","","","","","","","","",""
"","S2","","html-keyboard-response","120","290672","0.0-1.0-157.0","0","0","64586","","null","","","null","17","","NaN","","","","","","","","","","","","","",""
"","response","","html-keyboard-response","121","290837","0.0-1.0-158.0-0.0","0","0","64586","","159","","","75","17","","","1","17","training","adjacent","ED","5","4","Q.jpg","P.jpg","0","0","1","",""
"","feedback","","html-keyboard-response","122","291845","0.0-1.0-159.0-0.0","0","0","64586","","null","","","null","17","","","","","","","","","","","","","","","",""
"","ITI","","html-keyboard-response","123","292852","0.0-1.0-162.0","0","0","64586","","null","","","null","17","","","","","","","","","","","","","","","NaN",""
"","S1","","html-keyboard-response","124","293010","0.0-1.0-164.0","0","0","64586","","null","","","null","18","","","","","","","","","","","","","","","",""
"","ISI","","html-keyboard-response","125","295016","0.0-1.0-165.0","0","0","64586","","null","","","null","18","NaN","","","","","","","","","","","","","","",""
"","S2","","html-keyboard-response","126","295174","0.0-1.0-166.0","0","0","64586","","null","","","null","18","","NaN","","","","","","","","","","","","","",""
"","response","","html-keyboard-response","127","295296","0.0-1.0-167.0-0.0","0","0","64586","","115","","","68","18","","","1","18","training","adjacent","ED","5","4","Q.jpg","P.jpg","1","0","0","",""
"","feedback","","html-keyboard-response","128","296304","0.0-1.0-168.0-0.0","0","0","64586","","null","","","null","18","","","","","","","","","","","","","","","",""
"","time_out","","html-keyboard-response","129","298312","0.0-1.0-170.0-0.0","0","0","64586","","null","","","null","18","","","","","","","","","","","","","","","",""
"","ITI","","html-keyboard-response","130","299320","0.0-1.0-171.0","0","0","64586","","null","","","null","18","","","","","","","","","","","","","","","NaN",""
"","S1","","html-keyboard-response","131","299476","0.0-1.0-173.0","0","0","64586","","null","","","null","19","","","","","","","","","","","","","","","",""
"","ISI","","html-keyboard-response","132","301483","0.0-1.0-174.0","0","0","64586","","287","","","75","19","k","","","","","","","","","","","","","","",""
"","S2","","html-keyboard-response","133","301640","0.0-1.0-175.0","0","0","64586","","null","","","null","19","","NaN","","","","","","","","","","","","","",""
"","response","","html-keyboard-response","134","301957","0.0-1.0-176.0-0.0","0","0","64586","","310","","","75","19","","","1","19","training","adjacent","EF","5","6","Q.jpg","N.jpg","0","1","0","",""
"","feedback","","html-keyboard-response","135","302965","0.0-1.0-177.0-0.0","0","0","64586","","null","","","null","19","","","","","","","","","","","","","","","",""
"","time_out","","html-keyboard-response","136","304972","0.0-1.0-179.0-0.0","0","0","64586","","null","","","null","19","","","","","","","","","","","","","","","",""
"","ITI","","html-keyboard-response","137","305978","0.0-1.0-180.0","0","0","64586","","null","","","null","19","","","","","","","","","","","","","","","NaN",""
"","S1","","html-keyboard-response","138","306135","0.0-1.0-182.0","0","0","64586","","null","","","null","20","","","","","","","","","","","","","","","",""
"","ISI","","html-keyboard-response","139","308142","0.0-1.0-183.0","0","0","64586","","258","","","75","20","k","","","","","","","","","","","","","","",""
"","S2","","html-keyboard-response","140","308299","0.0-1.0-184.0","0","0","64586","","null","","","null","20","","NaN","","","","","","","","","","","","","",""
"","response","","html-keyboard-response","141","308567","0.0-1.0-185.0-0.0","0","0","64586","","262","","","75","20","","","1","20","training","adjacent","CB","3","2","M.jpg","R.jpg","0","0","1","",""
"","feedback","","html-keyboard-response","142","309575","0.0-1.0-186.0-0.0","0","0","64586","","null","","","null","20","","","","","","","","","","","","","","","",""
"","ITI","","html-keyboard-response","143","310582","0.0-1.0-189.0","0","0","64586","","null","","","null","20","","","","","","","","","","","","","","","NaN",""
"","S1","","html-keyboard-response","144","310739","0.0-1.0-191.0","0","0","64586","","null","","","null","21","","","","","","","","","","","","","","","",""
"","ISI","","html-keyboard-response","145","312746","0.0-1.0-192.0","0","0","64586","","null","","","null","21","NaN","","","","","","","","","","","","","","",""
"","S2","","html-keyboard-response","146","312904","0.0-1.0-193.0","0","0","64586","","null","","","null","21","","NaN","","","","","","","","","","","","","",""
"","response","","html-keyboard-response","147","313980","0.0-1.0-194.0-0.0","0","0","64586","","1070","","","75","21","","","1","21","training","adjacent","ED","5","4","Q.jpg","P.jpg","0","0","1","",""
"","feedback","","html-keyboard-response","148","314988","0.0-1.0-195.0-0.0","0","0","64586","","null","","","null","21","","","","","","","","","","","","","","","",""
"","ITI","","html-keyboard-response","149","315995","0.0-1.0-198.0","0","0","64586","","null","","","null","21","","","","","","","","","","","","","","","NaN",""
"","S1","","html-keyboard-response","150","316152","0.0-1.0-200.0","0","0","64586","","null","","","null","22","","","","","","","","","","","","","","","",""
"","ISI","","html-keyboard-response","151","318158","0.0-1.0-201.0","0","0","64586","","null","","","null","22","NaN","","","","","","","","","","","","","","",""
"","S2","","html-keyboard-response","152","318316","0.0-1.0-202.0","0","0","64586","","null","","","null","22","","NaN","","","","","","","","","","","","","",""
"","response","","html-keyboard-response","153","318786","0.0-1.0-203.0-0.0","0","0","64586","","464","","","75","22","","","1","22","training","adjacent","GF","7","6","L.jpg","N.jpg","0","0","1","",""
"","feedback","","html-keyboard-response","154","319793","0.0-1.0-204.0-0.0","0","0","64586","","null","","","null","22","","","","","","","","","","","","","","","",""
"","ITI","","html-keyboard-response","155","320800","0.0-1.0-207.0","0","0","64586","","null","","","null","22","","","","","","","","","","","","","","","NaN",""
"","S1","","html-keyboard-response","156","320958","0.0-1.0-209.0","0","0","64586","","null","","","null","23","","","","","","","","","","","","","","","",""
"","ISI","","html-keyboard-response","157","322965","0.0-1.0-210.0","0","0","64586","","null","","","null","23","NaN","","","","","","","","","","","","","","",""
"","S2","","html-keyboard-response","158","323123","0.0-1.0-211.0","0","0","64586","","null","","","null","23","","NaN","","","","","","","","","","","","","",""
"","response","","html-keyboard-response","159","323248","0.0-1.0-212.0-0.0","0","0","64586","","119","","","75","23","","","1","23","training","adjacent","DE","4","5","P.jpg","Q.jpg","0","1","0","",""
"","feedback","","html-keyboard-response","160","324256","0.0-1.0-213.0-0.0","0","0","64586","","null","","","null","23","","","","","","","","","","","","","","","",""
"","time_out","","html-keyboard-response","161","326264","0.0-1.0-215.0-0.0","0","0","64586","","null","","","null","23","","","","","","","","","","","","","","","",""
"","ITI","","html-keyboard-response","162","327270","0.0-1.0-216.0","0","0","64586","","640","","","68","23","","","","","","","","","","","","","","","d",""
"","S1","","html-keyboard-response","163","327428","0.0-1.0-218.0","0","0","64586","","null","","","null","24","","","","","","","","","","","","","","","",""
"","ISI","","html-keyboard-response","164","329435","0.0-1.0-219.0","0","0","64586","","74","","","68","24","d","","","","","","","","","","","","","","",""
"","S2","","html-keyboard-response","165","329593","0.0-1.0-220.0","0","0","64586","","null","","","null","24","","NaN","","","","","","","","","","","","","",""
"","response","","html-keyboard-response","166","329651","0.0-1.0-221.0-0.0","0","0","64586","","52","","","68","24","","","1","24","training","adjacent","GF","7","6","L.jpg","N.jpg","1","0","0","",""
"","feedback","","html-keyboard-response","167","330658","0.0-1.0-222.0-0.0","0","0","64586","","null","","","null","24","","","","","","","","","","","","","","","",""
"","time_out","","html-keyboard-response","168","332677","0.0-1.0-224.0-0.0","0","0","64586","","null","","","null","24","","","","","","","","","","","","","","","",""
"","ITI","","html-keyboard-response","169","333685","0.0-1.0-225.0","0","0","64586","","null","","","null","24","","","","","","","","","","","","","","","NaN",""
"","S1","","html-keyboard-response","170","333842","0.0-1.0-227.0","0","0","64586","","null","","","null","25","","","","","","","","","","","","","","","",""
"","ISI","","html-keyboard-response","171","335848","0.0-1.0-228.0","0","0","64586","","407","","","75","25","k","","","","","","","","","","","","","","",""
"","S2","","html-keyboard-response","172","336006","0.0-1.0-229.0","0","0","64586","","null","","","null","25","","NaN","","","","","","","","","","","","","",""
"","response","","html-keyboard-response","173","336525","0.0-1.0-230.0-0.0","0","0","64586","","513","","","68","25","","","1","25","training","adjacent","FE","6","5","N.jpg","Q.jpg","1","0","0","",""
"","feedback","","html-keyboard-response","174","337533","0.0-1.0-231.0-0.0","0","0","64586","","null","","","null","25","","","","","","","","","","","","","","","",""
"","time_out","","html-keyboard-response","175","339539","0.0-1.0-233.0-0.0","0","0","64586","","null","","","null","25","","","","","","","","","","","","","","","",""
"","ITI","","html-keyboard-response","176","340546","0.0-1.0-234.0","0","0","64586","","null","","","null","25","","","","","","","","","","","","","","","NaN",""
"","S1","","html-keyboard-response","177","340704","0.0-1.0-236.0","0","0","64586","","null","","","null","26","","","","","","","","","","","","","","","",""
"","ISI","","html-keyboard-response","178","342708","0.0-1.0-237.0","0","0","64586","","133","","","75","26","k","","","","","","","","","","","","","","",""
"","S2","","html-keyboard-response","179","342865","0.0-1.0-238.0","0","0","64586","","null","","","null","26","","NaN","","","","","","","","","","","","","",""
"","response","","html-keyboard-response","180","342998","0.0-1.0-239.0-0.0","0","0","64586","","127","","","75","26","","","1","26","training","adjacent","FG","6","7","N.jpg","L.jpg","0","1","0","",""
"","feedback","","html-keyboard-response","181","344006","0.0-1.0-240.0-0.0","0","0","64586","","null","","","null","26","","","","","","","","","","","","","","","",""
"","time_out","","html-keyboard-response","182","346013","0.0-1.0-242.0-0.0","0","0","64586","","null","","","null","26","","","","","","","","","","","","","","","",""
"","ITI","","html-keyboard-response","183","347019","0.0-1.0-243.0","0","0","64586","","null","","","null","26","","","","","","","","","","","","","","","NaN",""
"","S1","","html-keyboard-response","184","347177","0.0-1.0-245.0","0","0","64586","","null","","","null","27","","","","","","","","","","","","","","","",""
"","ISI","","html-keyboard-response","185","349185","0.0-1.0-246.0","0","0","64586","","null","","","null","27","NaN","","","","","","","","","","","","","","",""
"","S2","","html-keyboard-response","186","349342","0.0-1.0-247.0","0","0","64586","","null","","","null","27","","NaN","","","","","","","","","","","","","",""
"","response","","html-keyboard-response","187","349533","0.0-1.0-248.0-0.0","0","0","64586","","184","","","68","27","","","1","27","training","adjacent","AB","1","2","O.jpg","R.jpg","1","1","1","",""
"","feedback","","html-keyboard-response","188","350540","0.0-1.0-249.0-0.0","0","0","64586","","null","","","null","27","","","","","","","","","","","","","","","",""
"","ITI","","html-keyboard-response","189","351548","0.0-1.0-252.0","0","0","64586","","null","","","null","27","","","","","","","","","","","","","","","NaN",""
"","S1","","html-keyboard-response","190","351705","0.0-1.0-254.0","0","0","64586","","null","","","null","28","","","","","","","","","","","","","","","",""
"","ISI","","html-keyboard-response","191","353713","0.0-1.0-255.0","0","0","64586","","null","","","null","28","NaN","","","","","","","","","","","","","","",""
"","S2","","html-keyboard-response","192","353870","0.0-1.0-256.0","0","0","64586","","null","","","null","28","","NaN","","","","","","","","","","","","","",""
"","response","","html-keyboard-response","193","354065","0.0-1.0-257.0-0.0","0","0","64586","","189","","","75","28","","","1","28","training","adjacent","FG","6","7","N.jpg","L.jpg","0","1","0","",""
"","feedback","","html-keyboard-response","194","355073","0.0-1.0-258.0-0.0","0","0","64586","","null","","","null","28","","","","","","","","","","","","","","","",""
"","time_out","","html-keyboard-response","195","357080","0.0-1.0-260.0-0.0","0","0","64586","","null","","","null","28","","","","","","","","","","","","","","","",""
"","ITI","","html-keyboard-response","196","358087","0.0-1.0-261.0","0","0","64586","","null","","","null","28","","","","","","","","","","","","","","","NaN",""
"","S1","","html-keyboard-response","197","358245","0.0-1.0-263.0","0","0","64586","","null","","","null","29","","","","","","","","","","","","","","","",""
"","ISI","","html-keyboard-response","198","360251","0.0-1.0-264.0","0","0","64586","","231","","","68","29","d","","","","","","","","","","","","","","",""
"","S2","","html-keyboard-response","199","360409","0.0-1.0-265.0","0","0","64586","","null","","","null","29","","NaN","","","","","","","","","","","","","",""
"","response","","html-keyboard-response","200","360520","0.0-1.0-266.0-0.0","0","0","64586","","104","","","68","29","","","1","29","training","adjacent","EF","5","6","Q.jpg","N.jpg","1","1","1","",""
"","feedback","","html-keyboard-response","201","361528","0.0-1.0-267.0-0.0","0","0","64586","","null","","","null","29","","","","","","","","","","","","","","","",""
"","ITI","","html-keyboard-response","202","362534","0.0-1.0-270.0","0","0","64586","","null","","","null","29","","","","","","","","","","","","","","","NaN",""
"","S1","","html-keyboard-response","203","362688","0.0-1.0-272.0","0","0","64586","","null","","","null","30","","","","","","","","","","","","","","","",""
"","ISI","","html-keyboard-response","204","364695","0.0-1.0-273.0","0","0","64586","","null","","","null","30","NaN","","","","","","","","","","","","","","",""
"","S2","","html-keyboard-response","205","364852","0.0-1.0-274.0","0","0","64586","","null","","","null","30","","NaN","","","","","","","","","","","","","",""
"","response","","html-keyboard-response","206","365263","0.0-1.0-275.0-0.0","0","0","64586","","404","","","68","30","","","1","30","training","adjacent","GF","7","6","L.jpg","N.jpg","1","0","0","",""
"","feedback","","html-keyboard-response","207","366270","0.0-1.0-276.0-0.0","0","0","64586","","null","","","null","30","","","","","","","","","","","","","","","",""
"","time_out","","html-keyboard-response","208","368278","0.0-1.0-278.0-0.0","0","0","64586","","null","","","null","30","","","","","","","","","","","","","","","",""
"","ITI","","html-keyboard-response","209","369285","0.0-1.0-279.0","0","0","64586","","null","","","null","30","","","","","","","","","","","","","","","NaN",""
"","S1","","html-keyboard-response","210","369442","0.0-1.0-281.0","0","0","64586","","null","","","null","31","","","","","","","","","","","","","","","",""
"","ISI","","html-keyboard-response","211","371449","0.0-1.0-282.0","0","0","64586","","null","","","null","31","NaN","","","","","","","","","","","","","","",""
"","S2","","html-keyboard-response","212","371607","0.0-1.0-283.0","0","0","64586","","null","","","null","31","","NaN","","","","","","","","","","","","","",""
"","response","","html-keyboard-response","213","371701","0.0-1.0-284.0-0.0","0","0","64586","","87","","","75","31","","","1","31","training","adjacent","FG","6","7","N.jpg","L.jpg","0","1","0","",""
"","feedback","","html-keyboard-response","214","372712","0.0-1.0-285.0-0.0","0","0","64586","","null","","","null","31","","","","","","","","","","","","","","","",""
"","time_out","","html-keyboard-response","215","374719","0.0-1.0-287.0-0.0","0","0","64586","","null","","","null","31","","","","","","","","","","","","","","","",""
"","ITI","","html-keyboard-response","216","375726","0.0-1.0-288.0","0","0","64586","","null","","","null","31","","","","","","","","","","","","","","","NaN",""
"","S1","","html-keyboard-response","217","375883","0.0-1.0-290.0","0","0","64586","","null","","","null","32","","","","","","","","","","","","","","","",""
"","ISI","","html-keyboard-response","218","377889","0.0-1.0-291.0","0","0","64586","","240","","","68","32","d","","","","","","","","","","","","","","",""
"","S2","","html-keyboard-response","219","378047","0.0-1.0-292.0","0","0","64586","","null","","","null","32","","NaN","","","","","","","","","","","","","",""
"","response","","html-keyboard-response","220","378364","0.0-1.0-293.0-0.0","0","0","64586","","312","","","68","32","","","1","32","training","adjacent","BA","2","1","R.jpg","O.jpg","1","0","0","",""
"","feedback","","html-keyboard-response","221","379372","0.0-1.0-294.0-0.0","0","0","64586","","null","","","null","32","","","","","","","","","","","","","","","",""
"","time_out","","html-keyboard-response","222","381379","0.0-1.0-296.0-0.0","0","0","64586","","null","","","null","32","","","","","","","","","","","","","","","",""
"","ITI","","html-keyboard-response","223","382385","0.0-1.0-297.0","0","0","64586","","null","","","null","32","","","","","","","","","","","","","","","NaN",""
"","S1","","html-keyboard-response","224","382544","0.0-1.0-299.0","0","0","64586","","null","","","null","33","","","","","","","","","","","","","","","",""
"","ISI","","html-keyboard-response","225","384550","0.0-1.0-300.0","0","0","64586","","307","","","75","33","k","","","","","","","","","","","","","","",""
"","S2","","html-keyboard-response","226","384708","0.0-1.0-301.0","0","0","64586","","null","","","null","33","","NaN","","","","","","","","","","","","","",""
"","response","","html-keyboard-response","227","384895","0.0-1.0-302.0-0.0","0","0","64586","","178","","","75","33","","","1","33","training","adjacent","BC","2","3","R.jpg","M.jpg","0","1","0","",""
"","feedback","","html-keyboard-response","228","385903","0.0-1.0-303.0-0.0","0","0","64586","","null","","","null","33","","","","","","","","","","","","","","","",""
"","time_out","","html-keyboard-response","229","387910","0.0-1.0-305.0-0.0","0","0","64586","","null","","","null","33","","","","","","","","","","","","","","","",""
"","ITI","","html-keyboard-response","230","388917","0.0-1.0-306.0","0","0","64586","","null","","","null","33","","","","","","","","","","","","","","","NaN",""
"","S1","","html-keyboard-response","231","389074","0.0-1.0-308.0","0","0","64586","","null","","","null","34","","","","","","","","","","","","","","","",""
"","ISI","","html-keyboard-response","232","391082","0.0-1.0-309.0","0","0","64586","","356","","","68","34","d","","","","","","","","","","","","","","",""
"","S2","","html-keyboard-response","233","391238","0.0-1.0-310.0","0","0","64586","","null","","","null","34","","NaN","","","","","","","","","","","","","",""
"","response","","html-keyboard-response","234","391339","0.0-1.0-311.0-0.0","0","0","64586","","95","","","68","34","","","1","34","training","adjacent","DC","4","3","P.jpg","M.jpg","1","0","0","",""
"","feedback","","html-keyboard-response","235","392348","0.0-1.0-312.0-0.0","0","0","64586","","null","","","null","34","","","","","","","","","","","","","","","",""
"","time_out","","html-keyboard-response","236","394355","0.0-1.0-314.0-0.0","0","0","64586","","null","","","null","34","","","","","","","","","","","","","","","",""
"","ITI","","html-keyboard-response","237","395364","0.0-1.0-315.0","0","0","64586","","null","","","null","34","","","","","","","","","","","","","","","NaN",""
"","S1","","html-keyboard-response","238","395522","0.0-1.0-317.0","0","0","64586","","null","","","null","35","","","","","","","","","","","","","","","",""
"","ISI","","html-keyboard-response","239","397528","0.0-1.0-318.0","0","0","64586","","null","","","null","35","NaN","","","","","","","","","","","","","","",""
"","S2","","html-keyboard-response","240","397685","0.0-1.0-319.0","0","0","64586","","null","","","null","35","","NaN","","","","","","","","","","","","","",""
"","response","","html-keyboard-response","241","397804","0.0-1.0-320.0-0.0","0","0","64586","","112","","","75","35","","","1","35","training","adjacent","EF","5","6","Q.jpg","N.jpg","0","1","0","",""
"","feedback","","html-keyboard-response","242","398812","0.0-1.0-321.0-0.0","0","0","64586","","null","","","null","35","","","","","","","","","","","","","","","",""
"","time_out","","html-keyboard-response","243","400818","0.0-1.0-323.0-0.0","0","0","64586","","null","","","null","35","","","","","","","","","","","","","","","",""
"","ITI","","html-keyboard-response","244","401822","0.0-1.0-324.0","0","0","64586","","null","","","null","35","","","","","","","","","","","","","","","NaN",""
"","S1","","html-keyboard-response","245","401980","0.0-1.0-326.0","0","0","64586","","null","","","null","36","","","","","","","","","","","","","","","",""
"","ISI","","html-keyboard-response","246","403986","0.0-1.0-327.0","0","0","64586","","null","","","null","36","NaN","","","","","","","","","","","","","","",""
"","S2","","html-keyboard-response","247","404144","0.0-1.0-328.0","0","0","64586","","null","","","null","36","","NaN","","","","","","","","","","","","","",""
"","response","","html-keyboard-response","248","404484","0.0-1.0-329.0-0.0","0","0","64586","","335","","","75","36","","","1","36","training","adjacent","FE","6","5","N.jpg","Q.jpg","0","0","1","",""
"","feedback","","html-keyboard-response","249","405492","0.0-1.0-330.0-0.0","0","0","64586","","null","","","null","36","","","","","","","","","","","","","","","",""
"","ITI","","html-keyboard-response","250","406499","0.0-1.0-333.0","0","0","64586","","null","","","null","36","","","","","","","","","","","","","","","NaN",""
"","S1","","html-keyboard-response","251","406670","0.0-1.0-335.0","0","0","64586","","null","","","null","37","","","","","","","","","","","","","","","",""
"","ISI","","html-keyboard-response","252","408677","0.0-1.0-336.0","0","0","64586","","null","","","null","37","NaN","","","","","","","","","","","","","","",""
"","S2","","html-keyboard-response","253","408836","0.0-1.0-337.0","0","0","64586","","null","","","null","37","","NaN","","","","","","","","","","","","","",""
"","response","","html-keyboard-response","254","409206","0.0-1.0-338.0-0.0","0","0","64586","","364","","","75","37","","","1","37","training","adjacent","BA","2","1","R.jpg","O.jpg","0","0","1","",""
"","feedback","","html-keyboard-response","255","410215","0.0-1.0-339.0-0.0","0","0","64586","","null","","","null","37","","","","","","","","","","","","","","","",""
"","ITI","","html-keyboard-response","256","411221","0.0-1.0-342.0","0","0","64586","","null","","","null","37","","","","","","","","","","","","","","","NaN",""
"","S1","","html-keyboard-response","257","411379","0.0-1.0-344.0","0","0","64586","","null","","","null","38","","","","","","","","","","","","","","","",""
"","ISI","","html-keyboard-response","258","413385","0.0-1.0-345.0","0","0","64586","","null","","","null","38","NaN","","","","","","","","","","","","","","",""
"","S2","","html-keyboard-response","259","413543","0.0-1.0-346.0","0","0","64586","","null","","","null","38","","NaN","","","","","","","","","","","","","",""
"","response","","html-keyboard-response","260","413638","0.0-1.0-347.0-0.0","0","0","64586","","89","","","68","38","","","1","38","training","adjacent","CD","3","4","M.jpg","P.jpg","1","1","1","",""
"","feedback","","html-keyboard-response","261","414646","0.0-1.0-348.0-0.0","0","0","64586","","null","","","null","38","","","","","","","","","","","","","","","",""
"","ITI","","html-keyboard-response","262","415653","0.0-1.0-351.0","0","0","64586","","null","","","null","38","","","","","","","","","","","","","","","NaN",""
"","S1","","html-keyboard-response","263","415811","0.0-1.0-353.0","0","0","64586","","null","","","null","39","","","","","","","","","","","","","","","",""
"","ISI","","html-keyboard-response","264","417817","0.0-1.0-354.0","0","0","64586","","null","","","null","39","NaN","","","","","","","","","","","","","","",""
"","S2","","html-keyboard-response","265","417988","0.0-1.0-355.0","0","0","64586","","null","","","null","39","","NaN","","","","","","","","","","","","","",""
"","response","","html-keyboard-response","266","418074","0.0-1.0-356.0-0.0","0","0","64586","","79","","","68","39","","","1","39","training","adjacent","CB","3","2","M.jpg","R.jpg","1","0","0","",""
"","feedback","","html-keyboard-response","267","419082","0.0-1.0-357.0-0.0","0","0","64586","","null","","","null","39","","","","","","","","","","","","","","","",""
"","time_out","","html-keyboard-response","268","421089","0.0-1.0-359.0-0.0","0","0","64586","","null","","","null","39","","","","","","","","","","","","","","","",""
"","ITI","","html-keyboard-response","269","422096","0.0-1.0-360.0","0","0","64586","","null","","","null","39","","","","","","","","","","","","","","","NaN",""
"","S1","","html-keyboard-response","270","422253","0.0-1.0-362.0","0","0","64586","","null","","","null","40","","","","","","","","","","","","","","","",""
"","ISI","","html-keyboard-response","271","424259","0.0-1.0-363.0","0","0","64586","","null","","","null","40","NaN","","","","","","","","","","","","","","",""
"","S2","","html-keyboard-response","272","424417","0.0-1.0-364.0","0","0","64586","","null","","","null","40","","NaN","","","","","","","","","","","","","",""
"","response","","html-keyboard-response","273","424528","0.0-1.0-365.0-0.0","0","0","64586","","105","","","75","40","","","1","40","training","adjacent","CD","3","4","M.jpg","P.jpg","0","1","0","",""
"","feedback","","html-keyboard-response","274","425536","0.0-1.0-366.0-0.0","0","0","64586","","null","","","null","40","","","","","","","","","","","","","","","",""
"","time_out","","html-keyboard-response","275","427543","0.0-1.0-368.0-0.0","0","0","64586","","null","","","null","40","","","","","","","","","","","","","","","",""
"","ITI","","html-keyboard-response","276","428550","0.0-1.0-369.0","0","0","64586","","null","","","null","40","","","","","","","","","","","","","","","NaN",""
"","S1","","html-keyboard-response","277","428706","0.0-1.0-371.0","0","0","64586","","null","","","null","41","","","","","","","","","","","","","","","",""
"","ISI","","html-keyboard-response","278","430711","0.0-1.0-372.0","0","0","64586","","null","","","null","41","NaN","","","","","","","","","","","","","","",""
"","S2","","html-keyboard-response","279","430867","0.0-1.0-373.0","0","0","64586","","null","","","null","41","","NaN","","","","","","","","","","","","","",""
"","response","","html-keyboard-response","280","431032","0.0-1.0-374.0-0.0","0","0","64586","","160","","","68","41","","","1","41","training","adjacent","ED","5","4","Q.jpg","P.jpg","1","0","0","",""
"","feedback","","html-keyboard-response","281","432039","0.0-1.0-375.0-0.0","0","0","64586","","null","","","null","41","","","","","","","","","","","","","","","",""
"","time_out","","html-keyboard-response","282","434045","0.0-1.0-377.0-0.0","0","0","64586","","null","","","null","41","","","","","","","","","","","","","","","",""
"","ITI","","html-keyboard-response","283","435051","0.0-1.0-378.0","0","0","64586","","null","","","null","41","","","","","","","","","","","","","","","NaN",""
"","S1","","html-keyboard-response","284","435210","0.0-1.0-380.0","0","0","64586","","null","","","null","42","","","","","","","","","","","","","","","",""
"","ISI","","html-keyboard-response","285","437216","0.0-1.0-381.0","0","0","64586","","null","","","null","42","NaN","","","","","","","","","","","","","","",""
"","S2","","html-keyboard-response","286","437374","0.0-1.0-382.0","0","0","64586","","null","","","null","42","","NaN","","","","","","","","","","","","","",""
"","response","","html-keyboard-response","287","437463","0.0-1.0-383.0-0.0","0","0","64586","","82","","","75","42","","","1","42","training","adjacent","BA","2","1","R.jpg","O.jpg","0","0","1","",""
"","feedback","","html-keyboard-response","288","438471","0.0-1.0-384.0-0.0","0","0","64586","","null","","","null","42","","","","","","","","","","","","","","","",""
"","ITI","","html-keyboard-response","289","439478","0.0-1.0-387.0","0","0","64586","","null","","","null","42","","","","","","","","","","","","","","","NaN",""
"","S1","","html-keyboard-response","290","439644","0.0-1.0-389.0","0","0","64586","","null","","","null","43","","","","","","","","","","","","","","","",""
"","ISI","","html-keyboard-response","291","441651","0.0-1.0-390.0","0","0","64586","","null","","","null","43","NaN","","","","","","","","","","","","","","",""
"","S2","","html-keyboard-response","292","441810","0.0-1.0-391.0","0","0","64586","","null","","","null","43","","NaN","","","","","","","","","","","","","",""
"","response","","html-keyboard-response","293","442264","0.0-1.0-392.0-0.0","0","0","64586","","448","","","75","43","","","1","43","training","adjacent","BC","2","3","R.jpg","M.jpg","0","1","0","",""
"","feedback","","html-keyboard-response","294","443271","0.0-1.0-393.0-0.0","0","0","64586","","null","","","null","43","","","","","","","","","","","","","","","",""
"","time_out","","html-keyboard-response","295","445279","0.0-1.0-395.0-0.0","0","0","64586","","null","","","null","43","","","","","","","","","","","","","","","",""
"","ITI","","html-keyboard-response","296","446285","0.0-1.0-396.0","0","0","64586","","null","","","null","43","","","","","","","","","","","","","","","NaN",""
"","S1","","html-keyboard-response","297","446443","0.0-1.0-398.0","0","0","64586","","null","","","null","44","","","","","","","","","","","","","","","",""
"","ISI","","html-keyboard-response","298","448449","0.0-1.0-399.0","0","0","64586","","null","","","null","44","NaN","","","","","","","","","","","","","","",""
"","S2","","html-keyboard-response","299","448608","0.0-1.0-400.0","0","0","64586","","null","","","null","44","","NaN","","","","","","","","","","","","","",""
"","response","","html-keyboard-response","300","448800","0.0-1.0-401.0-0.0","0","0","64586","","186","","","68","44","","","1","44","training","adjacent","FE","6","5","N.jpg","Q.jpg","1","0","0","",""
"","feedback","","html-keyboard-response","301","449809","0.0-1.0-402.0-0.0","0","0","64586","","null","","","null","44","","","","","","","","","","","","","","","",""
"","time_out","","html-keyboard-response","302","451816","0.0-1.0-404.0-0.0","0","0","64586","","null","","","null","44","","","","","","","","","","","","","","","",""
"","ITI","","html-keyboard-response","303","452823","0.0-1.0-405.0","0","0","64586","","null","","","null","44","","","","","","","","","","","","","","","NaN",""
"","S1","","html-keyboard-response","304","452980","0.0-1.0-407.0","0","0","64586","","null","","","null","45","","","","","","","","","","","","","","","",""
"","ISI","","html-keyboard-response","305","454987","0.0-1.0-408.0","0","0","64586","","null","","","null","45","NaN","","","","","","","","","","","","","","",""
"","S2","","html-keyboard-response","306","455144","0.0-1.0-409.0","0","0","64586","","null","","","null","45","","NaN","","","","","","","","","","","","","",""
"","response","","html-keyboard-response","307","455228","0.0-1.0-410.0-0.0","0","0","64586","","78","","","68","45","","","1","45","training","adjacent","GF","7","6","L.jpg","N.jpg","1","0","0","",""
"","feedback","","html-keyboard-response","308","456235","0.0-1.0-411.0-0.0","0","0","64586","","null","","","null","45","","","","","","","","","","","","","","","",""
"","time_out","","html-keyboard-response","309","458242","0.0-1.0-413.0-0.0","0","0","64586","","null","","","null","45","","","","","","","","","","","","","","","",""
"","ITI","","html-keyboard-response","310","459249","0.0-1.0-414.0","0","0","64586","","null","","","null","45","","","","","","","","","","","","","","","NaN",""
"","S1","","html-keyboard-response","311","459407","0.0-1.0-416.0","0","0","64586","","null","","","null","46","","","","","","","","","","","","","","","",""
"","ISI","","html-keyboard-response","312","461413","0.0-1.0-417.0","0","0","64586","","null","","","null","46","NaN","","","","","","","","","","","","","","",""
"","S2","","html-keyboard-response","313","461571","0.0-1.0-418.0","0","0","64586","","null","","","null","46","","NaN","","","","","","","","","","","","","",""
"","response","","html-keyboard-response","314","461842","0.0-1.0-419.0-0.0","0","0","64586","","264","","","75","46","","","1","46","training","adjacent","AB","1","2","O.jpg","R.jpg","0","1","0","",""
"","feedback","","html-keyboard-response","315","462850","0.0-1.0-420.0-0.0","0","0","64586","","null","","","null","46","","","","","","","","","","","","","","","",""
"","time_out","","html-keyboard-response","316","464857","0.0-1.0-422.0-0.0","0","0","64586","","null","","","null","46","","","","","","","","","","","","","","","",""
"","ITI","","html-keyboard-response","317","465864","0.0-1.0-423.0","0","0","64586","","null","","","null","46","","","","","","","","","","","","","","","NaN",""
"","S1","","html-keyboard-response","318","466020","0.0-1.0-425.0","0","0","64586","","null","","","null","47","","","","","","","","","","","","","","","",""
"","ISI","","html-keyboard-response","319","468027","0.0-1.0-426.0","0","0","64586","","null","","","null","47","NaN","","","","","","","","","","","","","","",""
"","S2","","html-keyboard-response","320","468184","0.0-1.0-427.0","0","0","64586","","null","","","null","47","","NaN","","","","","","","","","","","","","",""
"","response","","html-keyboard-response","321","468336","0.0-1.0-428.0-0.0","0","0","64586","","145","","","68","47","","","1","47","training","adjacent","DE","4","5","P.jpg","Q.jpg","1","1","1","",""
"","feedback","","html-keyboard-response","322","469344","0.0-1.0-429.0-0.0","0","0","64586","","null","","","null","47","","","","","","","","","","","","","","","",""
"","ITI","","html-keyboard-response","323","470350","0.0-1.0-432.0","0","0","64586","","null","","","null","47","","","","","","","","","","","","","","","NaN",""
"","block_over","","html-keyboard-response","324","476798","0.0-1.0-433.0-0.0","0","0","64586","","6440","","","32","47","","","","","","","","","","","","","","","",""
"","S1","","html-keyboard-response","325","476957","0.0-1.0-434.0","0","0","64586","","null","","","null","48","","","","","","","","","","","","","","","",""
"","ISI","","html-keyboard-response","326","478963","0.0-1.0-435.0","0","0","64586","","null","","","null","48","NaN","","","","","","","","","","","","","","",""
"","S2","","html-keyboard-response","327","479120","0.0-1.0-436.0","0","0","64586","","null","","","null","48","","NaN","","","","","","","","","","","","","",""
"","response","","html-keyboard-response","328","479701","0.0-1.0-437.0-0.0","0","0","64586","","574","","","68","48","","","2","48","training","adjacent","BC","2","3","R.jpg","M.jpg","1","1","1","",""
"","feedback","","html-keyboard-response","329","480710","0.0-1.0-438.0-0.0","0","0","64586","","null","","","null","48","","","","","","","","","","","","","","","",""
"","ITI","","html-keyboard-response","330","481717","0.0-1.0-441.0","0","0","64586","","null","","","null","48","","","","","","","","","","","","","","","NaN",""
"","S1","","html-keyboard-response","331","481875","0.0-1.0-443.0","0","0","64586","","null","","","null","49","","","","","","","","","","","","","","","",""
"","ISI","","html-keyboard-response","332","483895","0.0-1.0-444.0","0","0","64586","","null","","","null","49","NaN","","","","","","","","","","","","","","",""
"","S2","","html-keyboard-response","333","484053","0.0-1.0-445.0","0","0","64586","","null","","","null","49","","NaN","","","","","","","","","","","","","",""
"","response","","html-keyboard-response","334","484552","0.0-1.0-446.0-0.0","0","0","64586","","492","","","68","49","","","2","49","training","adjacent","BA","2","1","R.jpg","O.jpg","1","0","0","",""
"","feedback","","html-keyboard-response","335","485559","0.0-1.0-447.0-0.0","0","0","64586","","null","","","null","49","","","","","","","","","","","","","","","",""
"","time_out","","html-keyboard-response","336","487566","0.0-1.0-449.0-0.0","0","0","64586","","null","","","null","49","","","","","","","","","","","","","","","",""
"","ITI","","html-keyboard-response","337","488573","0.0-1.0-450.0","0","0","64586","","null","","","null","49","","","","","","","","","","","","","","","NaN",""
"","S1","","html-keyboard-response","338","488730","0.0-1.0-452.0","0","0","64586","","null","","","null","50","","","","","","","","","","","","","","","",""
"","ISI","","html-keyboard-response","339","490736","0.0-1.0-453.0","0","0","64586","","1715","","","68","50","d","","","","","","","","","","","","","","",""
"","S2","","html-keyboard-response","340","490894","0.0-1.0-454.0","0","0","64586","","null","","","null","50","","NaN","","","","","","","","","","","","","",""
"","response","","html-keyboard-response","341","491266","0.0-1.0-455.0-0.0","0","0","64586","","365","","","68","50","","","2","50","training","adjacent","ED","5","4","Q.jpg","P.jpg","1","0","0","",""
"","feedback","","html-keyboard-response","342","492274","0.0-1.0-456.0-0.0","0","0","64586","","null","","","null","50","","","","","","","","","","","","","","","",""
"","time_out","","html-keyboard-response","343","494281","0.0-1.0-458.0-0.0","0","0","64586","","null","","","null","50","","","","","","","","","","","","","","","",""
"","ITI","","html-keyboard-response","344","495289","0.0-1.0-459.0","0","0","64586","","null","","","null","50","","","","","","","","","","","","","","","NaN",""
"","S1","","html-keyboard-response","345","495447","0.0-1.0-461.0","0","0","64586","","null","","","null","51","","","","","","","","","","","","","","","",""
"","ISI","","html-keyboard-response","346","497454","0.0-1.0-462.0","0","0","64586","","140","","","75","51","k","","","","","","","","","","","","","","",""
"","S2","","html-keyboard-response","347","497612","0.0-1.0-463.0","0","0","64586","","null","","","null","51","","NaN","","","","","","","","","","","","","",""
"","response","","html-keyboard-response","348","497877","0.0-1.0-464.0-0.0","0","0","64586","","258","","","75","51","","","2","51","training","adjacent","FG","6","7","N.jpg","L.jpg","0","1","0","",""
"","feedback","","html-keyboard-response","349","498884","0.0-1.0-465.0-0.0","0","0","64586","","null","","","null","51","","","","","","","","","","","","","","","",""
"","time_out","","html-keyboard-response","350","500897","0.0-1.0-467.0-0.0","0","0","64586","","null","","","null","51","","","","","","","","","","","","","","","",""
"","ITI","","html-keyboard-response","351","501905","0.0-1.0-468.0","0","0","64586","","null","","","null","51","","","","","","","","","","","","","","","NaN",""
"","S1","","html-keyboard-response","352","502062","0.0-1.0-470.0","0","0","64586","","null","","","null","52","","","","","","","","","","","","","","","",""
"","ISI","","html-keyboard-response","353","504069","0.0-1.0-471.0","0","0","64586","","null","","","null","52","NaN","","","","","","","","","","","","","","",""
"","S2","","html-keyboard-response","354","504228","0.0-1.0-472.0","0","0","64586","","null","","","null","52","","NaN","","","","","","","","","","","","","",""
"","response","","html-keyboard-response","355","504886","0.0-1.0-473.0-0.0","0","0","64586","","652","","","68","52","","","2","52","training","adjacent","DC","4","3","P.jpg","M.jpg","1","0","0","",""
"","feedback","","html-keyboard-response","356","505895","0.0-1.0-474.0-0.0","0","0","64586","","null","","","null","52","","","","","","","","","","","","","","","",""
"","time_out","","html-keyboard-response","357","507902","0.0-1.0-476.0-0.0","0","0","64586","","null","","","null","52","","","","","","","","","","","","","","","",""
"","ITI","","html-keyboard-response","358","508909","0.0-1.0-477.0","0","0","64586","","null","","","null","52","","","","","","","","","","","","","","","NaN",""
"","S1","","html-keyboard-response","359","509066","0.0-1.0-479.0","0","0","64586","","null","","","null","53","","","","","","","","","","","","","","","",""
"","ISI","","html-keyboard-response","360","511074","0.0-1.0-480.0","0","0","64586","","1586","","","75","53","k","","","","","","","","","","","","","","",""
"","S2","","html-keyboard-response","361","511233","0.0-1.0-481.0","0","0","64586","","null","","","null","53","","NaN","","","","","","","","","","","","","",""
"","response","","html-keyboard-response","362","511261","0.0-1.0-482.0-0.0","0","0","64586","","23","","","75","53","","","2","53","training","adjacent","BA","2","1","R.jpg","O.jpg","0","0","1","",""
"","feedback","","html-keyboard-response","363","512269","0.0-1.0-483.0-0.0","0","0","64586","","null","","","null","53","","","","","","","","","","","","","","","",""
"","ITI","","html-keyboard-response","364","513277","0.0-1.0-486.0","0","0","64586","","null","","","null","53","","","","","","","","","","","","","","","NaN",""
"","S1","","html-keyboard-response","365","513434","0.0-1.0-488.0","0","0","64586","","null","","","null","54","","","","","","","","","","","","","","","",""
"","ISI","","html-keyboard-response","366","515439","0.0-1.0-489.0","0","0","64586","","null","","","null","54","NaN","","","","","","","","","","","","","","",""
"","S2","","html-keyboard-response","367","515595","0.0-1.0-490.0","0","0","64586","","null","","","null","54","","NaN","","","","","","","","","","","","","",""
"","response","","html-keyboard-response","368","516011","0.0-1.0-491.0-0.0","0","0","64586","","410","","","68","54","","","2","54","training","adjacent","GF","7","6","L.jpg","N.jpg","1","0","0","",""
"","feedback","","html-keyboard-response","369","517019","0.0-1.0-492.0-0.0","0","0","64586","","null","","","null","54","","","","","","","","","","","","","","","",""
"","time_out","","html-keyboard-response","370","519027","0.0-1.0-494.0-0.0","0","0","64586","","null","","","null","54","","","","","","","","","","","","","","","",""
"","ITI","","html-keyboard-response","371","520044","0.0-1.0-495.0","0","0","64586","","null","","","null","54","","","","","","","","","","","","","","","NaN",""
"","S1","","html-keyboard-response","372","520202","0.0-1.0-497.0","0","0","64586","","null","","","null","55","","","","","","","","","","","","","","","",""
"","ISI","","html-keyboard-response","373","522208","0.0-1.0-498.0","0","0","64586","","null","","","null","55","NaN","","","","","","","","","","","","","","",""
"","S2","","html-keyboard-response","374","522365","0.0-1.0-499.0","0","0","64586","","null","","","null","55","","NaN","","","","","","","","","","","","","",""
"","response","","html-keyboard-response","375","522817","0.0-1.0-500.0-0.0","0","0","64586","","446","","","75","55","","","2","55","training","adjacent","EF","5","6","Q.jpg","N.jpg","0","1","0","",""
"","feedback","","html-keyboard-response","376","523826","0.0-1.0-501.0-0.0","0","0","64586","","null","","","null","55","","","","","","","","","","","","","","","",""
"","time_out","","html-keyboard-response","377","525833","0.0-1.0-503.0-0.0","0","0","64586","","null","","","null","55","","","","","","","","","","","","","","","",""
"","ITI","","html-keyboard-response","378","526840","0.0-1.0-504.0","0","0","64586","","null","","","null","55","","","","","","","","","","","","","","","NaN",""
"","S1","","html-keyboard-response","379","526998","0.0-1.0-506.0","0","0","64586","","null","","","null","56","","","","","","","","","","","","","","","",""
"","ISI","","html-keyboard-response","380","529005","0.0-1.0-507.0","0","0","64586","","327","","","68","56","d","","","","","","","","","","","","","","",""
"","S2","","html-keyboard-response","381","529163","0.0-1.0-508.0","0","0","64586","","null","","","null","56","","NaN","","","","","","","","","","","","","",""
"","response","","html-keyboard-response","382","530451","0.0-1.0-509.0-0.0","0","0","64586","","1281","","","68","56","","","2","56","training","adjacent","AB","1","2","O.jpg","R.jpg","1","1","1","",""
"","feedback","","html-keyboard-response","383","531459","0.0-1.0-510.0-0.0","0","0","64586","","null","","","null","56","","","","","","","","","","","","","","","",""
"","ITI","","html-keyboard-response","384","532466","0.0-1.0-513.0","0","0","64586","","null","","","null","56","","","","","","","","","","","","","","","NaN",""
"","S1","","html-keyboard-response","385","532623","0.0-1.0-515.0","0","0","64586","","null","","","null","57","","","","","","","","","","","","","","","",""
"","ISI","","html-keyboard-response","386","534627","0.0-1.0-516.0","0","0","64586","","null","","","null","57","NaN","","","","","","","","","","","","","","",""
"","S2","","html-keyboard-response","387","534783","0.0-1.0-517.0","0","0","64586","","null","","","null","57","","NaN","","","","","","","","","","","","","",""
"","response","","html-keyboard-response","388","535177","0.0-1.0-518.0-0.0","0","0","64586","","387","","","75","57","","","2","57","training","adjacent","GF","7","6","L.jpg","N.jpg","0","0","1","",""
"","feedback","","html-keyboard-response","389","536186","0.0-1.0-519.0-0.0","0","0","64586","","null","","","null","57","","","","","","","","","","","","","","","",""
"","ITI","","html-keyboard-response","390","537193","0.0-1.0-522.0","0","0","64586","","null","","","null","57","","","","","","","","","","","","","","","NaN",""
"","S1","","html-keyboard-response","391","537350","0.0-1.0-524.0","0","0","64586","","null","","","null","58","","","","","","","","","","","","","","","",""
"","ISI","","html-keyboard-response","392","539355","0.0-1.0-525.0","0","0","64586","","null","","","null","58","NaN","","","","","","","","","","","","","","",""
"","S2","","html-keyboard-response","393","539513","0.0-1.0-526.0","0","0","64586","","null","","","null","58","","NaN","","","","","","","","","","","","","",""
"","response","","html-keyboard-response","394","539937","0.0-1.0-527.0-0.0","0","0","64586","","417","","","68","58","","","2","58","training","adjacent","GF","7","6","L.jpg","N.jpg","1","0","0","",""
"","feedback","","html-keyboard-response","395","540944","0.0-1.0-528.0-0.0","0","0","64586","","null","","","null","58","","","","","","","","","","","","","","","",""
"","time_out","","html-keyboard-response","396","542951","0.0-1.0-530.0-0.0","0","0","64586","","null","","","null","58","","","","","","","","","","","","","","","",""
"","ITI","","html-keyboard-response","397","543957","0.0-1.0-531.0","0","0","64586","","723","","","75","58","","","","","","","","","","","","","","","k",""
"","S1","","html-keyboard-response","398","544116","0.0-1.0-533.0","0","0","64586","","null","","","null","59","","","","","","","","","","","","","","","",""
"","ISI","","html-keyboard-response","399","546119","0.0-1.0-534.0","0","0","64586","","137","","","75","59","k","","","","","","","","","","","","","","",""
"","S2","","html-keyboard-response","400","546274","0.0-1.0-535.0","0","0","64586","","null","","","null","59","","NaN","","","","","","","","","","","","","",""
"","response","","html-keyboard-response","401","546551","0.0-1.0-536.0-0.0","0","0","64586","","273","","","75","59","","","2","59","training","adjacent","EF","5","6","Q.jpg","N.jpg","0","1","0","",""
"","feedback","","html-keyboard-response","402","547558","0.0-1.0-537.0-0.0","0","0","64586","","null","","","null","59","","","","","","","","","","","","","","","",""
"","time_out","","html-keyboard-response","403","549564","0.0-1.0-539.0-0.0","0","0","64586","","null","","","null","59","","","","","","","","","","","","","","","",""
"","ITI","","html-keyboard-response","404","550570","0.0-1.0-540.0","0","0","64586","","null","","","null","59","","","","","","","","","","","","","","","NaN",""
"","S1","","html-keyboard-response","405","550732","0.0-1.0-542.0","0","0","64586","","null","","","null","60","","","","","","","","","","","","","","","",""
"","ISI","","html-keyboard-response","406","552739","0.0-1.0-543.0","0","0","64586","","556","","","68","60","d","","","","","","","","","","","","","","",""
"","S2","","html-keyboard-response","407","552897","0.0-1.0-544.0","0","0","64586","","null","","","null","60","","NaN","","","","","","","","","","","","","",""
"","response","","html-keyboard-response","408","553217","0.0-1.0-545.0-0.0","0","0","64586","","313","","","68","60","","","2","60","training","adjacent","EF","5","6","Q.jpg","N.jpg","1","1","1","",""
"","feedback","","html-keyboard-response","409","554226","0.0-1.0-546.0-0.0","0","0","64586","","null","","","null","60","","","","","","","","","","","","","","","",""
"","ITI","","html-keyboard-response","410","555234","0.0-1.0-549.0","0","0","64586","","null","","","null","60","","","","","","","","","","","","","","","NaN",""
"","S1","","html-keyboard-response","411","555391","0.0-1.0-551.0","0","0","64586","","null","","","null","61","","","","","","","","","","","","","","","",""
"","ISI","","html-keyboard-response","412","557397","0.0-1.0-552.0","0","0","64586","","null","","","null","61","NaN","","","","","","","","","","","","","","",""
"","S2","","html-keyboard-response","413","557555","0.0-1.0-553.0","0","0","64586","","null","","","null","61","","NaN","","","","","","","","","","","","","",""
"","response","","html-keyboard-response","414","558025","0.0-1.0-554.0-0.0","0","0","64586","","463","","","75","61","","","2","61","training","adjacent","CD","3","4","M.jpg","P.jpg","0","1","0","",""
"","feedback","","html-keyboard-response","415","559032","0.0-1.0-555.0-0.0","0","0","64586","","null","","","null","61","","","","","","","","","","","","","","","",""
"","time_out","","html-keyboard-response","416","561039","0.0-1.0-557.0-0.0","0","0","64586","","null","","","null","61","","","","","","","","","","","","","","","",""
"","ITI","","html-keyboard-response","417","562046","0.0-1.0-558.0","0","0","64586","","null","","","null","61","","","","","","","","","","","","","","","NaN",""
"","S1","","html-keyboard-response","418","562204","0.0-1.0-560.0","0","0","64586","","null","","","null","62","","","","","","","","","","","","","","","",""
"","ISI","","html-keyboard-response","419","564210","0.0-1.0-561.0","0","0","64586","","null","","","null","62","NaN","","","","","","","","","","","","","","",""
"","S2","","html-keyboard-response","420","564368","0.0-1.0-562.0","0","0","64586","","null","","","null","62","","NaN","","","","","","","","","","","","","",""
"","response","","html-keyboard-response","421","564693","0.0-1.0-563.0-0.0","0","0","64586","","319","","","68","62","","","2","62","training","adjacent","CD","3","4","M.jpg","P.jpg","1","1","1","",""
"","feedback","","html-keyboard-response","422","565701","0.0-1.0-564.0-0.0","0","0","64586","","null","","","null","62","","","","","","","","","","","","","","","",""
"","ITI","","html-keyboard-response","423","566709","0.0-1.0-567.0","0","0","64586","","null","","","null","62","","","","","","","","","","","","","","","NaN",""
"","S1","","html-keyboard-response","424","566866","0.0-1.0-569.0","0","0","64586","","null","","","null","63","","","","","","","","","","","","","","","",""
"","ISI","","html-keyboard-response","425","568872","0.0-1.0-570.0","0","0","64586","","null","","","null","63","NaN","","","","","","","","","","","","","","",""
"","S2","","html-keyboard-response","426","569030","0.0-1.0-571.0","0","0","64586","","null","","","null","63","","NaN","","","","","","","","","","","","","",""
"","response","","html-keyboard-response","427","570886","0.0-1.0-572.0-0.0","0","0","64586","","null","","","null","63","","","2","63","training","adjacent","ED","5","4","Q.jpg","P.jpg","NaN","0","0","",""
"","too_slow_prompt","","html-keyboard-response","428","571893","0.0-1.0-574.0-0.0","1","0","64586","","null","","","null","","","","","","","","","","","","","","","","",""
"","time_out","","html-keyboard-response","429","573900","0.0-1.0-575.0-0.0","0","0","64586","","null","","","null","63","","","","","","","","","","","","","","","",""
"","ITI","","html-keyboard-response","430","574907","0.0-1.0-576.0","0","0","64586","","null","","","null","63","","","","","","","","","","","","","","","NaN",""
"","S1","","html-keyboard-response","431","575065","0.0-1.0-578.0","0","0","64586","","null","","","null","64","","","","","","","","","","","","","","","",""
"","ISI","","html-keyboard-response","432","577072","0.0-1.0-579.0","0","0","64586","","null","","","null","64","NaN","","","","","","","","","","","","","","",""
"","S2","","html-keyboard-response","433","577227","0.0-1.0-580.0","0","0","64586","","null","","","null","64","","NaN","","","","","","","","","","","","","",""
"","response","","html-keyboard-response","434","577875","0.0-1.0-581.0-0.0","0","0","64586","","643","","","68","64","","","2","64","training","adjacent","DC","4","3","P.jpg","M.jpg","1","0","0","",""
"","feedback","","html-keyboard-response","435","578884","0.0-1.0-582.0-0.0","0","0","64586","","null","","","null","64","","","","","","","","","","","","","","","",""
"","time_out","","html-keyboard-response","436","580891","0.0-1.0-584.0-0.0","0","0","64586","","null","","","null","64","","","","","","","","","","","","","","","",""
"","ITI","","html-keyboard-response","437","581898","0.0-1.0-585.0","0","0","64586","","318","","","75","64","","","","","","","","","","","","","","","k",""
"","S1","","html-keyboard-response","438","582056","0.0-1.0-587.0","0","0","64586","","null","","","null","65","","","","","","","","","","","","","","","",""
"","ISI","","html-keyboard-response","439","584062","0.0-1.0-588.0","0","0","64586","","312","","","75","65","k","","","","","","","","","","","","","","",""
"","S2","","html-keyboard-response","440","584220","0.0-1.0-589.0","0","0","64586","","null","","","null","65","","NaN","","","","","","","","","","","","","",""
"","response","","html-keyboard-response","441","584501","0.0-1.0-590.0-0.0","0","0","64586","","275","","","75","65","","","2","65","training","adjacent","FE","6","5","N.jpg","Q.jpg","0","0","1","",""
"","feedback","","html-keyboard-response","442","585509","0.0-1.0-591.0-0.0","0","0","64586","","null","","","null","65","","","","","","","","","","","","","","","",""
"","ITI","","html-keyboard-response","443","586519","0.0-1.0-594.0","0","0","64586","","null","","","null","65","","","","","","","","","","","","","","","NaN",""
"","S1","","html-keyboard-response","444","586676","0.0-1.0-596.0","0","0","64586","","null","","","null","66","","","","","","","","","","","","","","","",""
"","ISI","","html-keyboard-response","445","588683","0.0-1.0-597.0","0","0","64586","","null","","","null","66","NaN","","","","","","","","","","","","","","",""
"","S2","","html-keyboard-response","446","588840","0.0-1.0-598.0","0","0","64586","","null","","","null","66","","NaN","","","","","","","","","","","","","",""
"","response","","html-keyboard-response","447","589175","0.0-1.0-599.0-0.0","0","0","64586","","328","","","68","66","","","2","66","training","adjacent","DE","4","5","P.jpg","Q.jpg","1","1","1","",""
"","feedback","","html-keyboard-response","448","590185","0.0-1.0-600.0-0.0","0","0","64586","","null","","","null","66","","","","","","","","","","","","","","","",""
"","ITI","","html-keyboard-response","449","591192","0.0-1.0-603.0","0","0","64586","","923","","","75","66","","","","","","","","","","","","","","","k",""
"","S1","","html-keyboard-response","450","591352","0.0-1.0-605.0","0","0","64586","","null","","","null","67","","","","","","","","","","","","","","","",""
"","ISI","","html-keyboard-response","451","593362","0.0-1.0-606.0","0","0","64586","","989","","","75","67","k","","","","","","","","","","","","","","",""
"","S2","","html-keyboard-response","452","593520","0.0-1.0-607.0","0","0","64586","","null","","","null","67","","NaN","","","","","","","","","","","","","",""
"","response","","html-keyboard-response","453","593769","0.0-1.0-608.0-0.0","0","0","64586","","242","","","75","67","","","2","67","training","adjacent","DC","4","3","P.jpg","M.jpg","0","0","1","",""
"","feedback","","html-keyboard-response","454","594778","0.0-1.0-609.0-0.0","0","0","64586","","null","","","null","67","","","","","","","","","","","","","","","",""
"","ITI","","html-keyboard-response","455","595800","0.0-1.0-612.0","0","0","64586","","null","","","null","67","","","","","","","","","","","","","","","NaN",""
"","S1","","html-keyboard-response","456","595958","0.0-1.0-614.0","0","0","64586","","null","","","null","68","","","","","","","","","","","","","","","",""
"","ISI","","html-keyboard-response","457","597965","0.0-1.0-615.0","0","0","64586","","null","","","null","68","NaN","","","","","","","","","","","","","","",""
"","S2","","html-keyboard-response","458","598122","0.0-1.0-616.0","0","0","64586","","null","","","null","68","","NaN","","","","","","","","","","","","","",""
"","response","","html-keyboard-response","459","598653","0.0-1.0-617.0-0.0","0","0","64586","","524","","","68","68","","","2","68","training","adjacent","FE","6","5","N.jpg","Q.jpg","1","0","0","",""
"","feedback","","html-keyboard-response","460","599661","0.0-1.0-618.0-0.0","0","0","64586","","null","","","null","68","","","","","","","","","","","","","","","",""
"","time_out","","html-keyboard-response","461","601669","0.0-1.0-620.0-0.0","0","0","64586","","null","","","null","68","","","","","","","","","","","","","","","",""
"","ITI","","html-keyboard-response","462","602675","0.0-1.0-621.0","0","0","64586","","null","","","null","68","","","","","","","","","","","","","","","NaN",""
"","S1","","html-keyboard-response","463","602834","0.0-1.0-623.0","0","0","64586","","null","","","null","69","","","","","","","","","","","","","","","",""
"","ISI","","html-keyboard-response","464","604839","0.0-1.0-624.0","0","0","64586","","null","","","null","69","NaN","","","","","","","","","","","","","","",""
"","S2","","html-keyboard-response","465","604998","0.0-1.0-625.0","0","0","64586","","null","","","null","69","","NaN","","","","","","","","","","","","","",""
"","response","","html-keyboard-response","466","605394","0.0-1.0-626.0-0.0","0","0","64586","","389","","","75","69","","","2","69","training","adjacent","DE","4","5","P.jpg","Q.jpg","0","1","0","",""
"","feedback","","html-keyboard-response","467","606402","0.0-1.0-627.0-0.0","0","0","64586","","null","","","null","69","","","","","","","","","","","","","","","",""
"","time_out","","html-keyboard-response","468","608408","0.0-1.0-629.0-0.0","0","0","64586","","null","","","null","69","","","","","","","","","","","","","","","",""
"","ITI","","html-keyboard-response","469","609416","0.0-1.0-630.0","0","0","64586","","null","","","null","69","","","","","","","","","","","","","","","NaN",""
"","S1","","html-keyboard-response","470","609573","0.0-1.0-632.0","0","0","64586","","null","","","null","70","","","","","","","","","","","","","","","",""
"","ISI","","html-keyboard-response","471","611579","0.0-1.0-633.0","0","0","64586","","null","","","null","70","NaN","","","","","","","","","","","","","","",""
"","S2","","html-keyboard-response","472","611737","0.0-1.0-634.0","0","0","64586","","null","","","null","70","","NaN","","","","","","","","","","","","","",""
"","response","","html-keyboard-response","473","612030","0.0-1.0-635.0-0.0","0","0","64586","","285","","","68","70","","","2","70","training","adjacent","AB","1","2","O.jpg","R.jpg","1","1","1","",""
"","feedback","","html-keyboard-response","474","613040","0.0-1.0-636.0-0.0","0","0","64586","","null","","","null","70","","","","","","","","","","","","","","","",""
"","ITI","","html-keyboard-response","475","614048","0.0-1.0-639.0","0","0","64586","","null","","","null","70","","","","","","","","","","","","","","","NaN",""
"","S1","","html-keyboard-response","476","614205","0.0-1.0-641.0","0","0","64586","","null","","","null","71","","","","","","","","","","","","","","","",""
"","ISI","","html-keyboard-response","477","616212","0.0-1.0-642.0","0","0","64586","","1775","","","68","71","d","","","","","","","","","","","","","","",""
"","S2","","html-keyboard-response","478","616291","0.0-1.0-643.0","0","0","64586","","72","","","75","71","","k","2","71","training","adjacent","BC","2","3","R.jpg","M.jpg","0","1","0","",""
"","feedback","","html-keyboard-response","479","617300","0.0-1.0-645.0-0.0","0","0","64586","","null","","","null","71","","","","","","","","","","","","","","","",""
"","time_out","","html-keyboard-response","480","619308","0.0-1.0-647.0-0.0","0","0","64586","","null","","","null","71","","","","","","","","","","","","","","","",""
"","ITI","","html-keyboard-response","481","620315","0.0-1.0-648.0","0","0","64586","","null","","","null","71","","","","","","","","","","","","","","","NaN",""
"","S1","","html-keyboard-response","482","620472","0.0-1.0-650.0","0","0","64586","","null","","","null","72","","","","","","","","","","","","","","","",""
"","ISI","","html-keyboard-response","483","622479","0.0-1.0-651.0","0","0","64586","","477","","","75","72","k","","","","","","","","","","","","","","",""
"","S2","","html-keyboard-response","484","622638","0.0-1.0-652.0","0","0","64586","","null","","","null","72","","NaN","","","","","","","","","","","","","",""
"","response","","html-keyboard-response","485","622790","0.0-1.0-653.0-0.0","0","0","64586","","146","","","75","72","","","2","72","training","adjacent","FG","6","7","N.jpg","L.jpg","0","1","0","",""
"","feedback","","html-keyboard-response","486","623799","0.0-1.0-654.0-0.0","0","0","64586","","null","","","null","72","","","","","","","","","","","","","","","",""
"","time_out","","html-keyboard-response","487","625807","0.0-1.0-656.0-0.0","0","0","64586","","null","","","null","72","","","","","","","","","","","","","","","",""
"","ITI","","html-keyboard-response","488","626814","0.0-1.0-657.0","0","0","64586","","726","","","68","72","","","","","","","","","","","","","","","d",""
"","S1","","html-keyboard-response","489","626972","0.0-1.0-659.0","0","0","64586","","null","","","null","73","","","","","","","","","","","","","","","",""
"","ISI","","html-keyboard-response","490","628979","0.0-1.0-660.0","0","0","64586","","313","","","68","73","d","","","","","","","","","","","","","","",""
"","S2","","html-keyboard-response","491","629138","0.0-1.0-661.0","0","0","64586","","null","","","null","73","","NaN","","","","","","","","","","","","","",""
"","response","","html-keyboard-response","492","629389","0.0-1.0-662.0-0.0","0","0","64586","","246","","","75","73","","","2","73","training","adjacent","AB","1","2","O.jpg","R.jpg","0","1","0","",""
"","feedback","","html-keyboard-response","493","630398","0.0-1.0-663.0-0.0","0","0","64586","","null","","","null","73","","","","","","","","","","","","","","","",""
"","time_out","","html-keyboard-response","494","632405","0.0-1.0-665.0-0.0","0","0","64586","","null","","","null","73","","","","","","","","","","","","","","","",""
"","ITI","","html-keyboard-response","495","633412","0.0-1.0-666.0","0","0","64586","","null","","","null","73","","","","","","","","","","","","","","","NaN",""
"","S1","","html-keyboard-response","496","633569","0.0-1.0-668.0","0","0","64586","","null","","","null","74","","","","","","","","","","","","","","","",""
"","ISI","","html-keyboard-response","497","635576","0.0-1.0-669.0","0","0","64586","","251","","","75","74","k","","","","","","","","","","","","","","",""
"","S2","","html-keyboard-response","498","635734","0.0-1.0-670.0","0","0","64586","","null","","","null","74","","NaN","","","","","","","","","","","","","",""
"","response","","html-keyboard-response","499","635775","0.0-1.0-671.0-0.0","0","0","64586","","35","","","75","74","","","2","74","training","adjacent","CD","3","4","M.jpg","P.jpg","0","1","0","",""
"","feedback","","html-keyboard-response","500","636784","0.0-1.0-672.0-0.0","0","0","64586","","null","","","null","74","","","","","","","","","","","","","","","",""
"","time_out","","html-keyboard-response","501","638790","0.0-1.0-674.0-0.0","0","0","64586","","null","","","null","74","","","","","","","","","","","","","","","",""
"","ITI","","html-keyboard-response","502","639799","0.0-1.0-675.0","0","0","64586","","null","","","null","74","","","","","","","","","","","","","","","NaN",""
"","S1","","html-keyboard-response","503","639957","0.0-1.0-677.0","0","0","64586","","null","","","null","75","","","","","","","","","","","","","","","",""
"","ISI","","html-keyboard-response","504","641963","0.0-1.0-678.0","0","0","64586","","215","","","68","75","d","","","","","","","","","","","","","","",""
"","S2","","html-keyboard-response","505","642104","0.0-1.0-679.0","0","0","64586","","133","","","68","75","","d","2","75","training","adjacent","ED","5","4","Q.jpg","P.jpg","1","0","0","",""
"","feedback","","html-keyboard-response","506","643113","0.0-1.0-681.0-0.0","0","0","64586","","null","","","null","75","","","","","","","","","","","","","","","",""
"","time_out","","html-keyboard-response","507","645120","0.0-1.0-683.0-0.0","0","0","64586","","null","","","null","75","","","","","","","","","","","","","","","",""
"","ITI","","html-keyboard-response","508","646127","0.0-1.0-684.0","0","0","64586","","null","","","null","75","","","","","","","","","","","","","","","NaN",""
"","S1","","html-keyboard-response","509","646284","0.0-1.0-686.0","0","0","64586","","null","","","null","76","","","","","","","","","","","","","","","",""
"","ISI","","html-keyboard-response","510","648291","0.0-1.0-687.0","0","0","64586","","null","","","null","76","NaN","","","","","","","","","","","","","","",""
"","S2","","html-keyboard-response","511","648450","0.0-1.0-688.0","0","0","64586","","null","","","null","76","","NaN","","","","","","","","","","","","","",""
"","response","","html-keyboard-response","512","648758","0.0-1.0-689.0-0.0","0","0","64586","","302","","","75","76","","","2","76","training","adjacent","BC","2","3","R.jpg","M.jpg","0","1","0","",""
"","feedback","","html-keyboard-response","513","649766","0.0-1.0-690.0-0.0","0","0","64586","","null","","","null","76","","","","","","","","","","","","","","","",""
"","time_out","","html-keyboard-response","514","651774","0.0-1.0-692.0-0.0","0","0","64586","","null","","","null","76","","","","","","","","","","","","","","","",""
"","ITI","","html-keyboard-response","515","652782","0.0-1.0-693.0","0","0","64586","","null","","","null","76","","","","","","","","","","","","","","","NaN",""
"","S1","","html-keyboard-response","516","652940","0.0-1.0-695.0","0","0","64586","","null","","","null","77","","","","","","","","","","","","","","","",""
"","ISI","","html-keyboard-response","517","654945","0.0-1.0-696.0","0","0","64586","","259","","","68","77","d","","","","","","","","","","","","","","",""
"","S2","","html-keyboard-response","518","655103","0.0-1.0-697.0","0","0","64586","","null","","","null","77","","NaN","","","","","","","","","","","","","",""
"","response","","html-keyboard-response","519","655408","0.0-1.0-698.0-0.0","0","0","64586","","298","","","68","77","","","2","77","training","adjacent","GF","7","6","L.jpg","N.jpg","1","0","0","",""
"","feedback","","html-keyboard-response","520","656416","0.0-1.0-699.0-0.0","0","0","64586","","null","","","null","77","","","","","","","","","","","","","","","",""
"","time_out","","html-keyboard-response","521","658424","0.0-1.0-701.0-0.0","0","0","64586","","null","","","null","77","","","","","","","","","","","","","","","",""
"","ITI","","html-keyboard-response","522","659432","0.0-1.0-702.0","0","0","64586","","null","","","null","77","","","","","","","","","","","","","","","NaN",""
"","S1","","html-keyboard-response","523","659589","0.0-1.0-704.0","0","0","64586","","null","","","null","78","","","","","","","","","","","","","","","",""
"","ISI","","html-keyboard-response","524","661596","0.0-1.0-705.0","0","0","64586","","null","","","null","78","NaN","","","","","","","","","","","","","","",""
"","S2","","html-keyboard-response","525","661753","0.0-1.0-706.0","0","0","64586","","null","","","null","78","","NaN","","","","","","","","","","","","","",""
"","response","","html-keyboard-response","526","662087","0.0-1.0-707.0-0.0","0","0","64586","","328","","","68","78","","","2","78","training","adjacent","CD","3","4","M.jpg","P.jpg","1","1","1","",""
"","feedback","","html-keyboard-response","527","663097","0.0-1.0-708.0-0.0","0","0","64586","","null","","","null","78","","","","","","","","","","","","","","","",""
"","ITI","","html-keyboard-response","528","664104","0.0-1.0-711.0","0","0","64586","","null","","","null","78","","","","","","","","","","","","","","","NaN",""
"","S1","","html-keyboard-response","529","664261","0.0-1.0-713.0","0","0","64586","","null","","","null","79","","","","","","","","","","","","","","","",""
"","ISI","","html-keyboard-response","530","666269","0.0-1.0-714.0","0","0","64586","","null","","","null","79","NaN","","","","","","","","","","","","","","",""
"","S2","","html-keyboard-response","531","666427","0.0-1.0-715.0","0","0","64586","","null","","","null","79","","NaN","","","","","","","","","","","","","",""
"","response","","html-keyboard-response","532","666857","0.0-1.0-716.0-0.0","0","0","64586","","424","","","75","79","","","2","79","training","adjacent","CB","3","2","M.jpg","R.jpg","0","0","1","",""
"","feedback","","html-keyboard-response","533","667866","0.0-1.0-717.0-0.0","0","0","64586","","null","","","null","79","","","","","","","","","","","","","","","",""
"","ITI","","html-keyboard-response","534","668873","0.0-1.0-720.0","0","0","64586","","null","","","null","79","","","","","","","","","","","","","","","NaN",""
"","S1","","html-keyboard-response","535","669031","0.0-1.0-722.0","0","0","64586","","null","","","null","80","","","","","","","","","","","","","","","",""
"","ISI","","html-keyboard-response","536","671039","0.0-1.0-723.0","0","0","64586","","null","","","null","80","NaN","","","","","","","","","","","","","","",""
"","S2","","html-keyboard-response","537","671198","0.0-1.0-724.0","0","0","64586","","null","","","null","80","","NaN","","","","","","","","","","","","","",""
"","response","","html-keyboard-response","538","672333","0.0-1.0-725.0-0.0","0","0","64586","","1129","","","75","80","","","2","80","training","adjacent","FG","6","7","N.jpg","L.jpg","0","1","0","",""
"","feedback","","html-keyboard-response","539","673341","0.0-1.0-726.0-0.0","0","0","64586","","null","","","null","80","","","","","","","","","","","","","","","",""
"","time_out","","html-keyboard-response","540","675349","0.0-1.0-728.0-0.0","0","0","64586","","null","","","null","80","","","","","","","","","","","","","","","",""
"","ITI","","html-keyboard-response","541","676356","0.0-1.0-729.0","0","0","64586","","null","","","null","80","","","","","","","","","","","","","","","NaN",""
"","S1","","html-keyboard-response","542","676514","0.0-1.0-731.0","0","0","64586","","null","","","null","81","","","","","","","","","","","","","","","",""
"","ISI","","html-keyboard-response","543","678520","0.0-1.0-732.0","0","0","64586","","null","","","null","81","NaN","","","","","","","","","","","","","","",""
"","S2","","html-keyboard-response","544","678679","0.0-1.0-733.0","0","0","64586","","null","","","null","81","","NaN","","","","","","","","","","","","","",""
"","response","","html-keyboard-response","545","679111","0.0-1.0-734.0-0.0","0","0","64586","","426","","","68","81","","","2","81","training","adjacent","CB","3","2","M.jpg","R.jpg","1","0","0","",""
"","feedback","","html-keyboard-response","546","680120","0.0-1.0-735.0-0.0","0","0","64586","","null","","","null","81","","","","","","","","","","","","","","","",""
"","time_out","","html-keyboard-response","547","682126","0.0-1.0-737.0-0.0","0","0","64586","","null","","","null","81","","","","","","","","","","","","","","","",""
"","ITI","","html-keyboard-response","548","683132","0.0-1.0-738.0","0","0","64586","","null","","","null","81","","","","","","","","","","","","","","","NaN",""
"","S1","","html-keyboard-response","549","683289","0.0-1.0-740.0","0","0","64586","","null","","","null","82","","","","","","","","","","","","","","","",""
"","ISI","","html-keyboard-response","550","685296","0.0-1.0-741.0","0","0","64586","","null","","","null","82","NaN","","","","","","","","","","","","","","",""
"","S2","","html-keyboard-response","551","685454","0.0-1.0-742.0","0","0","64586","","null","","","null","82","","NaN","","","","","","","","","","","","","",""
"","response","","html-keyboard-response","552","685791","0.0-1.0-743.0-0.0","0","0","64586","","330","","","75","82","","","2","82","training","adjacent","DC","4","3","P.jpg","M.jpg","0","0","1","",""
"","feedback","","html-keyboard-response","553","686799","0.0-1.0-744.0-0.0","0","0","64586","","null","","","null","82","","","","","","","","","","","","","","","",""
"","ITI","","html-keyboard-response","554","687808","0.0-1.0-747.0","0","0","64586","","null","","","null","82","","","","","","","","","","","","","","","NaN",""
"","S1","","html-keyboard-response","555","687965","0.0-1.0-749.0","0","0","64586","","null","","","null","83","","","","","","","","","","","","","","","",""
"","ISI","","html-keyboard-response","556","689971","0.0-1.0-750.0","0","0","64586","","null","","","null","83","NaN","","","","","","","","","","","","","","",""
"","S2","","html-keyboard-response","557","690130","0.0-1.0-751.0","0","0","64586","","null","","","null","83","","NaN","","","","","","","","","","","","","",""
"","response","","html-keyboard-response","558","690480","0.0-1.0-752.0-0.0","0","0","64586","","342","","","75","83","","","2","83","training","adjacent","CB","3","2","M.jpg","R.jpg","0","0","1","",""
"","feedback","","html-keyboard-response","559","691489","0.0-1.0-753.0-0.0","0","0","64586","","null","","","null","83","","","","","","","","","","","","","","","",""
"","ITI","","html-keyboard-response","560","692497","0.0-1.0-756.0","0","0","64586","","null","","","null","83","","","","","","","","","","","","","","","NaN",""
"","S1","","html-keyboard-response","561","692654","0.0-1.0-758.0","0","0","64586","","null","","","null","84","","","","","","","","","","","","","","","",""
"","ISI","","html-keyboard-response","562","694660","0.0-1.0-759.0","0","0","64586","","null","","","null","84","NaN","","","","","","","","","","","","","","",""
"","S2","","html-keyboard-response","563","694818","0.0-1.0-760.0","0","0","64586","","null","","","null","84","","NaN","","","","","","","","","","","","","",""
"","response","","html-keyboard-response","564","695382","0.0-1.0-761.0-0.0","0","0","64586","","558","","","68","84","","","2","84","training","adjacent","FE","6","5","N.jpg","Q.jpg","1","0","0","",""
"","feedback","","html-keyboard-response","565","696390","0.0-1.0-762.0-0.0","0","0","64586","","null","","","null","84","","","","","","","","","","","","","","","",""
"","time_out","","html-keyboard-response","566","698399","0.0-1.0-764.0-0.0","0","0","64586","","null","","","null","84","","","","","","","","","","","","","","","",""
"","ITI","","html-keyboard-response","567","699405","0.0-1.0-765.0","0","0","64586","","818","","","68","84","","","","","","","","","","","","","","","d",""
"","S1","","html-keyboard-response","568","699564","0.0-1.0-767.0","0","0","64586","","null","","","null","85","","","","","","","","","","","","","","","",""
"","ISI","","html-keyboard-response","569","701570","0.0-1.0-768.0","0","0","64586","","736","","","68","85","d","","","","","","","","","","","","","","",""
"","S2","","html-keyboard-response","570","701729","0.0-1.0-769.0","0","0","64586","","null","","","null","85","","NaN","","","","","","","","","","","","","",""
"","response","","html-keyboard-response","571","702401","0.0-1.0-770.0-0.0","0","0","64586","","667","","","75","85","","","2","85","training","adjacent","DE","4","5","P.jpg","Q.jpg","0","1","0","",""
"","feedback","","html-keyboard-response","572","703410","0.0-1.0-771.0-0.0","0","0","64586","","null","","","null","85","","","","","","","","","","","","","","","",""
"","time_out","","html-keyboard-response","573","705425","0.0-1.0-773.0-0.0","0","0","64586","","null","","","null","85","","","","","","","","","","","","","","","",""
"","ITI","","html-keyboard-response","574","706432","0.0-1.0-774.0","0","0","64586","","null","","","null","85","","","","","","","","","","","","","","","NaN",""
"","S1","","html-keyboard-response","575","706589","0.0-1.0-776.0","0","0","64586","","null","","","null","86","","","","","","","","","","","","","","","",""
"","ISI","","html-keyboard-response","576","708596","0.0-1.0-777.0","0","0","64586","","1868","","","75","86","k","","","","","","","","","","","","","","",""
"","S2","","html-keyboard-response","577","708754","0.0-1.0-778.0","0","0","64586","","null","","","null","86","","NaN","","","","","","","","","","","","","",""
"","response","","html-keyboard-response","578","709006","0.0-1.0-779.0-0.0","0","0","64586","","246","","","75","86","","","2","86","training","adjacent","BA","2","1","R.jpg","O.jpg","0","0","1","",""
"","feedback","","html-keyboard-response","579","710014","0.0-1.0-780.0-0.0","0","0","64586","","null","","","null","86","","","","","","","","","","","","","","","",""
"","ITI","","html-keyboard-response","580","711020","0.0-1.0-783.0","0","0","64586","","null","","","null","86","","","","","","","","","","","","","","","NaN",""
"","S1","","html-keyboard-response","581","711187","0.0-1.0-785.0","0","0","64586","","null","","","null","87","","","","","","","","","","","","","","","",""
