"success","ttype","start_time","trial_type","trial_index","time_elapsed","internal_node_id","warning","missed_checkup","PID","view_history","rt","responses","repeat_instructions","key_press","index","keypress_isi","keypress_S2","block","trial_num","phase","group_type","pair_type","S1_stim","S2_stim","S1_img","S2_img","S1_chosen","S1_higher","accuracy","keypress_iti","total_bonus_tally"
"true","full_screen","d04062023hr2227","fullscreen","0","17605","0.0-0.0","0","0","18668","","","","","","","","","","","","","","","","","","","","","",""
"","instructions","","instructions","1","43377","0.0-1.0-0.0-0.0","0","0","18668","[{""page_index"":0,""viewing_time"":3062},{""page_index"":1,""viewing_time"":12182},{""page_index"":2,""viewing_time"":8955},{""page_index"":3,""viewing_time"":1569}]","25769","","","","","","","","","","","","","","","","","","","",""
"","comprehension_check","","survey-multi-choice","2","60745","0.0-1.0-0.0-1.0","0","0","18668","","17364","{""Q0"":""True"",""Q1"":""D"",""Q2"":""Once the second image appears and while the screen 'MAKE A CHOICE' is shown"",""Q3"":""Green mark"",""Q4"":""either D or K""}","0","","","","","","","","","","","","","","","","","",""
"","start_exp","","html-keyboard-response","3","62856","0.0-1.0-1.0","0","0","18668","","2106","","","32","","","","","","","","","","","","","","","","",""
"","S1","","html-keyboard-response","4","63027","0.0-1.0-2.0","0","0","18668","","null","","","null","0","","","","","","","","","","","","","","","",""
"","ISI","","html-keyboard-response","5","65037","0.0-1.0-3.0","0","0","18668","","null","","","null","0","NaN","","","","","","","","","","","","","","",""
"","S2","","html-keyboard-response","6","65204","0.0-1.0-4.0","0","0","18668","","null","","","null","0","","NaN","","","","","","","","","","","","","",""
"","response","","html-keyboard-response","7","65724","0.0-1.0-5.0-0.0","0","0","18668","","515","","","68","0","","","1","0","training","adjacent","FE","6","5","M.jpg","N.jpg","1","0","0","",""
"","feedback","","html-keyboard-response","8","66737","0.0-1.0-6.0-0.0","0","0","18668","","null","","","null","0","","","","","","","","","","","","","","","",""
"","time_out","","html-keyboard-response","9","68740","0.0-1.0-8.0-0.0","0","0","18668","","null","","","null","0","","","","","","","","","","","","","","","",""
"","ITI","","html-keyboard-response","10","69751","0.0-1.0-9.0","0","0","18668","","null","","","null","0","","","","","","","","","","","","","","","NaN",""
"","S1","","html-keyboard-response","11","69921","0.0-1.0-11.0","0","0","18668","","null","","","null","1","","","","","","","","","","","","","","","",""
"","ISI","","html-keyboard-response","12","71928","0.0-1.0-12.0","0","0","18668","","null","","","null","1","NaN","","","","","","","","","","","","","","",""
"","S2","","html-keyboard-response","13","72088","0.0-1.0-13.0","0","0","18668","","null","","","null","1","","NaN","","","","","","","","","","","","","",""
"","response","","html-keyboard-response","14","72659","0.0-1.0-14.0-0.0","0","0","18668","","567","","","75","1","","","1","1","training","adjacent","GF","7","6","L.jpg","M.jpg","0","0","1","",""
"","feedback","","html-keyboard-response","15","73667","0.0-1.0-15.0-0.0","0","0","18668","","null","","","null","1","","","","","","","","","","","","","","","",""
"","ITI","","html-keyboard-response","16","74684","0.0-1.0-18.0","0","0","18668","","null","","","null","1","","","","","","","","","","","","","","","NaN",""
"","S1","","html-keyboard-response","17","74842","0.0-1.0-20.0","0","0","18668","","null","","","null","2","","","","","","","","","","","","","","","",""
"","ISI","","html-keyboard-response","18","76852","0.0-1.0-21.0","0","0","18668","","null","","","null","2","NaN","","","","","","","","","","","","","","",""
"","S2","","html-keyboard-response","19","77021","0.0-1.0-22.0","0","0","18668","","null","","","null","2","","NaN","","","","","","","","","","","","","",""
"","response","","html-keyboard-response","20","77705","0.0-1.0-23.0-0.0","0","0","18668","","680","","","75","2","","","1","2","training","adjacent","BC","2","3","Q.jpg","O.jpg","0","1","0","",""
"","feedback","","html-keyboard-response","21","78713","0.0-1.0-24.0-0.0","0","0","18668","","null","","","null","2","","","","","","","","","","","","","","","",""
"","time_out","","html-keyboard-response","22","80719","0.0-1.0-26.0-0.0","0","0","18668","","null","","","null","2","","","","","","","","","","","","","","","",""
"","ITI","","html-keyboard-response","23","81730","0.0-1.0-27.0","0","0","18668","","null","","","null","2","","","","","","","","","","","","","","","NaN",""
"","S1","","html-keyboard-response","24","81889","0.0-1.0-29.0","0","0","18668","","null","","","null","3","","","","","","","","","","","","","","","",""
"","ISI","","html-keyboard-response","25","83900","0.0-1.0-30.0","0","0","18668","","null","","","null","3","NaN","","","","","","","","","","","","","","",""
"","S2","","html-keyboard-response","26","84063","0.0-1.0-31.0","0","0","18668","","null","","","null","3","","NaN","","","","","","","","","","","","","",""
"","response","","html-keyboard-response","27","84532","0.0-1.0-32.0-0.0","0","0","18668","","465","","","68","3","","","1","3","training","adjacent","FE","6","5","M.jpg","N.jpg","1","0","0","",""
"","feedback","","html-keyboard-response","28","85536","0.0-1.0-33.0-0.0","0","0","18668","","null","","","null","3","","","","","","","","","","","","","","","",""
"","time_out","","html-keyboard-response","29","87549","0.0-1.0-35.0-0.0","0","0","18668","","null","","","null","3","","","","","","","","","","","","","","","",""
"","ITI","","html-keyboard-response","30","88559","0.0-1.0-36.0","0","0","18668","","null","","","null","3","","","","","","","","","","","","","","","NaN",""
"","S1","","html-keyboard-response","31","88727","0.0-1.0-38.0","0","0","18668","","null","","","null","4","","","","","","","","","","","","","","","",""
"","ISI","","html-keyboard-response","32","90747","0.0-1.0-39.0","0","0","18668","","null","","","null","4","NaN","","","","","","","","","","","","","","",""
"","S2","","html-keyboard-response","33","90909","0.0-1.0-40.0","0","0","18668","","null","","","null","4","","NaN","","","","","","","","","","","","","",""
"","response","","html-keyboard-response","34","91573","0.0-1.0-41.0-0.0","0","0","18668","","661","","","75","4","","","1","4","training","adjacent","FG","6","7","M.jpg","L.jpg","0","1","0","",""
"","feedback","","html-keyboard-response","35","92585","0.0-1.0-42.0-0.0","0","0","18668","","null","","","null","4","","","","","","","","","","","","","","","",""
"","time_out","","html-keyboard-response","36","94589","0.0-1.0-44.0-0.0","0","0","18668","","null","","","null","4","","","","","","","","","","","","","","","",""
"","ITI","","html-keyboard-response","37","95593","0.0-1.0-45.0","0","0","18668","","null","","","null","4","","","","","","","","","","","","","","","NaN",""
"","S1","","html-keyboard-response","38","95749","0.0-1.0-47.0","0","0","18668","","null","","","null","5","","","","","","","","","","","","","","","",""
"","ISI","","html-keyboard-response","39","97754","0.0-1.0-48.0","0","0","18668","","null","","","null","5","NaN","","","","","","","","","","","","","","",""
"","S2","","html-keyboard-response","40","97915","0.0-1.0-49.0","0","0","18668","","null","","","null","5","","NaN","","","","","","","","","","","","","",""
"","response","","html-keyboard-response","41","98730","0.0-1.0-50.0-0.0","0","0","18668","","811","","","68","5","","","1","5","training","adjacent","EF","5","6","N.jpg","M.jpg","1","1","1","",""
"","feedback","","html-keyboard-response","42","99743","0.0-1.0-51.0-0.0","0","0","18668","","null","","","null","5","","","","","","","","","","","","","","","",""
"","ITI","","html-keyboard-response","43","100746","0.0-1.0-54.0","0","0","18668","","null","","","null","5","","","","","","","","","","","","","","","NaN",""
"","S1","","html-keyboard-response","44","100912","0.0-1.0-56.0","0","0","18668","","null","","","null","6","","","","","","","","","","","","","","","",""
"","ISI","","html-keyboard-response","45","102921","0.0-1.0-57.0","0","0","18668","","null","","","null","6","NaN","","","","","","","","","","","","","","",""
"","S2","","html-keyboard-response","46","103091","0.0-1.0-58.0","0","0","18668","","null","","","null","6","","NaN","","","","","","","","","","","","","",""
"","response","","html-keyboard-response","47","103954","0.0-1.0-59.0-0.0","0","0","18668","","860","","","75","6","","","1","6","training","adjacent","ED","5","4","N.jpg","R.jpg","0","0","1","",""
"","feedback","","html-keyboard-response","48","104966","0.0-1.0-60.0-0.0","0","0","18668","","null","","","null","6","","","","","","","","","","","","","","","",""
"","ITI","","html-keyboard-response","49","105986","0.0-1.0-63.0","0","0","18668","","null","","","null","6","","","","","","","","","","","","","","","NaN",""
"","S1","","html-keyboard-response","50","106147","0.0-1.0-65.0","0","0","18668","","null","","","null","7","","","","","","","","","","","","","","","",""
"","ISI","","html-keyboard-response","51","108155","0.0-1.0-66.0","0","0","18668","","null","","","null","7","NaN","","","","","","","","","","","","","","",""
"","S2","","html-keyboard-response","52","108316","0.0-1.0-67.0","0","0","18668","","null","","","null","7","","NaN","","","","","","","","","","","","","",""
"","response","","html-keyboard-response","53","108841","0.0-1.0-68.0-0.0","0","0","18668","","521","","","75","7","","","1","7","training","adjacent","BA","2","1","Q.jpg","P.jpg","0","0","1","",""
"","feedback","","html-keyboard-response","54","109851","0.0-1.0-69.0-0.0","0","0","18668","","null","","","null","7","","","","","","","","","","","","","","","",""
"","ITI","","html-keyboard-response","55","110859","0.0-1.0-72.0","0","0","18668","","null","","","null","7","","","","","","","","","","","","","","","NaN",""
"","S1","","html-keyboard-response","56","111015","0.0-1.0-74.0","0","0","18668","","null","","","null","8","","","","","","","","","","","","","","","",""
"","ISI","","html-keyboard-response","57","113025","0.0-1.0-75.0","0","0","18668","","null","","","null","8","NaN","","","","","","","","","","","","","","",""
"","S2","","html-keyboard-response","58","113192","0.0-1.0-76.0","0","0","18668","","null","","","null","8","","NaN","","","","","","","","","","","","","",""
"","response","","html-keyboard-response","59","113644","0.0-1.0-77.0-0.0","0","0","18668","","448","","","68","8","","","1","8","training","adjacent","DC","4","3","R.jpg","O.jpg","1","0","0","",""
"","feedback","","html-keyboard-response","60","114656","0.0-1.0-78.0-0.0","0","0","18668","","null","","","null","8","","","","","","","","","","","","","","","",""
"","time_out","","html-keyboard-response","61","116665","0.0-1.0-80.0-0.0","0","0","18668","","null","","","null","8","","","","","","","","","","","","","","","",""
"","ITI","","html-keyboard-response","62","117671","0.0-1.0-81.0","0","0","18668","","null","","","null","8","","","","","","","","","","","","","","","NaN",""
"","S1","","html-keyboard-response","63","117827","0.0-1.0-83.0","0","0","18668","","null","","","null","9","","","","","","","","","","","","","","","",""
"","ISI","","html-keyboard-response","64","119833","0.0-1.0-84.0","0","0","18668","","null","","","null","9","NaN","","","","","","","","","","","","","","",""
"","S2","","html-keyboard-response","65","119992","0.0-1.0-85.0","0","0","18668","","null","","","null","9","","NaN","","","","","","","","","","","","","",""
"","response","","html-keyboard-response","66","120656","0.0-1.0-86.0-0.0","0","0","18668","","661","","","68","9","","","1","9","training","adjacent","AB","1","2","P.jpg","Q.jpg","1","1","1","",""
"","feedback","","html-keyboard-response","67","121660","0.0-1.0-87.0-0.0","0","0","18668","","null","","","null","9","","","","","","","","","","","","","","","",""
"","ITI","","html-keyboard-response","68","122663","0.0-1.0-90.0","0","0","18668","","null","","","null","9","","","","","","","","","","","","","","","NaN",""
"","S1","","html-keyboard-response","69","122819","0.0-1.0-92.0","0","0","18668","","null","","","null","10","","","","","","","","","","","","","","","",""
"","ISI","","html-keyboard-response","70","124827","0.0-1.0-93.0","0","0","18668","","null","","","null","10","NaN","","","","","","","","","","","","","","",""
"","S2","","html-keyboard-response","71","124988","0.0-1.0-94.0","0","0","18668","","null","","","null","10","","NaN","","","","","","","","","","","","","",""
"","response","","html-keyboard-response","72","125467","0.0-1.0-95.0-0.0","0","0","18668","","474","","","68","10","","","1","10","training","adjacent","CD","3","4","O.jpg","R.jpg","1","1","1","",""
"","feedback","","html-keyboard-response","73","126472","0.0-1.0-96.0-0.0","0","0","18668","","null","","","null","10","","","","","","","","","","","","","","","",""
"","ITI","","html-keyboard-response","74","127478","0.0-1.0-99.0","0","0","18668","","null","","","null","10","","","","","","","","","","","","","","","NaN",""
"","S1","","html-keyboard-response","75","127639","0.0-1.0-101.0","0","0","18668","","null","","","null","11","","","","","","","","","","","","","","","",""
"","ISI","","html-keyboard-response","76","129645","0.0-1.0-102.0","0","0","18668","","null","","","null","11","NaN","","","","","","","","","","","","","","",""
"","S2","","html-keyboard-response","77","129816","0.0-1.0-103.0","0","0","18668","","null","","","null","11","","NaN","","","","","","","","","","","","","",""
"","response","","html-keyboard-response","78","130236","0.0-1.0-104.0-0.0","0","0","18668","","418","","","68","11","","","1","11","training","adjacent","CB","3","2","O.jpg","Q.jpg","1","0","0","",""
"","feedback","","html-keyboard-response","79","131247","0.0-1.0-105.0-0.0","0","0","18668","","null","","","null","11","","","","","","","","","","","","","","","",""
"","time_out","","html-keyboard-response","80","133258","0.0-1.0-107.0-0.0","0","0","18668","","null","","","null","11","","","","","","","","","","","","","","","",""
"","ITI","","html-keyboard-response","81","134267","0.0-1.0-108.0","0","0","18668","","null","","","null","11","","","","","","","","","","","","","","","NaN",""
"","S1","","html-keyboard-response","82","134430","0.0-1.0-110.0","0","0","18668","","null","","","null","12","","","","","","","","","","","","","","","",""
"","ISI","","html-keyboard-response","83","136441","0.0-1.0-111.0","0","0","18668","","null","","","null","12","NaN","","","","","","","","","","","","","","",""
"","S2","","html-keyboard-response","84","136595","0.0-1.0-112.0","0","0","18668","","null","","","null","12","","NaN","","","","","","","","","","","","","",""
"","response","","html-keyboard-response","85","137084","0.0-1.0-113.0-0.0","0","0","18668","","486","","","68","12","","","1","12","training","adjacent","CD","3","4","O.jpg","R.jpg","1","1","1","",""
"","feedback","","html-keyboard-response","86","138091","0.0-1.0-114.0-0.0","0","0","18668","","null","","","null","12","","","","","","","","","","","","","","","",""
"","ITI","","html-keyboard-response","87","139101","0.0-1.0-117.0","0","0","18668","","null","","","null","12","","","","","","","","","","","","","","","NaN",""
"","S1","","html-keyboard-response","88","139255","0.0-1.0-119.0","0","0","18668","","null","","","null","13","","","","","","","","","","","","","","","",""
"","ISI","","html-keyboard-response","89","141260","0.0-1.0-120.0","0","0","18668","","null","","","null","13","NaN","","","","","","","","","","","","","","",""
"","S2","","html-keyboard-response","90","141422","0.0-1.0-121.0","0","0","18668","","null","","","null","13","","NaN","","","","","","","","","","","","","",""
"","response","","html-keyboard-response","91","141999","0.0-1.0-122.0-0.0","0","0","18668","","574","","","68","13","","","1","13","training","adjacent","CB","3","2","O.jpg","Q.jpg","1","0","0","",""
"","feedback","","html-keyboard-response","92","143006","0.0-1.0-123.0-0.0","0","0","18668","","null","","","null","13","","","","","","","","","","","","","","","",""
"","time_out","","html-keyboard-response","93","145015","0.0-1.0-125.0-0.0","0","0","18668","","null","","","null","13","","","","","","","","","","","","","","","",""
"","ITI","","html-keyboard-response","94","146031","0.0-1.0-126.0","0","0","18668","","null","","","null","13","","","","","","","","","","","","","","","NaN",""
"","S1","","html-keyboard-response","95","146191","0.0-1.0-128.0","0","0","18668","","null","","","null","14","","","","","","","","","","","","","","","",""
"","ISI","","html-keyboard-response","96","148196","0.0-1.0-129.0","0","0","18668","","null","","","null","14","NaN","","","","","","","","","","","","","","",""
"","S2","","html-keyboard-response","97","148357","0.0-1.0-130.0","0","0","18668","","null","","","null","14","","NaN","","","","","","","","","","","","","",""
"","response","","html-keyboard-response","98","148878","0.0-1.0-131.0-0.0","0","0","18668","","518","","","68","14","","","1","14","training","adjacent","GF","7","6","L.jpg","M.jpg","1","0","0","",""
"","feedback","","html-keyboard-response","99","149884","0.0-1.0-132.0-0.0","0","0","18668","","null","","","null","14","","","","","","","","","","","","","","","",""
"","time_out","","html-keyboard-response","100","151902","0.0-1.0-134.0-0.0","0","0","18668","","null","","","null","14","","","","","","","","","","","","","","","",""
"","ITI","","html-keyboard-response","101","152909","0.0-1.0-135.0","0","0","18668","","null","","","null","14","","","","","","","","","","","","","","","NaN",""
"","S1","","html-keyboard-response","102","153065","0.0-1.0-137.0","0","0","18668","","null","","","null","15","","","","","","","","","","","","","","","",""
"","ISI","","html-keyboard-response","103","155078","0.0-1.0-138.0","0","0","18668","","null","","","null","15","NaN","","","","","","","","","","","","","","",""
"","S2","","html-keyboard-response","104","155238","0.0-1.0-139.0","0","0","18668","","null","","","null","15","","NaN","","","","","","","","","","","","","",""
"","response","","html-keyboard-response","105","155706","0.0-1.0-140.0-0.0","0","0","18668","","465","","","75","15","","","1","15","training","adjacent","FG","6","7","M.jpg","L.jpg","0","1","0","",""
"","feedback","","html-keyboard-response","106","156718","0.0-1.0-141.0-0.0","0","0","18668","","null","","","null","15","","","","","","","","","","","","","","","",""
"","time_out","","html-keyboard-response","107","158727","0.0-1.0-143.0-0.0","0","0","18668","","null","","","null","15","","","","","","","","","","","","","","","",""
"","ITI","","html-keyboard-response","108","159736","0.0-1.0-144.0","0","0","18668","","92","","","75","15","","","","","","","","","","","","","","","k",""
"","S1","","html-keyboard-response","109","159899","0.0-1.0-146.0","0","0","18668","","null","","","null","16","","","","","","","","","","","","","","","",""
"","ISI","","html-keyboard-response","110","161906","0.0-1.0-147.0","0","0","18668","","null","","","null","16","NaN","","","","","","","","","","","","","","",""
"","S2","","html-keyboard-response","111","162068","0.0-1.0-148.0","0","0","18668","","null","","","null","16","","NaN","","","","","","","","","","","","","",""
"","response","","html-keyboard-response","112","162509","0.0-1.0-149.0-0.0","0","0","18668","","436","","","68","16","","","1","16","training","adjacent","DC","4","3","R.jpg","O.jpg","1","0","0","",""
"","feedback","","html-keyboard-response","113","163514","0.0-1.0-150.0-0.0","0","0","18668","","null","","","null","16","","","","","","","","","","","","","","","",""
"","time_out","","html-keyboard-response","114","165516","0.0-1.0-152.0-0.0","0","0","18668","","null","","","null","16","","","","","","","","","","","","","","","",""
"","ITI","","html-keyboard-response","115","166522","0.0-1.0-153.0","0","0","18668","","null","","","null","16","","","","","","","","","","","","","","","NaN",""
"","S1","","html-keyboard-response","116","166684","0.0-1.0-155.0","0","0","18668","","null","","","null","17","","","","","","","","","","","","","","","",""
"","ISI","","html-keyboard-response","117","168689","0.0-1.0-156.0","0","0","18668","","null","","","null","17","NaN","","","","","","","","","","","","","","",""
"","S2","","html-keyboard-response","118","168853","0.0-1.0-157.0","0","0","18668","","null","","","null","17","","NaN","","","","","","","","","","","","","",""
"","response","","html-keyboard-response","119","169307","0.0-1.0-158.0-0.0","0","0","18668","","448","","","75","17","","","1","17","training","adjacent","BA","2","1","Q.jpg","P.jpg","0","0","1","",""
"","feedback","","html-keyboard-response","120","170315","0.0-1.0-159.0-0.0","0","0","18668","","null","","","null","17","","","","","","","","","","","","","","","",""
"","ITI","","html-keyboard-response","121","171319","0.0-1.0-162.0","0","0","18668","","null","","","null","17","","","","","","","","","","","","","","","NaN",""
"","S1","","html-keyboard-response","122","171478","0.0-1.0-164.0","0","0","18668","","null","","","null","18","","","","","","","","","","","","","","","",""
"","ISI","","html-keyboard-response","123","173486","0.0-1.0-165.0","0","0","18668","","null","","","null","18","NaN","","","","","","","","","","","","","","",""
"","S2","","html-keyboard-response","124","173649","0.0-1.0-166.0","0","0","18668","","null","","","null","18","","NaN","","","","","","","","","","","","","",""
"","response","","html-keyboard-response","125","174274","0.0-1.0-167.0-0.0","0","0","18668","","622","","","75","18","","","1","18","training","adjacent","FE","6","5","M.jpg","N.jpg","0","0","1","",""
"","feedback","","html-keyboard-response","126","175290","0.0-1.0-168.0-0.0","0","0","18668","","null","","","null","18","","","","","","","","","","","","","","","",""
"","ITI","","html-keyboard-response","127","176307","0.0-1.0-171.0","0","0","18668","","null","","","null","18","","","","","","","","","","","","","","","NaN",""
"","S1","","html-keyboard-response","128","176476","0.0-1.0-173.0","0","0","18668","","null","","","null","19","","","","","","","","","","","","","","","",""
"","ISI","","html-keyboard-response","129","178485","0.0-1.0-174.0","0","0","18668","","null","","","null","19","NaN","","","","","","","","","","","","","","",""
"","S2","","html-keyboard-response","130","178648","0.0-1.0-175.0","0","0","18668","","null","","","null","19","","NaN","","","","","","","","","","","","","",""
"","response","","html-keyboard-response","131","178991","0.0-1.0-176.0-0.0","0","0","18668","","339","","","75","19","","","1","19","training","adjacent","DC","4","3","R.jpg","O.jpg","0","0","1","",""
"","feedback","","html-keyboard-response","132","180001","0.0-1.0-177.0-0.0","0","0","18668","","null","","","null","19","","","","","","","","","","","","","","","",""
"","ITI","","html-keyboard-response","133","181010","0.0-1.0-180.0","0","0","18668","","null","","","null","19","","","","","","","","","","","","","","","NaN",""
"","S1","","html-keyboard-response","134","181169","0.0-1.0-182.0","0","0","18668","","null","","","null","20","","","","","","","","","","","","","","","",""
"","ISI","","html-keyboard-response","135","183178","0.0-1.0-183.0","0","0","18668","","null","","","null","20","NaN","","","","","","","","","","","","","","",""
"","S2","","html-keyboard-response","136","183338","0.0-1.0-184.0","0","0","18668","","null","","","null","20","","NaN","","","","","","","","","","","","","",""
"","response","","html-keyboard-response","137","183541","0.0-1.0-185.0-0.0","0","0","18668","","198","","","75","20","","","1","20","training","adjacent","DC","4","3","R.jpg","O.jpg","0","0","1","",""
"","feedback","","html-keyboard-response","138","184550","0.0-1.0-186.0-0.0","0","0","18668","","null","","","null","20","","","","","","","","","","","","","","","",""
"","ITI","","html-keyboard-response","139","185568","0.0-1.0-189.0","0","0","18668","","null","","","null","20","","","","","","","","","","","","","","","NaN",""
"","S1","","html-keyboard-response","140","185728","0.0-1.0-191.0","0","0","18668","","null","","","null","21","","","","","","","","","","","","","","","",""
"","ISI","","html-keyboard-response","141","187737","0.0-1.0-192.0","0","0","18668","","null","","","null","21","NaN","","","","","","","","","","","","","","",""
"","S2","","html-keyboard-response","142","187893","0.0-1.0-193.0","0","0","18668","","null","","","null","21","","NaN","","","","","","","","","","","","","",""
"","response","","html-keyboard-response","143","188347","0.0-1.0-194.0-0.0","0","0","18668","","450","","","75","21","","","1","21","training","adjacent","BC","2","3","Q.jpg","O.jpg","0","1","0","",""
"","feedback","","html-keyboard-response","144","189364","0.0-1.0-195.0-0.0","0","0","18668","","null","","","null","21","","","","","","","","","","","","","","","",""
"","time_out","","html-keyboard-response","145","191370","0.0-1.0-197.0-0.0","0","0","18668","","null","","","null","21","","","","","","","","","","","","","","","",""
"","ITI","","html-keyboard-response","146","192381","0.0-1.0-198.0","0","0","18668","","null","","","null","21","","","","","","","","","","","","","","","NaN",""
"","S1","","html-keyboard-response","147","192540","0.0-1.0-200.0","0","0","18668","","null","","","null","22","","","","","","","","","","","","","","","",""
"","ISI","","html-keyboard-response","148","194551","0.0-1.0-201.0","0","0","18668","","null","","","null","22","NaN","","","","","","","","","","","","","","",""
"","S2","","html-keyboard-response","149","194719","0.0-1.0-202.0","0","0","18668","","null","","","null","22","","NaN","","","","","","","","","","","","","",""
"","response","","html-keyboard-response","150","195124","0.0-1.0-203.0-0.0","0","0","18668","","401","","","75","22","","","1","22","training","adjacent","CB","3","2","O.jpg","Q.jpg","0","0","1","",""
"","feedback","","html-keyboard-response","151","196141","0.0-1.0-204.0-0.0","0","0","18668","","null","","","null","22","","","","","","","","","","","","","","","",""
"","ITI","","html-keyboard-response","152","197149","0.0-1.0-207.0","0","0","18668","","null","","","null","22","","","","","","","","","","","","","","","NaN",""
"","S1","","html-keyboard-response","153","197303","0.0-1.0-209.0","0","0","18668","","null","","","null","23","","","","","","","","","","","","","","","",""
"","ISI","","html-keyboard-response","154","199310","0.0-1.0-210.0","0","0","18668","","742","","","68","23","d","","","","","","","","","","","","","","",""
"","S2","","html-keyboard-response","155","199476","0.0-1.0-211.0","0","0","18668","","null","","","null","23","","NaN","","","","","","","","","","","","","",""
"","response","","html-keyboard-response","156","200192","0.0-1.0-212.0-0.0","0","0","18668","","713","","","75","23","","","1","23","training","adjacent","FG","6","7","M.jpg","L.jpg","0","1","0","",""
"","feedback","","html-keyboard-response","157","201203","0.0-1.0-213.0-0.0","0","0","18668","","null","","","null","23","","","","","","","","","","","","","","","",""
"","time_out","","html-keyboard-response","158","203211","0.0-1.0-215.0-0.0","0","0","18668","","null","","","null","23","","","","","","","","","","","","","","","",""
"","ITI","","html-keyboard-response","159","204218","0.0-1.0-216.0","0","0","18668","","null","","","null","23","","","","","","","","","","","","","","","NaN",""
"","S1","","html-keyboard-response","160","204377","0.0-1.0-218.0","0","0","18668","","null","","","null","24","","","","","","","","","","","","","","","",""
"","ISI","","html-keyboard-response","161","206386","0.0-1.0-219.0","0","0","18668","","null","","","null","24","NaN","","","","","","","","","","","","","","",""
"","S2","","html-keyboard-response","162","206548","0.0-1.0-220.0","0","0","18668","","null","","","null","24","","NaN","","","","","","","","","","","","","",""
"","response","","html-keyboard-response","163","207001","0.0-1.0-221.0-0.0","0","0","18668","","449","","","75","24","","","1","24","training","adjacent","DE","4","5","R.jpg","N.jpg","0","1","0","",""
"","feedback","","html-keyboard-response","164","208008","0.0-1.0-222.0-0.0","0","0","18668","","null","","","null","24","","","","","","","","","","","","","","","",""
"","time_out","","html-keyboard-response","165","210027","0.0-1.0-224.0-0.0","0","0","18668","","null","","","null","24","","","","","","","","","","","","","","","",""
"","ITI","","html-keyboard-response","166","211032","0.0-1.0-225.0","0","0","18668","","null","","","null","24","","","","","","","","","","","","","","","NaN",""
"","S1","","html-keyboard-response","167","211199","0.0-1.0-227.0","0","0","18668","","null","","","null","25","","","","","","","","","","","","","","","",""
"","ISI","","html-keyboard-response","168","213209","0.0-1.0-228.0","0","0","18668","","null","","","null","25","NaN","","","","","","","","","","","","","","",""
"","S2","","html-keyboard-response","169","213370","0.0-1.0-229.0","0","0","18668","","null","","","null","25","","NaN","","","","","","","","","","","","","",""
"","response","","html-keyboard-response","170","213771","0.0-1.0-230.0-0.0","0","0","18668","","397","","","68","25","","","1","25","training","adjacent","ED","5","4","N.jpg","R.jpg","1","0","0","",""
"","feedback","","html-keyboard-response","171","214781","0.0-1.0-231.0-0.0","0","0","18668","","null","","","null","25","","","","","","","","","","","","","","","",""
"","time_out","","html-keyboard-response","172","216791","0.0-1.0-233.0-0.0","0","0","18668","","null","","","null","25","","","","","","","","","","","","","","","",""
"","ITI","","html-keyboard-response","173","217799","0.0-1.0-234.0","0","0","18668","","null","","","null","25","","","","","","","","","","","","","","","NaN",""
"","S1","","html-keyboard-response","174","217961","0.0-1.0-236.0","0","0","18668","","null","","","null","26","","","","","","","","","","","","","","","",""
"","ISI","","html-keyboard-response","175","219970","0.0-1.0-237.0","0","0","18668","","null","","","null","26","NaN","","","","","","","","","","","","","","",""
"","S2","","html-keyboard-response","176","220140","0.0-1.0-238.0","0","0","18668","","null","","","null","26","","NaN","","","","","","","","","","","","","",""
"","response","","html-keyboard-response","177","220550","0.0-1.0-239.0-0.0","0","0","18668","","406","","","68","26","","","1","26","training","adjacent","CD","3","4","O.jpg","R.jpg","1","1","1","",""
"","feedback","","html-keyboard-response","178","221557","0.0-1.0-240.0-0.0","0","0","18668","","null","","","null","26","","","","","","","","","","","","","","","",""
"","ITI","","html-keyboard-response","179","222561","0.0-1.0-243.0","0","0","18668","","null","","","null","26","","","","","","","","","","","","","","","NaN",""
"","S1","","html-keyboard-response","180","222729","0.0-1.0-245.0","0","0","18668","","null","","","null","27","","","","","","","","","","","","","","","",""
"","ISI","","html-keyboard-response","181","224739","0.0-1.0-246.0","0","0","18668","","null","","","null","27","NaN","","","","","","","","","","","","","","",""
"","S2","","html-keyboard-response","182","224898","0.0-1.0-247.0","0","0","18668","","null","","","null","27","","NaN","","","","","","","","","","","","","",""
"","response","","html-keyboard-response","183","225403","0.0-1.0-248.0-0.0","0","0","18668","","502","","","68","27","","","1","27","training","adjacent","GF","7","6","L.jpg","M.jpg","1","0","0","",""
"","feedback","","html-keyboard-response","184","226412","0.0-1.0-249.0-0.0","0","0","18668","","null","","","null","27","","","","","","","","","","","","","","","",""
"","time_out","","html-keyboard-response","185","228419","0.0-1.0-251.0-0.0","0","0","18668","","null","","","null","27","","","","","","","","","","","","","","","",""
"","ITI","","html-keyboard-response","186","229424","0.0-1.0-252.0","0","0","18668","","null","","","null","27","","","","","","","","","","","","","","","NaN",""
"","S1","","html-keyboard-response","187","229588","0.0-1.0-254.0","0","0","18668","","null","","","null","28","","","","","","","","","","","","","","","",""
"","ISI","","html-keyboard-response","188","231597","0.0-1.0-255.0","0","0","18668","","null","","","null","28","NaN","","","","","","","","","","","","","","",""
"","S2","","html-keyboard-response","189","231757","0.0-1.0-256.0","0","0","18668","","null","","","null","28","","NaN","","","","","","","","","","","","","",""
"","response","","html-keyboard-response","190","232167","0.0-1.0-257.0-0.0","0","0","18668","","406","","","68","28","","","1","28","training","adjacent","AB","1","2","P.jpg","Q.jpg","1","1","1","",""
"","feedback","","html-keyboard-response","191","233174","0.0-1.0-258.0-0.0","0","0","18668","","null","","","null","28","","","","","","","","","","","","","","","",""
"","ITI","","html-keyboard-response","192","234184","0.0-1.0-261.0","0","0","18668","","null","","","null","28","","","","","","","","","","","","","","","NaN",""
"","S1","","html-keyboard-response","193","234346","0.0-1.0-263.0","0","0","18668","","null","","","null","29","","","","","","","","","","","","","","","",""
"","ISI","","html-keyboard-response","194","236356","0.0-1.0-264.0","0","0","18668","","null","","","null","29","NaN","","","","","","","","","","","","","","",""
"","S2","","html-keyboard-response","195","236525","0.0-1.0-265.0","0","0","18668","","null","","","null","29","","NaN","","","","","","","","","","","","","",""
"","response","","html-keyboard-response","196","237292","0.0-1.0-266.0-0.0","0","0","18668","","763","","","68","29","","","1","29","training","adjacent","AB","1","2","P.jpg","Q.jpg","1","1","1","",""
"","feedback","","html-keyboard-response","197","238300","0.0-1.0-267.0-0.0","0","0","18668","","null","","","null","29","","","","","","","","","","","","","","","",""
"","ITI","","html-keyboard-response","198","239315","0.0-1.0-270.0","0","0","18668","","null","","","null","29","","","","","","","","","","","","","","","NaN",""
"","S1","","html-keyboard-response","199","239471","0.0-1.0-272.0","0","0","18668","","null","","","null","30","","","","","","","","","","","","","","","",""
"","ISI","","html-keyboard-response","200","241474","0.0-1.0-273.0","0","0","18668","","null","","","null","30","NaN","","","","","","","","","","","","","","",""
"","S2","","html-keyboard-response","201","241641","0.0-1.0-274.0","0","0","18668","","null","","","null","30","","NaN","","","","","","","","","","","","","",""
"","response","","html-keyboard-response","202","242142","0.0-1.0-275.0-0.0","0","0","18668","","496","","","68","30","","","1","30","training","adjacent","ED","5","4","N.jpg","R.jpg","1","0","0","",""
"","feedback","","html-keyboard-response","203","243154","0.0-1.0-276.0-0.0","0","0","18668","","null","","","null","30","","","","","","","","","","","","","","","",""
"","time_out","","html-keyboard-response","204","245165","0.0-1.0-278.0-0.0","0","0","18668","","null","","","null","30","","","","","","","","","","","","","","","",""
"","ITI","","html-keyboard-response","205","246168","0.0-1.0-279.0","0","0","18668","","null","","","null","30","","","","","","","","","","","","","","","NaN",""
"","S1","","html-keyboard-response","206","246328","0.0-1.0-281.0","0","0","18668","","null","","","null","31","","","","","","","","","","","","","","","",""
"","ISI","","html-keyboard-response","207","248338","0.0-1.0-282.0","0","0","18668","","null","","","null","31","NaN","","","","","","","","","","","","","","",""
"","S2","","html-keyboard-response","208","248498","0.0-1.0-283.0","0","0","18668","","null","","","null","31","","NaN","","","","","","","","","","","","","",""
"","response","","html-keyboard-response","209","248956","0.0-1.0-284.0-0.0","0","0","18668","","454","","","75","31","","","1","31","training","adjacent","BA","2","1","Q.jpg","P.jpg","0","0","1","",""
"","feedback","","html-keyboard-response","210","249974","0.0-1.0-285.0-0.0","0","0","18668","","null","","","null","31","","","","","","","","","","","","","","","",""
"","ITI","","html-keyboard-response","211","250988","0.0-1.0-288.0","0","0","18668","","null","","","null","31","","","","","","","","","","","","","","","NaN",""
"","S1","","html-keyboard-response","212","251150","0.0-1.0-290.0","0","0","18668","","null","","","null","32","","","","","","","","","","","","","","","",""
"","ISI","","html-keyboard-response","213","253153","0.0-1.0-291.0","0","0","18668","","null","","","null","32","NaN","","","","","","","","","","","","","","",""
"","S2","","html-keyboard-response","214","253316","0.0-1.0-292.0","0","0","18668","","null","","","null","32","","NaN","","","","","","","","","","","","","",""
"","response","","html-keyboard-response","215","253754","0.0-1.0-293.0-0.0","0","0","18668","","436","","","75","32","","","1","32","training","adjacent","DE","4","5","R.jpg","N.jpg","0","1","0","",""
"","feedback","","html-keyboard-response","216","254760","0.0-1.0-294.0-0.0","0","0","18668","","null","","","null","32","","","","","","","","","","","","","","","",""
"","time_out","","html-keyboard-response","217","256764","0.0-1.0-296.0-0.0","0","0","18668","","null","","","null","32","","","","","","","","","","","","","","","",""
"","ITI","","html-keyboard-response","218","257770","0.0-1.0-297.0","0","0","18668","","null","","","null","32","","","","","","","","","","","","","","","NaN",""
"","S1","","html-keyboard-response","219","257931","0.0-1.0-299.0","0","0","18668","","null","","","null","33","","","","","","","","","","","","","","","",""
"","ISI","","html-keyboard-response","220","259941","0.0-1.0-300.0","0","0","18668","","null","","","null","33","NaN","","","","","","","","","","","","","","",""
"","S2","","html-keyboard-response","221","260104","0.0-1.0-301.0","0","0","18668","","null","","","null","33","","NaN","","","","","","","","","","","","","",""
"","response","","html-keyboard-response","222","260466","0.0-1.0-302.0-0.0","0","0","18668","","358","","","68","33","","","1","33","training","adjacent","ED","5","4","N.jpg","R.jpg","1","0","0","",""
"","feedback","","html-keyboard-response","223","261471","0.0-1.0-303.0-0.0","0","0","18668","","null","","","null","33","","","","","","","","","","","","","","","",""
"","time_out","","html-keyboard-response","224","263475","0.0-1.0-305.0-0.0","0","0","18668","","null","","","null","33","","","","","","","","","","","","","","","",""
"","ITI","","html-keyboard-response","225","264480","0.0-1.0-306.0","0","0","18668","","null","","","null","33","","","","","","","","","","","","","","","NaN",""
"","S1","","html-keyboard-response","226","264640","0.0-1.0-308.0","0","0","18668","","null","","","null","34","","","","","","","","","","","","","","","",""
"","ISI","","html-keyboard-response","227","266645","0.0-1.0-309.0","0","0","18668","","null","","","null","34","NaN","","","","","","","","","","","","","","",""
"","S2","","html-keyboard-response","228","266808","0.0-1.0-310.0","0","0","18668","","null","","","null","34","","NaN","","","","","","","","","","","","","",""
"","response","","html-keyboard-response","229","267163","0.0-1.0-311.0-0.0","0","0","18668","","350","","","75","34","","","1","34","training","adjacent","BA","2","1","Q.jpg","P.jpg","0","0","1","",""
"","feedback","","html-keyboard-response","230","268168","0.0-1.0-312.0-0.0","0","0","18668","","null","","","null","34","","","","","","","","","","","","","","","",""
"","ITI","","html-keyboard-response","231","269173","0.0-1.0-315.0","0","0","18668","","null","","","null","34","","","","","","","","","","","","","","","NaN",""
"","S1","","html-keyboard-response","232","269334","0.0-1.0-317.0","0","0","18668","","null","","","null","35","","","","","","","","","","","","","","","",""
"","ISI","","html-keyboard-response","233","271342","0.0-1.0-318.0","0","0","18668","","null","","","null","35","NaN","","","","","","","","","","","","","","",""
"","S2","","html-keyboard-response","234","271501","0.0-1.0-319.0","0","0","18668","","null","","","null","35","","NaN","","","","","","","","","","","","","",""
"","response","","html-keyboard-response","235","271912","0.0-1.0-320.0-0.0","0","0","18668","","408","","","75","35","","","1","35","training","adjacent","FE","6","5","M.jpg","N.jpg","0","0","1","",""
"","feedback","","html-keyboard-response","236","272922","0.0-1.0-321.0-0.0","0","0","18668","","null","","","null","35","","","","","","","","","","","","","","","",""
"","ITI","","html-keyboard-response","237","273933","0.0-1.0-324.0","0","0","18668","","158","","","75","35","","","","","","","","","","","","","","","k",""
"","S1","","html-keyboard-response","238","274095","0.0-1.0-326.0","0","0","18668","","null","","","null","36","","","","","","","","","","","","","","","",""
"","ISI","","html-keyboard-response","239","276098","0.0-1.0-327.0","0","0","18668","","null","","","null","36","NaN","","","","","","","","","","","","","","",""
"","S2","","html-keyboard-response","240","276258","0.0-1.0-328.0","0","0","18668","","null","","","null","36","","NaN","","","","","","","","","","","","","",""
"","response","","html-keyboard-response","241","276506","0.0-1.0-329.0-0.0","0","0","18668","","245","","","75","36","","","1","36","training","adjacent","BC","2","3","Q.jpg","O.jpg","0","1","0","",""
"","feedback","","html-keyboard-response","242","277514","0.0-1.0-330.0-0.0","0","0","18668","","null","","","null","36","","","","","","","","","","","","","","","",""
"","time_out","","html-keyboard-response","243","279521","0.0-1.0-332.0-0.0","0","0","18668","","null","","","null","36","","","","","","","","","","","","","","","",""
"","ITI","","html-keyboard-response","244","280530","0.0-1.0-333.0","0","0","18668","","null","","","null","36","","","","","","","","","","","","","","","NaN",""
"","S1","","html-keyboard-response","245","280692","0.0-1.0-335.0","0","0","18668","","null","","","null","37","","","","","","","","","","","","","","","",""
"","ISI","","html-keyboard-response","246","282696","0.0-1.0-336.0","0","0","18668","","519","","","75","37","k","","","","","","","","","","","","","","",""
"","S2","","html-keyboard-response","247","282865","0.0-1.0-337.0","0","0","18668","","null","","","null","37","","NaN","","","","","","","","","","","","","",""
"","response","","html-keyboard-response","248","283933","0.0-1.0-338.0-0.0","0","0","18668","","1064","","","75","37","","","1","37","training","adjacent","AB","1","2","P.jpg","Q.jpg","0","1","0","",""
"","feedback","","html-keyboard-response","249","284944","0.0-1.0-339.0-0.0","0","0","18668","","null","","","null","37","","","","","","","","","","","","","","","",""
"","time_out","","html-keyboard-response","250","286956","0.0-1.0-341.0-0.0","0","0","18668","","null","","","null","37","","","","","","","","","","","","","","","",""
"","ITI","","html-keyboard-response","251","287963","0.0-1.0-342.0","0","0","18668","","965","","","68","37","","","","","","","","","","","","","","","d",""
"","S1","","html-keyboard-response","252","288121","0.0-1.0-344.0","0","0","18668","","null","","","null","38","","","","","","","","","","","","","","","",""
"","ISI","","html-keyboard-response","253","290129","0.0-1.0-345.0","0","0","18668","","null","","","null","38","NaN","","","","","","","","","","","","","","",""
"","S2","","html-keyboard-response","254","290288","0.0-1.0-346.0","0","0","18668","","null","","","null","38","","NaN","","","","","","","","","","","","","",""
"","response","","html-keyboard-response","255","290581","0.0-1.0-347.0-0.0","0","0","18668","","289","","","75","38","","","1","38","training","adjacent","DE","4","5","R.jpg","N.jpg","0","1","0","",""
"","feedback","","html-keyboard-response","256","291589","0.0-1.0-348.0-0.0","0","0","18668","","null","","","null","38","","","","","","","","","","","","","","","",""
"","time_out","","html-keyboard-response","257","293594","0.0-1.0-350.0-0.0","0","0","18668","","null","","","null","38","","","","","","","","","","","","","","","",""
"","ITI","","html-keyboard-response","258","294599","0.0-1.0-351.0","0","0","18668","","null","","","null","38","","","","","","","","","","","","","","","NaN",""
"","S1","","html-keyboard-response","259","294762","0.0-1.0-353.0","0","0","18668","","null","","","null","39","","","","","","","","","","","","","","","",""
"","ISI","","html-keyboard-response","260","296769","0.0-1.0-354.0","0","0","18668","","834","","","75","39","k","","","","","","","","","","","","","","",""
"","S2","","html-keyboard-response","261","296925","0.0-1.0-355.0","0","0","18668","","null","","","null","39","","NaN","","","","","","","","","","","","","",""
"","response","","html-keyboard-response","262","297381","0.0-1.0-356.0-0.0","0","0","18668","","454","","","68","39","","","1","39","training","adjacent","GF","7","6","L.jpg","M.jpg","1","0","0","",""
"","feedback","","html-keyboard-response","263","298392","0.0-1.0-357.0-0.0","0","0","18668","","null","","","null","39","","","","","","","","","","","","","","","",""
"","time_out","","html-keyboard-response","264","300399","0.0-1.0-359.0-0.0","0","0","18668","","null","","","null","39","","","","","","","","","","","","","","","",""
"","ITI","","html-keyboard-response","265","301411","0.0-1.0-360.0","0","0","18668","","null","","","null","39","","","","","","","","","","","","","","","NaN",""
"","S1","","html-keyboard-response","266","301568","0.0-1.0-362.0","0","0","18668","","null","","","null","40","","","","","","","","","","","","","","","",""
"","ISI","","html-keyboard-response","267","303579","0.0-1.0-363.0","0","0","18668","","null","","","null","40","NaN","","","","","","","","","","","","","","",""
"","S2","","html-keyboard-response","268","303737","0.0-1.0-364.0","0","0","18668","","null","","","null","40","","NaN","","","","","","","","","","","","","",""
"","response","","html-keyboard-response","269","304109","0.0-1.0-365.0-0.0","0","0","18668","","369","","","68","40","","","1","40","training","adjacent","CD","3","4","O.jpg","R.jpg","1","1","1","",""
"","feedback","","html-keyboard-response","270","305123","0.0-1.0-366.0-0.0","0","0","18668","","null","","","null","40","","","","","","","","","","","","","","","",""
"","ITI","","html-keyboard-response","271","306131","0.0-1.0-369.0","0","0","18668","","null","","","null","40","","","","","","","","","","","","","","","NaN",""
"","S1","","html-keyboard-response","272","306293","0.0-1.0-371.0","0","0","18668","","null","","","null","41","","","","","","","","","","","","","","","",""
"","ISI","","html-keyboard-response","273","308303","0.0-1.0-372.0","0","0","18668","","null","","","null","41","NaN","","","","","","","","","","","","","","",""
"","S2","","html-keyboard-response","274","308466","0.0-1.0-373.0","0","0","18668","","null","","","null","41","","NaN","","","","","","","","","","","","","",""
"","response","","html-keyboard-response","275","308858","0.0-1.0-374.0-0.0","0","0","18668","","388","","","68","41","","","1","41","training","adjacent","EF","5","6","N.jpg","M.jpg","1","1","1","",""
"","feedback","","html-keyboard-response","276","309874","0.0-1.0-375.0-0.0","0","0","18668","","null","","","null","41","","","","","","","","","","","","","","","",""
"","ITI","","html-keyboard-response","277","310879","0.0-1.0-378.0","0","0","18668","","null","","","null","41","","","","","","","","","","","","","","","NaN",""
"","S1","","html-keyboard-response","278","311042","0.0-1.0-380.0","0","0","18668","","null","","","null","42","","","","","","","","","","","","","","","",""
"","ISI","","html-keyboard-response","279","313058","0.0-1.0-381.0","0","0","18668","","null","","","null","42","NaN","","","","","","","","","","","","","","",""
"","S2","","html-keyboard-response","280","313219","0.0-1.0-382.0","0","0","18668","","null","","","null","42","","NaN","","","","","","","","","","","","","",""
"","response","","html-keyboard-response","281","313569","0.0-1.0-383.0-0.0","0","0","18668","","346","","","68","42","","","1","42","training","adjacent","EF","5","6","N.jpg","M.jpg","1","1","1","",""
"","feedback","","html-keyboard-response","282","314577","0.0-1.0-384.0-0.0","0","0","18668","","null","","","null","42","","","","","","","","","","","","","","","",""
"","ITI","","html-keyboard-response","283","315579","0.0-1.0-387.0","0","0","18668","","null","","","null","42","","","","","","","","","","","","","","","NaN",""
"","S1","","html-keyboard-response","284","315734","0.0-1.0-389.0","0","0","18668","","null","","","null","43","","","","","","","","","","","","","","","",""
"","ISI","","html-keyboard-response","285","317738","0.0-1.0-390.0","0","0","18668","","null","","","null","43","NaN","","","","","","","","","","","","","","",""
"","S2","","html-keyboard-response","286","317895","0.0-1.0-391.0","0","0","18668","","null","","","null","43","","NaN","","","","","","","","","","","","","",""
"","response","","html-keyboard-response","287","318261","0.0-1.0-392.0-0.0","0","0","18668","","364","","","68","43","","","1","43","training","adjacent","CB","3","2","O.jpg","Q.jpg","1","0","0","",""
"","feedback","","html-keyboard-response","288","319274","0.0-1.0-393.0-0.0","0","0","18668","","null","","","null","43","","","","","","","","","","","","","","","",""
"","time_out","","html-keyboard-response","289","321285","0.0-1.0-395.0-0.0","0","0","18668","","null","","","null","43","","","","","","","","","","","","","","","",""
"","ITI","","html-keyboard-response","290","322295","0.0-1.0-396.0","0","0","18668","","null","","","null","43","","","","","","","","","","","","","","","NaN",""
"","S1","","html-keyboard-response","291","322449","0.0-1.0-398.0","0","0","18668","","null","","","null","44","","","","","","","","","","","","","","","",""
"","ISI","","html-keyboard-response","292","324460","0.0-1.0-399.0","0","0","18668","","null","","","null","44","NaN","","","","","","","","","","","","","","",""
"","S2","","html-keyboard-response","293","324618","0.0-1.0-400.0","0","0","18668","","null","","","null","44","","NaN","","","","","","","","","","","","","",""
"","response","","html-keyboard-response","294","325082","0.0-1.0-401.0-0.0","0","0","18668","","460","","","75","44","","","1","44","training","adjacent","FG","6","7","M.jpg","L.jpg","0","1","0","",""
"","feedback","","html-keyboard-response","295","326095","0.0-1.0-402.0-0.0","0","0","18668","","null","","","null","44","","","","","","","","","","","","","","","",""
"","time_out","","html-keyboard-response","296","328099","0.0-1.0-404.0-0.0","0","0","18668","","null","","","null","44","","","","","","","","","","","","","","","",""
"","ITI","","html-keyboard-response","297","329109","0.0-1.0-405.0","0","0","18668","","null","","","null","44","","","","","","","","","","","","","","","NaN",""
"","S1","","html-keyboard-response","298","329265","0.0-1.0-407.0","0","0","18668","","null","","","null","45","","","","","","","","","","","","","","","",""
"","ISI","","html-keyboard-response","299","331270","0.0-1.0-408.0","0","0","18668","","null","","","null","45","NaN","","","","","","","","","","","","","","",""
"","S2","","html-keyboard-response","300","331431","0.0-1.0-409.0","0","0","18668","","null","","","null","45","","NaN","","","","","","","","","","","","","",""
"","response","","html-keyboard-response","301","331859","0.0-1.0-410.0-0.0","0","0","18668","","424","","","75","45","","","1","45","training","adjacent","DE","4","5","R.jpg","N.jpg","0","1","0","",""
"","feedback","","html-keyboard-response","302","332865","0.0-1.0-411.0-0.0","0","0","18668","","null","","","null","45","","","","","","","","","","","","","","","",""
"","time_out","","html-keyboard-response","303","334877","0.0-1.0-413.0-0.0","0","0","18668","","null","","","null","45","","","","","","","","","","","","","","","",""
"","ITI","","html-keyboard-response","304","335883","0.0-1.0-414.0","0","0","18668","","null","","","null","45","","","","","","","","","","","","","","","NaN",""
"","S1","","html-keyboard-response","305","336051","0.0-1.0-416.0","0","0","18668","","null","","","null","46","","","","","","","","","","","","","","","",""
"","ISI","","html-keyboard-response","306","338058","0.0-1.0-417.0","0","0","18668","","null","","","null","46","NaN","","","","","","","","","","","","","","",""
"","S2","","html-keyboard-response","307","338214","0.0-1.0-418.0","0","0","18668","","null","","","null","46","","NaN","","","","","","","","","","","","","",""
"","response","","html-keyboard-response","308","338590","0.0-1.0-419.0-0.0","0","0","18668","","373","","","68","46","","","1","46","training","adjacent","EF","5","6","N.jpg","M.jpg","1","1","1","",""
"","feedback","","html-keyboard-response","309","339603","0.0-1.0-420.0-0.0","0","0","18668","","null","","","null","46","","","","","","","","","","","","","","","",""
"","ITI","","html-keyboard-response","310","340607","0.0-1.0-423.0","0","0","18668","","null","","","null","46","","","","","","","","","","","","","","","NaN",""
"","S1","","html-keyboard-response","311","340764","0.0-1.0-425.0","0","0","18668","","null","","","null","47","","","","","","","","","","","","","","","",""
"","ISI","","html-keyboard-response","312","342775","0.0-1.0-426.0","0","0","18668","","null","","","null","47","NaN","","","","","","","","","","","","","","",""
"","S2","","html-keyboard-response","313","342934","0.0-1.0-427.0","0","0","18668","","null","","","null","47","","NaN","","","","","","","","","","","","","",""
"","response","","html-keyboard-response","314","343251","0.0-1.0-428.0-0.0","0","0","18668","","315","","","75","47","","","1","47","training","adjacent","BC","2","3","Q.jpg","O.jpg","0","1","0","",""
"","feedback","","html-keyboard-response","315","344261","0.0-1.0-429.0-0.0","0","0","18668","","null","","","null","47","","","","","","","","","","","","","","","",""
"","time_out","","html-keyboard-response","316","346270","0.0-1.0-431.0-0.0","0","0","18668","","null","","","null","47","","","","","","","","","","","","","","","",""
"","ITI","","html-keyboard-response","317","347281","0.0-1.0-432.0","0","0","18668","","null","","","null","47","","","","","","","","","","","","","","","NaN",""
"","block_over","","html-keyboard-response","318","350317","0.0-1.0-433.0-0.0","0","0","18668","","3031","","","32","47","","","","","","","","","","","","","","","",""
"","S1","","html-keyboard-response","319","350473","0.0-1.0-434.0","0","0","18668","","null","","","null","48","","","","","","","","","","","","","","","",""
"","ISI","","html-keyboard-response","320","352483","0.0-1.0-435.0","0","0","18668","","1539","","","75","48","k","","","","","","","","","","","","","","",""
"","S2","","html-keyboard-response","321","352641","0.0-1.0-436.0","0","0","18668","","null","","","null","48","","NaN","","","","","","","","","","","","","",""
"","response","","html-keyboard-response","322","353079","0.0-1.0-437.0-0.0","0","0","18668","","433","","","75","48","","","2","48","training","adjacent","EF","5","6","N.jpg","M.jpg","0","1","0","",""
"","feedback","","html-keyboard-response","323","354085","0.0-1.0-438.0-0.0","0","0","18668","","null","","","null","48","","","","","","","","","","","","","","","",""
"","time_out","","html-keyboard-response","324","356089","0.0-1.0-440.0-0.0","0","0","18668","","null","","","null","48","","","","","","","","","","","","","","","",""
"","ITI","","html-keyboard-response","325","357094","0.0-1.0-441.0","0","0","18668","","null","","","null","48","","","","","","","","","","","","","","","NaN",""
"","S1","","html-keyboard-response","326","357250","0.0-1.0-443.0","0","0","18668","","null","","","null","49","","","","","","","","","","","","","","","",""
"","ISI","","html-keyboard-response","327","359259","0.0-1.0-444.0","0","0","18668","","null","","","null","49","NaN","","","","","","","","","","","","","","",""
"","S2","","html-keyboard-response","328","359428","0.0-1.0-445.0","0","0","18668","","null","","","null","49","","NaN","","","","","","","","","","","","","",""
"","response","","html-keyboard-response","329","359902","0.0-1.0-446.0-0.0","0","0","18668","","470","","","68","49","","","2","49","training","adjacent","FG","6","7","M.jpg","L.jpg","1","1","1","",""
"","feedback","","html-keyboard-response","330","360914","0.0-1.0-447.0-0.0","0","0","18668","","null","","","null","49","","","","","","","","","","","","","","","",""
"","ITI","","html-keyboard-response","331","361932","0.0-1.0-450.0","0","0","18668","","null","","","null","49","","","","","","","","","","","","","","","NaN",""
"","S1","","html-keyboard-response","332","362087","0.0-1.0-452.0","0","0","18668","","null","","","null","50","","","","","","","","","","","","","","","",""
"","ISI","","html-keyboard-response","333","364097","0.0-1.0-453.0","0","0","18668","","null","","","null","50","NaN","","","","","","","","","","","","","","",""
"","S2","","html-keyboard-response","334","364261","0.0-1.0-454.0","0","0","18668","","null","","","null","50","","NaN","","","","","","","","","","","","","",""
"","response","","html-keyboard-response","335","364806","0.0-1.0-455.0-0.0","0","0","18668","","541","","","75","50","","","2","50","training","adjacent","GF","7","6","L.jpg","M.jpg","0","0","1","",""
"","feedback","","html-keyboard-response","336","365820","0.0-1.0-456.0-0.0","0","0","18668","","null","","","null","50","","","","","","","","","","","","","","","",""
"","ITI","","html-keyboard-response","337","366828","0.0-1.0-459.0","0","0","18668","","null","","","null","50","","","","","","","","","","","","","","","NaN",""
"","S1","","html-keyboard-response","338","366995","0.0-1.0-461.0","0","0","18668","","null","","","null","51","","","","","","","","","","","","","","","",""
"","ISI","","html-keyboard-response","339","369006","0.0-1.0-462.0","0","0","18668","","null","","","null","51","NaN","","","","","","","","","","","","","","",""
"","S2","","html-keyboard-response","340","369166","0.0-1.0-463.0","0","0","18668","","null","","","null","51","","NaN","","","","","","","","","","","","","",""
"","response","","html-keyboard-response","341","369800","0.0-1.0-464.0-0.0","0","0","18668","","630","","","75","51","","","2","51","training","adjacent","FG","6","7","M.jpg","L.jpg","0","1","0","",""
"","feedback","","html-keyboard-response","342","370807","0.0-1.0-465.0-0.0","0","0","18668","","null","","","null","51","","","","","","","","","","","","","","","",""
"","time_out","","html-keyboard-response","343","372820","0.0-1.0-467.0-0.0","0","0","18668","","null","","","null","51","","","","","","","","","","","","","","","",""
"","ITI","","html-keyboard-response","344","373824","0.0-1.0-468.0","0","0","18668","","null","","","null","51","","","","","","","","","","","","","","","NaN",""
"","S1","","html-keyboard-response","345","373984","0.0-1.0-470.0","0","0","18668","","null","","","null","52","","","","","","","","","","","","","","","",""
"","ISI","","html-keyboard-response","346","375996","0.0-1.0-471.0","0","0","18668","","null","","","null","52","NaN","","","","","","","","","","","","","","",""
"","S2","","html-keyboard-response","347","376152","0.0-1.0-472.0","0","0","18668","","null","","","null","52","","NaN","","","","","","","","","","","","","",""
"","response","","html-keyboard-response","348","376541","0.0-1.0-473.0-0.0","0","0","18668","","384","","","75","52","","","2","52","training","adjacent","BA","2","1","Q.jpg","P.jpg","0","0","1","",""
"","feedback","","html-keyboard-response","349","377550","0.0-1.0-474.0-0.0","0","0","18668","","null","","","null","52","","","","","","","","","","","","","","","",""
"","ITI","","html-keyboard-response","350","378556","0.0-1.0-477.0","0","0","18668","","null","","","null","52","","","","","","","","","","","","","","","NaN",""
"","S1","","html-keyboard-response","351","378715","0.0-1.0-479.0","0","0","18668","","null","","","null","53","","","","","","","","","","","","","","","",""
"","ISI","","html-keyboard-response","352","380722","0.0-1.0-480.0","0","0","18668","","null","","","null","53","NaN","","","","","","","","","","","","","","",""
"","S2","","html-keyboard-response","353","380876","0.0-1.0-481.0","0","0","18668","","null","","","null","53","","NaN","","","","","","","","","","","","","",""
"","response","","html-keyboard-response","354","381340","0.0-1.0-482.0-0.0","0","0","18668","","460","","","68","53","","","2","53","training","adjacent","FE","6","5","M.jpg","N.jpg","1","0","0","",""
"","feedback","","html-keyboard-response","355","382354","0.0-1.0-483.0-0.0","0","0","18668","","null","","","null","53","","","","","","","","","","","","","","","",""
"","time_out","","html-keyboard-response","356","384371","0.0-1.0-485.0-0.0","0","0","18668","","null","","","null","53","","","","","","","","","","","","","","","",""
"","ITI","","html-keyboard-response","357","385375","0.0-1.0-486.0","0","0","18668","","null","","","null","53","","","","","","","","","","","","","","","NaN",""
"","S1","","html-keyboard-response","358","385529","0.0-1.0-488.0","0","0","18668","","null","","","null","54","","","","","","","","","","","","","","","",""
"","ISI","","html-keyboard-response","359","387541","0.0-1.0-489.0","0","0","18668","","null","","","null","54","NaN","","","","","","","","","","","","","","",""
"","S2","","html-keyboard-response","360","387702","0.0-1.0-490.0","0","0","18668","","null","","","null","54","","NaN","","","","","","","","","","","","","",""
"","response","","html-keyboard-response","361","388056","0.0-1.0-491.0-0.0","0","0","18668","","351","","","68","54","","","2","54","training","adjacent","EF","5","6","N.jpg","M.jpg","1","1","1","",""
"","feedback","","html-keyboard-response","362","389064","0.0-1.0-492.0-0.0","0","0","18668","","null","","","null","54","","","","","","","","","","","","","","","",""
"","ITI","","html-keyboard-response","363","390071","0.0-1.0-495.0","0","0","18668","","null","","","null","54","","","","","","","","","","","","","","","NaN",""
"","S1","","html-keyboard-response","364","390233","0.0-1.0-497.0","0","0","18668","","null","","","null","55","","","","","","","","","","","","","","","",""
"","ISI","","html-keyboard-response","365","392241","0.0-1.0-498.0","0","0","18668","","null","","","null","55","NaN","","","","","","","","","","","","","","",""
"","S2","","html-keyboard-response","366","392411","0.0-1.0-499.0","0","0","18668","","null","","","null","55","","NaN","","","","","","","","","","","","","",""
"","response","","html-keyboard-response","367","392998","0.0-1.0-500.0-0.0","0","0","18668","","582","","","75","55","","","2","55","training","adjacent","BA","2","1","Q.jpg","P.jpg","0","0","1","",""
"","feedback","","html-keyboard-response","368","394013","0.0-1.0-501.0-0.0","0","0","18668","","null","","","null","55","","","","","","","","","","","","","","","",""
"","ITI","","html-keyboard-response","369","395024","0.0-1.0-504.0","0","0","18668","","null","","","null","55","","","","","","","","","","","","","","","NaN",""
"","S1","","html-keyboard-response","370","395178","0.0-1.0-506.0","0","0","18668","","null","","","null","56","","","","","","","","","","","","","","","",""
"","ISI","","html-keyboard-response","371","397182","0.0-1.0-507.0","0","0","18668","","null","","","null","56","NaN","","","","","","","","","","","","","","",""
"","S2","","html-keyboard-response","372","397347","0.0-1.0-508.0","0","0","18668","","null","","","null","56","","NaN","","","","","","","","","","","","","",""
"","response","","html-keyboard-response","373","397852","0.0-1.0-509.0-0.0","0","0","18668","","501","","","68","56","","","2","56","training","adjacent","CD","3","4","O.jpg","R.jpg","1","1","1","",""
"","feedback","","html-keyboard-response","374","398868","0.0-1.0-510.0-0.0","0","0","18668","","null","","","null","56","","","","","","","","","","","","","","","",""
"","ITI","","html-keyboard-response","375","399873","0.0-1.0-513.0","0","0","18668","","null","","","null","56","","","","","","","","","","","","","","","NaN",""
"","S1","","html-keyboard-response","376","400044","0.0-1.0-515.0","0","0","18668","","null","","","null","57","","","","","","","","","","","","","","","",""
"","ISI","","html-keyboard-response","377","402055","0.0-1.0-516.0","0","0","18668","","null","","","null","57","NaN","","","","","","","","","","","","","","",""
"","S2","","html-keyboard-response","378","402214","0.0-1.0-517.0","0","0","18668","","null","","","null","57","","NaN","","","","","","","","","","","","","",""
"","response","","html-keyboard-response","379","402777","0.0-1.0-518.0-0.0","0","0","18668","","559","","","75","57","","","2","57","training","adjacent","DE","4","5","R.jpg","N.jpg","0","1","0","",""
"","feedback","","html-keyboard-response","380","403786","0.0-1.0-519.0-0.0","0","0","18668","","null","","","null","57","","","","","","","","","","","","","","","",""
"","time_out","","html-keyboard-response","381","405794","0.0-1.0-521.0-0.0","0","0","18668","","null","","","null","57","","","","","","","","","","","","","","","",""
"","ITI","","html-keyboard-response","382","406797","0.0-1.0-522.0","0","0","18668","","null","","","null","57","","","","","","","","","","","","","","","NaN",""
"","S1","","html-keyboard-response","383","406951","0.0-1.0-524.0","0","0","18668","","null","","","null","58","","","","","","","","","","","","","","","",""
"","ISI","","html-keyboard-response","384","408955","0.0-1.0-525.0","0","0","18668","","null","","","null","58","NaN","","","","","","","","","","","","","","",""
"","S2","","html-keyboard-response","385","409116","0.0-1.0-526.0","0","0","18668","","null","","","null","58","","NaN","","","","","","","","","","","","","",""
"","response","","html-keyboard-response","386","409510","0.0-1.0-527.0-0.0","0","0","18668","","389","","","68","58","","","2","58","training","adjacent","FE","6","5","M.jpg","N.jpg","1","0","0","",""
"","feedback","","html-keyboard-response","387","410523","0.0-1.0-528.0-0.0","0","0","18668","","null","","","null","58","","","","","","","","","","","","","","","",""
"","time_out","","html-keyboard-response","388","412532","0.0-1.0-530.0-0.0","0","0","18668","","null","","","null","58","","","","","","","","","","","","","","","",""
"","ITI","","html-keyboard-response","389","413538","0.0-1.0-531.0","0","0","18668","","null","","","null","58","","","","","","","","","","","","","","","NaN",""
"","S1","","html-keyboard-response","390","413706","0.0-1.0-533.0","0","0","18668","","null","","","null","59","","","","","","","","","","","","","","","",""
"","ISI","","html-keyboard-response","391","415716","0.0-1.0-534.0","0","0","18668","","null","","","null","59","NaN","","","","","","","","","","","","","","",""
"","S2","","html-keyboard-response","392","415884","0.0-1.0-535.0","0","0","18668","","null","","","null","59","","NaN","","","","","","","","","","","","","",""
"","response","","html-keyboard-response","393","416237","0.0-1.0-536.0-0.0","0","0","18668","","349","","","68","59","","","2","59","training","adjacent","ED","5","4","N.jpg","R.jpg","1","0","0","",""
"","feedback","","html-keyboard-response","394","417247","0.0-1.0-537.0-0.0","0","0","18668","","null","","","null","59","","","","","","","","","","","","","","","",""
"","time_out","","html-keyboard-response","395","419256","0.0-1.0-539.0-0.0","0","0","18668","","null","","","null","59","","","","","","","","","","","","","","","",""
"","ITI","","html-keyboard-response","396","420268","0.0-1.0-540.0","0","0","18668","","null","","","null","59","","","","","","","","","","","","","","","NaN",""
"","S1","","html-keyboard-response","397","420427","0.0-1.0-542.0","0","0","18668","","null","","","null","60","","","","","","","","","","","","","","","",""
"","ISI","","html-keyboard-response","398","422436","0.0-1.0-543.0","0","0","18668","","null","","","null","60","NaN","","","","","","","","","","","","","","",""
"","S2","","html-keyboard-response","399","422607","0.0-1.0-544.0","0","0","18668","","null","","","null","60","","NaN","","","","","","","","","","","","","",""
"","response","","html-keyboard-response","400","423013","0.0-1.0-545.0-0.0","0","0","18668","","402","","","75","60","","","2","60","training","adjacent","DC","4","3","R.jpg","O.jpg","0","0","1","",""
"","feedback","","html-keyboard-response","401","424019","0.0-1.0-546.0-0.0","0","0","18668","","null","","","null","60","","","","","","","","","","","","","","","",""
"","ITI","","html-keyboard-response","402","425027","0.0-1.0-549.0","0","0","18668","","null","","","null","60","","","","","","","","","","","","","","","NaN",""
"","S1","","html-keyboard-response","403","425187","0.0-1.0-551.0","0","0","18668","","null","","","null","61","","","","","","","","","","","","","","","",""
"","ISI","","html-keyboard-response","404","427193","0.0-1.0-552.0","0","0","18668","","null","","","null","61","NaN","","","","","","","","","","","","","","",""
"","S2","","html-keyboard-response","405","427349","0.0-1.0-553.0","0","0","18668","","null","","","null","61","","NaN","","","","","","","","","","","","","",""
"","response","","html-keyboard-response","406","427731","0.0-1.0-554.0-0.0","0","0","18668","","378","","","68","61","","","2","61","training","adjacent","FG","6","7","M.jpg","L.jpg","1","1","1","",""
"","feedback","","html-keyboard-response","407","428740","0.0-1.0-555.0-0.0","0","0","18668","","null","","","null","61","","","","","","","","","","","","","","","",""
"","ITI","","html-keyboard-response","408","429751","0.0-1.0-558.0","0","0","18668","","null","","","null","61","","","","","","","","","","","","","","","NaN",""
"","S1","","html-keyboard-response","409","429921","0.0-1.0-560.0","0","0","18668","","null","","","null","62","","","","","","","","","","","","","","","",""
"","ISI","","html-keyboard-response","410","431927","0.0-1.0-561.0","0","0","18668","","null","","","null","62","NaN","","","","","","","","","","","","","","",""
"","S2","","html-keyboard-response","411","432087","0.0-1.0-562.0","0","0","18668","","null","","","null","62","","NaN","","","","","","","","","","","","","",""
"","response","","html-keyboard-response","412","432570","0.0-1.0-563.0-0.0","0","0","18668","","479","","","68","62","","","2","62","training","adjacent","GF","7","6","L.jpg","M.jpg","1","0","0","",""
"","feedback","","html-keyboard-response","413","433578","0.0-1.0-564.0-0.0","0","0","18668","","null","","","null","62","","","","","","","","","","","","","","","",""
"","time_out","","html-keyboard-response","414","435591","0.0-1.0-566.0-0.0","0","0","18668","","null","","","null","62","","","","","","","","","","","","","","","",""
"","ITI","","html-keyboard-response","415","436597","0.0-1.0-567.0","0","0","18668","","null","","","null","62","","","","","","","","","","","","","","","NaN",""
"","S1","","html-keyboard-response","416","436761","0.0-1.0-569.0","0","0","18668","","null","","","null","63","","","","","","","","","","","","","","","",""
"","ISI","","html-keyboard-response","417","438767","0.0-1.0-570.0","0","0","18668","","null","","","null","63","NaN","","","","","","","","","","","","","","",""
"","S2","","html-keyboard-response","418","438934","0.0-1.0-571.0","0","0","18668","","null","","","null","63","","NaN","","","","","","","","","","","","","",""
"","response","","html-keyboard-response","419","439358","0.0-1.0-572.0-0.0","0","0","18668","","421","","","68","63","","","2","63","training","adjacent","ED","5","4","N.jpg","R.jpg","1","0","0","",""
"","feedback","","html-keyboard-response","420","440368","0.0-1.0-573.0-0.0","0","0","18668","","null","","","null","63","","","","","","","","","","","","","","","",""
"","time_out","","html-keyboard-response","421","442387","0.0-1.0-575.0-0.0","0","0","18668","","null","","","null","63","","","","","","","","","","","","","","","",""
"","ITI","","html-keyboard-response","422","443390","0.0-1.0-576.0","0","0","18668","","null","","","null","63","","","","","","","","","","","","","","","NaN",""
"","S1","","html-keyboard-response","423","443544","0.0-1.0-578.0","0","0","18668","","null","","","null","64","","","","","","","","","","","","","","","",""
"","ISI","","html-keyboard-response","424","445553","0.0-1.0-579.0","0","0","18668","","null","","","null","64","NaN","","","","","","","","","","","","","","",""
"","S2","","html-keyboard-response","425","445721","0.0-1.0-580.0","0","0","18668","","null","","","null","64","","NaN","","","","","","","","","","","","","",""
"","response","","html-keyboard-response","426","446040","0.0-1.0-581.0-0.0","0","0","18668","","315","","","68","64","","","2","64","training","adjacent","AB","1","2","P.jpg","Q.jpg","1","1","1","",""
"","feedback","","html-keyboard-response","427","447048","0.0-1.0-582.0-0.0","0","0","18668","","null","","","null","64","","","","","","","","","","","","","","","",""
"","ITI","","html-keyboard-response","428","448055","0.0-1.0-585.0","0","0","18668","","null","","","null","64","","","","","","","","","","","","","","","NaN",""
"","S1","","html-keyboard-response","429","448213","0.0-1.0-587.0","0","0","18668","","null","","","null","65","","","","","","","","","","","","","","","",""
"","ISI","","html-keyboard-response","430","450218","0.0-1.0-588.0","0","0","18668","","null","","","null","65","NaN","","","","","","","","","","","","","","",""
"","S2","","html-keyboard-response","431","450377","0.0-1.0-589.0","0","0","18668","","null","","","null","65","","NaN","","","","","","","","","","","","","",""
"","response","","html-keyboard-response","432","450646","0.0-1.0-590.0-0.0","0","0","18668","","265","","","68","65","","","2","65","training","adjacent","DE","4","5","R.jpg","N.jpg","1","1","1","",""
"","feedback","","html-keyboard-response","433","451660","0.0-1.0-591.0-0.0","0","0","18668","","null","","","null","65","","","","","","","","","","","","","","","",""
"","ITI","","html-keyboard-response","434","452679","0.0-1.0-594.0","0","0","18668","","null","","","null","65","","","","","","","","","","","","","","","NaN",""
"","S1","","html-keyboard-response","435","452847","0.0-1.0-596.0","0","0","18668","","null","","","null","66","","","","","","","","","","","","","","","",""
"","ISI","","html-keyboard-response","436","454856","0.0-1.0-597.0","0","0","18668","","null","","","null","66","NaN","","","","","","","","","","","","","","",""
"","S2","","html-keyboard-response","437","455017","0.0-1.0-598.0","0","0","18668","","null","","","null","66","","NaN","","","","","","","","","","","","","",""
"","response","","html-keyboard-response","438","455286","0.0-1.0-599.0-0.0","0","0","18668","","265","","","75","66","","","2","66","training","adjacent","BC","2","3","Q.jpg","O.jpg","0","1","0","",""
"","feedback","","html-keyboard-response","439","456305","0.0-1.0-600.0-0.0","0","0","18668","","null","","","null","66","","","","","","","","","","","","","","","",""
"","time_out","","html-keyboard-response","440","458310","0.0-1.0-602.0-0.0","0","0","18668","","null","","","null","66","","","","","","","","","","","","","","","",""
"","ITI","","html-keyboard-response","441","459315","0.0-1.0-603.0","0","0","18668","","null","","","null","66","","","","","","","","","","","","","","","NaN",""
"","S1","","html-keyboard-response","442","459472","0.0-1.0-605.0","0","0","18668","","null","","","null","67","","","","","","","","","","","","","","","",""
"","ISI","","html-keyboard-response","443","461482","0.0-1.0-606.0","0","0","18668","","null","","","null","67","NaN","","","","","","","","","","","","","","",""
"","S2","","html-keyboard-response","444","461642","0.0-1.0-607.0","0","0","18668","","null","","","null","67","","NaN","","","","","","","","","","","","","",""
"","response","","html-keyboard-response","445","461952","0.0-1.0-608.0-0.0","0","0","18668","","306","","","75","67","","","2","67","training","adjacent","BA","2","1","Q.jpg","P.jpg","0","0","1","",""
"","feedback","","html-keyboard-response","446","462962","0.0-1.0-609.0-0.0","0","0","18668","","null","","","null","67","","","","","","","","","","","","","","","",""
"","ITI","","html-keyboard-response","447","463969","0.0-1.0-612.0","0","0","18668","","null","","","null","67","","","","","","","","","","","","","","","NaN",""
"","S1","","html-keyboard-response","448","464128","0.0-1.0-614.0","0","0","18668","","null","","","null","68","","","","","","","","","","","","","","","",""
"","ISI","","html-keyboard-response","449","466138","0.0-1.0-615.0","0","0","18668","","null","","","null","68","NaN","","","","","","","","","","","","","","",""
"","S2","","html-keyboard-response","450","466308","0.0-1.0-616.0","0","0","18668","","null","","","null","68","","NaN","","","","","","","","","","","","","",""
"","response","","html-keyboard-response","451","466782","0.0-1.0-617.0-0.0","0","0","18668","","469","","","68","68","","","2","68","training","adjacent","FE","6","5","M.jpg","N.jpg","1","0","0","",""
"","feedback","","html-keyboard-response","452","467789","0.0-1.0-618.0-0.0","0","0","18668","","null","","","null","68","","","","","","","","","","","","","","","",""
"","time_out","","html-keyboard-response","453","469803","0.0-1.0-620.0-0.0","0","0","18668","","null","","","null","68","","","","","","","","","","","","","","","",""
"","ITI","","html-keyboard-response","454","470811","0.0-1.0-621.0","0","0","18668","","null","","","null","68","","","","","","","","","","","","","","","NaN",""
"","S1","","html-keyboard-response","455","470974","0.0-1.0-623.0","0","0","18668","","null","","","null","69","","","","","","","","","","","","","","","",""
"","ISI","","html-keyboard-response","456","472979","0.0-1.0-624.0","0","0","18668","","null","","","null","69","NaN","","","","","","","","","","","","","","",""
"","S2","","html-keyboard-response","457","473139","0.0-1.0-625.0","0","0","18668","","null","","","null","69","","NaN","","","","","","","","","","","","","",""
"","response","","html-keyboard-response","458","473556","0.0-1.0-626.0-0.0","0","0","18668","","415","","","75","69","","","2","69","training","adjacent","BC","2","3","Q.jpg","O.jpg","0","1","0","",""
"","feedback","","html-keyboard-response","459","474563","0.0-1.0-627.0-0.0","0","0","18668","","null","","","null","69","","","","","","","","","","","","","","","",""
"","time_out","","html-keyboard-response","460","476584","0.0-1.0-629.0-0.0","0","0","18668","","null","","","null","69","","","","","","","","","","","","","","","",""
"","ITI","","html-keyboard-response","461","477595","0.0-1.0-630.0","0","0","18668","","null","","","null","69","","","","","","","","","","","","","","","NaN",""
"","S1","","html-keyboard-response","462","477755","0.0-1.0-632.0","0","0","18668","","null","","","null","70","","","","","","","","","","","","","","","",""
"","ISI","","html-keyboard-response","463","479761","0.0-1.0-633.0","0","0","18668","","null","","","null","70","NaN","","","","","","","","","","","","","","",""
"","S2","","html-keyboard-response","464","479922","0.0-1.0-634.0","0","0","18668","","null","","","null","70","","NaN","","","","","","","","","","","","","",""
"","response","","html-keyboard-response","465","480304","0.0-1.0-635.0-0.0","0","0","18668","","378","","","68","70","","","2","70","training","adjacent","FE","6","5","M.jpg","N.jpg","1","0","0","",""
"","feedback","","html-keyboard-response","466","481313","0.0-1.0-636.0-0.0","0","0","18668","","null","","","null","70","","","","","","","","","","","","","","","",""
"","time_out","","html-keyboard-response","467","483324","0.0-1.0-638.0-0.0","0","0","18668","","null","","","null","70","","","","","","","","","","","","","","","",""
"","ITI","","html-keyboard-response","468","484335","0.0-1.0-639.0","0","0","18668","","null","","","null","70","","","","","","","","","","","","","","","NaN",""
"","S1","","html-keyboard-response","469","484490","0.0-1.0-641.0","0","0","18668","","null","","","null","71","","","","","","","","","","","","","","","",""
"","ISI","","html-keyboard-response","470","486493","0.0-1.0-642.0","0","0","18668","","null","","","null","71","NaN","","","","","","","","","","","","","","",""
"","S2","","html-keyboard-response","471","486657","0.0-1.0-643.0","0","0","18668","","null","","","null","71","","NaN","","","","","","","","","","","","","",""
"","response","","html-keyboard-response","472","486976","0.0-1.0-644.0-0.0","0","0","18668","","316","","","68","71","","","2","71","training","adjacent","AB","1","2","P.jpg","Q.jpg","1","1","1","",""
"","feedback","","html-keyboard-response","473","487990","0.0-1.0-645.0-0.0","0","0","18668","","null","","","null","71","","","","","","","","","","","","","","","",""
"","ITI","","html-keyboard-response","474","488998","0.0-1.0-648.0","0","0","18668","","null","","","null","71","","","","","","","","","","","","","","","NaN",""
"","S1","","html-keyboard-response","475","489155","0.0-1.0-650.0","0","0","18668","","null","","","null","72","","","","","","","","","","","","","","","",""
"","ISI","","html-keyboard-response","476","491160","0.0-1.0-651.0","0","0","18668","","null","","","null","72","NaN","","","","","","","","","","","","","","",""
"","S2","","html-keyboard-response","477","491321","0.0-1.0-652.0","0","0","18668","","null","","","null","72","","NaN","","","","","","","","","","","","","",""
"","response","","html-keyboard-response","478","491853","0.0-1.0-653.0-0.0","0","0","18668","","527","","","75","72","","","2","72","training","adjacent","CD","3","4","O.jpg","R.jpg","0","1","0","",""
"","feedback","","html-keyboard-response","479","492861","0.0-1.0-654.0-0.0","0","0","18668","","null","","","null","72","","","","","","","","","","","","","","","",""
"","time_out","","html-keyboard-response","480","494873","0.0-1.0-656.0-0.0","0","0","18668","","null","","","null","72","","","","","","","","","","","","","","","",""
"","ITI","","html-keyboard-response","481","495878","0.0-1.0-657.0","0","0","18668","","null","","","null","72","","","","","","","","","","","","","","","NaN",""
"","S1","","html-keyboard-response","482","496038","0.0-1.0-659.0","0","0","18668","","null","","","null","73","","","","","","","","","","","","","","","",""
"","ISI","","html-keyboard-response","483","498044","0.0-1.0-660.0","0","0","18668","","null","","","null","73","NaN","","","","","","","","","","","","","","",""
"","S2","","html-keyboard-response","484","498200","0.0-1.0-661.0","0","0","18668","","null","","","null","73","","NaN","","","","","","","","","","","","","",""
"","response","","html-keyboard-response","485","498699","0.0-1.0-662.0-0.0","0","0","18668","","494","","","68","73","","","2","73","training","adjacent","CB","3","2","O.jpg","Q.jpg","1","0","0","",""
"","feedback","","html-keyboard-response","486","499710","0.0-1.0-663.0-0.0","0","0","18668","","null","","","null","73","","","","","","","","","","","","","","","",""
"","time_out","","html-keyboard-response","487","501714","0.0-1.0-665.0-0.0","0","0","18668","","null","","","null","73","","","","","","","","","","","","","","","",""
"","ITI","","html-keyboard-response","488","502720","0.0-1.0-666.0","0","0","18668","","null","","","null","73","","","","","","","","","","","","","","","NaN",""
"","S1","","html-keyboard-response","489","502881","0.0-1.0-668.0","0","0","18668","","null","","","null","74","","","","","","","","","","","","","","","",""
"","ISI","","html-keyboard-response","490","504887","0.0-1.0-669.0","0","0","18668","","null","","","null","74","NaN","","","","","","","","","","","","","","",""
"","S2","","html-keyboard-response","491","505047","0.0-1.0-670.0","0","0","18668","","null","","","null","74","","NaN","","","","","","","","","","","","","",""
"","response","","html-keyboard-response","492","505734","0.0-1.0-671.0-0.0","0","0","18668","","683","","","68","74","","","2","74","training","adjacent","CD","3","4","O.jpg","R.jpg","1","1","1","",""
"","feedback","","html-keyboard-response","493","506747","0.0-1.0-672.0-0.0","0","0","18668","","null","","","null","74","","","","","","","","","","","","","","","",""
"","ITI","","html-keyboard-response","494","507764","0.0-1.0-675.0","0","0","18668","","null","","","null","74","","","","","","","","","","","","","","","NaN",""
"","S1","","html-keyboard-response","495","507918","0.0-1.0-677.0","0","0","18668","","null","","","null","75","","","","","","","","","","","","","","","",""
"","ISI","","html-keyboard-response","496","509924","0.0-1.0-678.0","0","0","18668","","null","","","null","75","NaN","","","","","","","","","","","","","","",""
"","S2","","html-keyboard-response","497","510085","0.0-1.0-679.0","0","0","18668","","null","","","null","75","","NaN","","","","","","","","","","","","","",""
"","response","","html-keyboard-response","498","510505","0.0-1.0-680.0-0.0","0","0","18668","","416","","","68","75","","","2","75","training","adjacent","ED","5","4","N.jpg","R.jpg","1","0","0","",""
"","feedback","","html-keyboard-response","499","511513","0.0-1.0-681.0-0.0","0","0","18668","","null","","","null","75","","","","","","","","","","","","","","","",""
"","time_out","","html-keyboard-response","500","513528","0.0-1.0-683.0-0.0","0","0","18668","","null","","","null","75","","","","","","","","","","","","","","","",""
"","ITI","","html-keyboard-response","501","514534","0.0-1.0-684.0","0","0","18668","","null","","","null","75","","","","","","","","","","","","","","","NaN",""
"","S1","","html-keyboard-response","502","514702","0.0-1.0-686.0","0","0","18668","","null","","","null","76","","","","","","","","","","","","","","","",""
"","ISI","","html-keyboard-response","503","516713","0.0-1.0-687.0","0","0","18668","","null","","","null","76","NaN","","","","","","","","","","","","","","",""
"","S2","","html-keyboard-response","504","516882","0.0-1.0-688.0","0","0","18668","","null","","","null","76","","NaN","","","","","","","","","","","","","",""
"","response","","html-keyboard-response","505","517146","0.0-1.0-689.0-0.0","0","0","18668","","261","","","75","76","","","2","76","training","adjacent","BC","2","3","Q.jpg","O.jpg","0","1","0","",""
"","feedback","","html-keyboard-response","506","518156","0.0-1.0-690.0-0.0","0","0","18668","","null","","","null","76","","","","","","","","","","","","","","","",""
"","time_out","","html-keyboard-response","507","520165","0.0-1.0-692.0-0.0","0","0","18668","","null","","","null","76","","","","","","","","","","","","","","","",""
"","ITI","","html-keyboard-response","508","521174","0.0-1.0-693.0","0","0","18668","","null","","","null","76","","","","","","","","","","","","","","","NaN",""
"","S1","","html-keyboard-response","509","521341","0.0-1.0-695.0","0","0","18668","","null","","","null","77","","","","","","","","","","","","","","","",""
"","ISI","","html-keyboard-response","510","523348","0.0-1.0-696.0","0","0","18668","","null","","","null","77","NaN","","","","","","","","","","","","","","",""
"","S2","","html-keyboard-response","511","523508","0.0-1.0-697.0","0","0","18668","","null","","","null","77","","NaN","","","","","","","","","","","","","",""
"","response","","html-keyboard-response","512","523933","0.0-1.0-698.0-0.0","0","0","18668","","420","","","68","77","","","2","77","training","adjacent","DC","4","3","R.jpg","O.jpg","1","0","0","",""
"","feedback","","html-keyboard-response","513","524949","0.0-1.0-699.0-0.0","0","0","18668","","null","","","null","77","","","","","","","","","","","","","","","",""
"","time_out","","html-keyboard-response","514","526957","0.0-1.0-701.0-0.0","0","0","18668","","null","","","null","77","","","","","","","","","","","","","","","",""
"","ITI","","html-keyboard-response","515","527966","0.0-1.0-702.0","0","0","18668","","null","","","null","77","","","","","","","","","","","","","","","NaN",""
"","S1","","html-keyboard-response","516","528127","0.0-1.0-704.0","0","0","18668","","null","","","null","78","","","","","","","","","","","","","","","",""
"","ISI","","html-keyboard-response","517","530133","0.0-1.0-705.0","0","0","18668","","null","","","null","78","NaN","","","","","","","","","","","","","","",""
"","S2","","html-keyboard-response","518","530290","0.0-1.0-706.0","0","0","18668","","null","","","null","78","","NaN","","","","","","","","","","","","","",""
"","response","","html-keyboard-response","519","530590","0.0-1.0-707.0-0.0","0","0","18668","","295","","","68","78","","","2","78","training","adjacent","AB","1","2","P.jpg","Q.jpg","1","1","1","",""
"","feedback","","html-keyboard-response","520","531606","0.0-1.0-708.0-0.0","0","0","18668","","null","","","null","78","","","","","","","","","","","","","","","",""
"","ITI","","html-keyboard-response","521","532611","0.0-1.0-711.0","0","0","18668","","null","","","null","78","","","","","","","","","","","","","","","NaN",""
"","S1","","html-keyboard-response","522","532771","0.0-1.0-713.0","0","0","18668","","null","","","null","79","","","","","","","","","","","","","","","",""
"","ISI","","html-keyboard-response","523","534778","0.0-1.0-714.0","0","0","18668","","null","","","null","79","NaN","","","","","","","","","","","","","","",""
"","S2","","html-keyboard-response","524","534938","0.0-1.0-715.0","0","0","18668","","null","","","null","79","","NaN","","","","","","","","","","","","","",""
"","response","","html-keyboard-response","525","535292","0.0-1.0-716.0-0.0","0","0","18668","","350","","","68","79","","","2","79","training","adjacent","CB","3","2","O.jpg","Q.jpg","1","0","0","",""
"","feedback","","html-keyboard-response","526","536311","0.0-1.0-717.0-0.0","0","0","18668","","null","","","null","79","","","","","","","","","","","","","","","",""
"","time_out","","html-keyboard-response","527","538318","0.0-1.0-719.0-0.0","0","0","18668","","null","","","null","79","","","","","","","","","","","","","","","",""
"","ITI","","html-keyboard-response","528","539323","0.0-1.0-720.0","0","0","18668","","null","","","null","79","","","","","","","","","","","","","","","NaN",""
"","S1","","html-keyboard-response","529","539484","0.0-1.0-722.0","0","0","18668","","null","","","null","80","","","","","","","","","","","","","","","",""
"","ISI","","html-keyboard-response","530","541488","0.0-1.0-723.0","0","0","18668","","null","","","null","80","NaN","","","","","","","","","","","","","","",""
"","S2","","html-keyboard-response","531","541654","0.0-1.0-724.0","0","0","18668","","null","","","null","80","","NaN","","","","","","","","","","","","","",""
"","response","","html-keyboard-response","532","541968","0.0-1.0-725.0-0.0","0","0","18668","","310","","","75","80","","","2","80","training","adjacent","DE","4","5","R.jpg","N.jpg","0","1","0","",""
"","feedback","","html-keyboard-response","533","542983","0.0-1.0-726.0-0.0","0","0","18668","","null","","","null","80","","","","","","","","","","","","","","","",""
"","time_out","","html-keyboard-response","534","544990","0.0-1.0-728.0-0.0","0","0","18668","","null","","","null","80","","","","","","","","","","","","","","","",""
"","ITI","","html-keyboard-response","535","545998","0.0-1.0-729.0","0","0","18668","","null","","","null","80","","","","","","","","","","","","","","","NaN",""
"","S1","","html-keyboard-response","536","546157","0.0-1.0-731.0","0","0","18668","","null","","","null","81","","","","","","","","","","","","","","","",""
"","ISI","","html-keyboard-response","537","548167","0.0-1.0-732.0","0","0","18668","","null","","","null","81","NaN","","","","","","","","","","","","","","",""
"","S2","","html-keyboard-response","538","548328","0.0-1.0-733.0","0","0","18668","","null","","","null","81","","NaN","","","","","","","","","","","","","",""
"","response","","html-keyboard-response","539","548735","0.0-1.0-734.0-0.0","0","0","18668","","404","","","68","81","","","2","81","training","adjacent","CD","3","4","O.jpg","R.jpg","1","1","1","",""
"","feedback","","html-keyboard-response","540","549753","0.0-1.0-735.0-0.0","0","0","18668","","null","","","null","81","","","","","","","","","","","","","","","",""
"","ITI","","html-keyboard-response","541","550763","0.0-1.0-738.0","0","0","18668","","null","","","null","81","","","","","","","","","","","","","","","NaN",""
"","S1","","html-keyboard-response","542","550925","0.0-1.0-740.0","0","0","18668","","null","","","null","82","","","","","","","","","","","","","","","",""
"","ISI","","html-keyboard-response","543","552932","0.0-1.0-741.0","0","0","18668","","null","","","null","82","NaN","","","","","","","","","","","","","","",""
"","S2","","html-keyboard-response","544","553092","0.0-1.0-742.0","0","0","18668","","null","","","null","82","","NaN","","","","","","","","","","","","","",""
"","response","","html-keyboard-response","545","553406","0.0-1.0-743.0-0.0","0","0","18668","","310","","","68","82","","","2","82","training","adjacent","FG","6","7","M.jpg","L.jpg","1","1","1","",""
"","feedback","","html-keyboard-response","546","554422","0.0-1.0-744.0-0.0","0","0","18668","","null","","","null","82","","","","","","","","","","","","","","","",""
"","ITI","","html-keyboard-response","547","555433","0.0-1.0-747.0","0","0","18668","","null","","","null","82","","","","","","","","","","","","","","","NaN",""
"","S1","","html-keyboard-response","548","555600","0.0-1.0-749.0","0","0","18668","","null","","","null","83","","","","","","","","","","","","","","","",""
"","ISI","","html-keyboard-response","549","557606","0.0-1.0-750.0","0","0","18668","","null","","","null","83","NaN","","","","","","","","","","","","","","",""
"","S2","","html-keyboard-response","550","557776","0.0-1.0-751.0","0","0","18668","","null","","","null","83","","NaN","","","","","","","","","","","","","",""
"","response","","html-keyboard-response","551","558139","0.0-1.0-752.0-0.0","0","0","18668","","359","","","68","83","","","2","83","training","adjacent","EF","5","6","N.jpg","M.jpg","1","1","1","",""
"","feedback","","html-keyboard-response","552","559159","0.0-1.0-753.0-0.0","0","0","18668","","null","","","null","83","","","","","","","","","","","","","","","",""
"","ITI","","html-keyboard-response","553","560167","0.0-1.0-756.0","0","0","18668","","null","","","null","83","","","","","","","","","","","","","","","NaN",""
"","S1","","html-keyboard-response","554","560327","0.0-1.0-758.0","0","0","18668","","null","","","null","84","","","","","","","","","","","","","","","",""
"","ISI","","html-keyboard-response","555","562337","0.0-1.0-759.0","0","0","18668","","null","","","null","84","NaN","","","","","","","","","","","","","","",""
"","S2","","html-keyboard-response","556","562495","0.0-1.0-760.0","0","0","18668","","null","","","null","84","","NaN","","","","","","","","","","","","","",""
"","response","","html-keyboard-response","557","562866","0.0-1.0-761.0-0.0","0","0","18668","","370","","","68","84","","","2","84","training","adjacent","CB","3","2","O.jpg","Q.jpg","1","0","0","",""
"","feedback","","html-keyboard-response","558","563878","0.0-1.0-762.0-0.0","0","0","18668","","null","","","null","84","","","","","","","","","","","","","","","",""
"","time_out","","html-keyboard-response","559","565887","0.0-1.0-764.0-0.0","0","0","18668","","null","","","null","84","","","","","","","","","","","","","","","",""
"","ITI","","html-keyboard-response","560","566894","0.0-1.0-765.0","0","0","18668","","null","","","null","84","","","","","","","","","","","","","","","NaN",""
"","S1","","html-keyboard-response","561","567052","0.0-1.0-767.0","0","0","18668","","null","","","null","85","","","","","","","","","","","","","","","",""
"","ISI","","html-keyboard-response","562","569057","0.0-1.0-768.0","0","0","18668","","null","","","null","85","NaN","","","","","","","","","","","","","","",""
"","S2","","html-keyboard-response","563","569218","0.0-1.0-769.0","0","0","18668","","null","","","null","85","","NaN","","","","","","","","","","","","","",""
"","response","","html-keyboard-response","564","569532","0.0-1.0-770.0-0.0","0","0","18668","","309","","","75","85","","","2","85","training","adjacent","DE","4","5","R.jpg","N.jpg","0","1","0","",""
"","feedback","","html-keyboard-response","565","570537","0.0-1.0-771.0-0.0","0","0","18668","","null","","","null","85","","","","","","","","","","","","","","","",""
"","time_out","","html-keyboard-response","566","572545","0.0-1.0-773.0-0.0","0","0","18668","","null","","","null","85","","","","","","","","","","","","","","","",""
"","ITI","","html-keyboard-response","567","573556","0.0-1.0-774.0","0","0","18668","","null","","","null","85","","","","","","","","","","","","","","","NaN",""
"","S1","","html-keyboard-response","568","573711","0.0-1.0-776.0","0","0","18668","","null","","","null","86","","","","","","","","","","","","","","","",""
"","ISI","","html-keyboard-response","569","575718","0.0-1.0-777.0","0","0","18668","","null","","","null","86","NaN","","","","","","","","","","","","","","",""
"","S2","","html-keyboard-response","570","575878","0.0-1.0-778.0","0","0","18668","","null","","","null","86","","NaN","","","","","","","","","","","","","",""
"","response","","html-keyboard-response","571","576200","0.0-1.0-779.0-0.0","0","0","18668","","318","","","68","86","","","2","86","training","adjacent","GF","7","6","L.jpg","M.jpg","1","0","0","",""
"","feedback","","html-keyboard-response","572","577218","0.0-1.0-780.0-0.0","0","0","18668","","null","","","null","86","","","","","","","","","","","","","","","",""
"","time_out","","html-keyboard-response","573","579222","0.0-1.0-782.0-0.0","0","0","18668","","null","","","null","86","","","","","","","","","","","","","","","",""
"","ITI","","html-keyboard-response","574","580232","0.0-1.0-783.0","0","0","18668","","null","","","null","86","","","","","","","","","","","","","","","NaN",""
"","S1","","html-keyboard-response","575","580393","0.0-1.0-785.0","0","0","18668","","null","","","null","87","","","","","","","","","","","","","","","",""
"","ISI","","html-keyboard-response","576","582397","0.0-1.0-786.0","0","0","18668","","null","","","null","87","NaN","","","","","","","","","","","","","","",""
"","S2","","html-keyboard-response","577","582560","0.0-1.0-787.0","0","0","18668","","null","","","null","87","","NaN","","","","","","","","","","","","","",""
"","response","","html-keyboard-response","578","582884","0.0-1.0-788.0-0.0","0","0","18668","","321","","","75","87","","","2","87","training","adjacent","DC","4","3","R.jpg","O.jpg","0","0","1","",""
"","feedback","","html-keyboard-response","579","583892","0.0-1.0-789.0-0.0","0","0","18668","","null","","","null","87","","","","","","","","","","","","","","","",""
"","ITI","","html-keyboard-response","580","584897","0.0-1.0-792.0","0","0","18668","","null","","","null","87","","","","","","","","","","","","","","","NaN",""
"","S1","","html-keyboard-response","581","585059","0.0-1.0-794.0","0","0","18668","","null","","","null","88","","","","","","","","","","","","","","","",""
"","ISI","","html-keyboard-response","582","587068","0.0-1.0-795.0","0","0","18668","","null","","","null","88","NaN","","","","","","","","","","","","","","",""
"","S2","","html-keyboard-response","583","587232","0.0-1.0-796.0","0","0","18668","","null","","","null","88","","NaN","","","","","","","","","","","","","",""
