"success","ttype","start_time","trial_type","trial_index","time_elapsed","internal_node_id","warning","missed_checkup","PID","view_history","rt","responses","repeat_instructions","key_press","index","keypress_isi","keypress_S2","block","trial_num","phase","group_type","pair_type","S1_stim","S2_stim","S1_img","S2_img","S1_chosen","S1_higher","accuracy","keypress_iti","total_bonus_tally"
"true","full_screen","d08012022hr1340","fullscreen","0","9085","0.0-0.0","0","0","69308","","","","","","","","","","","","","","","","","","","","","",""
"","instructions","","instructions","1","33023","0.0-1.0-0.0-0.0","0","0","69308","[{""page_index"":0,""viewing_time"":2762},{""page_index"":1,""viewing_time"":10613},{""page_index"":2,""viewing_time"":9140},{""page_index"":3,""viewing_time"":1421}]","23937","","","","","","","","","","","","","","","","","","","",""
"","comprehension_check","","survey-multi-choice","2","50150","0.0-1.0-0.0-1.0","0","0","69308","","17122","{""Q0"":""True"",""Q1"":""D"",""Q2"":""When you see the prompt 'MAKE A CHOICE' after the second image was presented"",""Q3"":""Green mark"",""Q4"":""either D or K""}","0","","","","","","","","","","","","","","","","","",""
"","start_exp","","html-keyboard-response","3","51474","0.0-1.0-1.0","0","0","69308","","1318","","","32","","","","","","","","","","","","","","","","",""
"","S1","","html-keyboard-response","4","51729","0.0-1.0-2.0","0","0","69308","","null","","","null","0","","","","","","","","","","","","","","","",""
"","ISI","","html-keyboard-response","5","53734","0.0-1.0-3.0","0","0","69308","","null","","","null","0","NaN","","","","","","","","","","","","","","",""
"","S2","","html-keyboard-response","6","53990","0.0-1.0-4.0","0","0","69308","","null","","","null","0","","NaN","","","","","","","","","","","","","",""
"","response","","html-keyboard-response","7","54567","0.0-1.0-5.0","0","0","69308","","575","","","68","0","","","1","0","training","adjacent","ED","5","4","N.jpg","R.jpg","1","0","0","",""
"","feedback","","html-keyboard-response","8","55569","0.0-1.0-6.0-0.0","0","0","69308","","null","","","null","0","","","","","","","","","","","","","","","",""
"","time_out","","html-keyboard-response","9","57574","0.0-1.0-8.0-0.0","0","0","69308","","null","","","null","0","","","","","","","","","","","","","","","",""
"","ITI","","html-keyboard-response","10","58577","0.0-1.0-9.0","0","0","69308","","null","","","null","0","","","","","","","","","","","","","","","NaN",""
"","S1","","html-keyboard-response","11","58833","0.0-1.0-11.0","0","0","69308","","null","","","null","1","","","","","","","","","","","","","","","",""
"","ISI","","html-keyboard-response","12","60838","0.0-1.0-12.0","0","0","69308","","null","","","null","1","NaN","","","","","","","","","","","","","","",""
"","S2","","html-keyboard-response","13","61094","0.0-1.0-13.0","0","0","69308","","null","","","null","1","","NaN","","","","","","","","","","","","","",""
"","response","","html-keyboard-response","14","61404","0.0-1.0-14.0","0","0","69308","","308","","","68","1","","","1","1","training","adjacent","BC","2","3","O.jpg","L.jpg","1","1","1","",""
"","feedback","","html-keyboard-response","15","62410","0.0-1.0-15.0-0.0","0","0","69308","","null","","","null","1","","","","","","","","","","","","","","","",""
"","ITI","","html-keyboard-response","16","63414","0.0-1.0-18.0","0","0","69308","","null","","","null","1","","","","","","","","","","","","","","","NaN",""
"","S1","","html-keyboard-response","17","63670","0.0-1.0-20.0","0","0","69308","","null","","","null","2","","","","","","","","","","","","","","","",""
"","ISI","","html-keyboard-response","18","65676","0.0-1.0-21.0","0","0","69308","","null","","","null","2","NaN","","","","","","","","","","","","","","",""
"","S2","","html-keyboard-response","19","65931","0.0-1.0-22.0","0","0","69308","","null","","","null","2","","NaN","","","","","","","","","","","","","",""
"","response","","html-keyboard-response","20","66075","0.0-1.0-23.0","0","0","69308","","141","","","75","2","","","1","2","training","adjacent","AB","1","2","P.jpg","O.jpg","0","1","0","",""
"","feedback","","html-keyboard-response","21","67078","0.0-1.0-24.0-0.0","0","0","69308","","null","","","null","2","","","","","","","","","","","","","","","",""
"","time_out","","html-keyboard-response","22","69084","0.0-1.0-26.0-0.0","0","0","69308","","null","","","null","2","","","","","","","","","","","","","","","",""
"","ITI","","html-keyboard-response","23","70090","0.0-1.0-27.0","0","0","69308","","null","","","null","2","","","","","","","","","","","","","","","NaN",""
"","S1","","html-keyboard-response","24","70342","0.0-1.0-29.0","0","0","69308","","null","","","null","3","","","","","","","","","","","","","","","",""
"","ISI","","html-keyboard-response","25","72348","0.0-1.0-30.0","0","0","69308","","null","","","null","3","NaN","","","","","","","","","","","","","","",""
"","S2","","html-keyboard-response","26","72604","0.0-1.0-31.0","0","0","69308","","null","","","null","3","","NaN","","","","","","","","","","","","","",""
"","response","","html-keyboard-response","27","72695","0.0-1.0-32.0","0","0","69308","","90","","","68","3","","","1","3","training","adjacent","FE","6","5","Q.jpg","N.jpg","1","0","0","",""
"","feedback","","html-keyboard-response","28","73697","0.0-1.0-33.0-0.0","0","0","69308","","null","","","null","3","","","","","","","","","","","","","","","",""
"","time_out","","html-keyboard-response","29","75702","0.0-1.0-35.0-0.0","0","0","69308","","null","","","null","3","","","","","","","","","","","","","","","",""
"","ITI","","html-keyboard-response","30","76705","0.0-1.0-36.0","0","0","69308","","null","","","null","3","","","","","","","","","","","","","","","NaN",""
"","S1","","html-keyboard-response","31","76961","0.0-1.0-38.0","0","0","69308","","null","","","null","4","","","","","","","","","","","","","","","",""
"","ISI","","html-keyboard-response","32","78966","0.0-1.0-39.0","0","0","69308","","null","","","null","4","NaN","","","","","","","","","","","","","","",""
"","S2","","html-keyboard-response","33","79222","0.0-1.0-40.0","0","0","69308","","null","","","null","4","","NaN","","","","","","","","","","","","","",""
"","response","","html-keyboard-response","34","79858","0.0-1.0-41.0","0","0","69308","","634","","","68","4","","","1","4","training","adjacent","FG","6","7","Q.jpg","M.jpg","1","1","1","",""
"","feedback","","html-keyboard-response","35","80865","0.0-1.0-42.0-0.0","0","0","69308","","null","","","null","4","","","","","","","","","","","","","","","",""
"","ITI","","html-keyboard-response","36","81867","0.0-1.0-45.0","0","0","69308","","null","","","null","4","","","","","","","","","","","","","","","NaN",""
"","S1","","html-keyboard-response","37","82123","0.0-1.0-47.0","0","0","69308","","null","","","null","5","","","","","","","","","","","","","","","",""
"","ISI","","html-keyboard-response","38","84129","0.0-1.0-48.0","0","0","69308","","null","","","null","5","NaN","","","","","","","","","","","","","","",""
"","S2","","html-keyboard-response","39","84385","0.0-1.0-49.0","0","0","69308","","null","","","null","5","","NaN","","","","","","","","","","","","","",""
"","response","","html-keyboard-response","40","84750","0.0-1.0-50.0","0","0","69308","","363","","","75","5","","","1","5","training","adjacent","CB","3","2","L.jpg","O.jpg","0","0","1","",""
"","feedback","","html-keyboard-response","41","85756","0.0-1.0-51.0-0.0","0","0","69308","","null","","","null","5","","","","","","","","","","","","","","","",""
"","ITI","","html-keyboard-response","42","86760","0.0-1.0-54.0","0","0","69308","","null","","","null","5","","","","","","","","","","","","","","","NaN",""
"","S1","","html-keyboard-response","43","87014","0.0-1.0-56.0","0","0","69308","","null","","","null","6","","","","","","","","","","","","","","","",""
"","ISI","","html-keyboard-response","44","89020","0.0-1.0-57.0","0","0","69308","","null","","","null","6","NaN","","","","","","","","","","","","","","",""
"","S2","","html-keyboard-response","45","89275","0.0-1.0-58.0","0","0","69308","","null","","","null","6","","NaN","","","","","","","","","","","","","",""
"","response","","html-keyboard-response","46","89564","0.0-1.0-59.0","0","0","69308","","287","","","68","6","","","1","6","training","adjacent","GF","7","6","M.jpg","Q.jpg","1","0","0","",""
"","feedback","","html-keyboard-response","47","90566","0.0-1.0-60.0-0.0","0","0","69308","","null","","","null","6","","","","","","","","","","","","","","","",""
"","time_out","","html-keyboard-response","48","92572","0.0-1.0-62.0-0.0","0","0","69308","","null","","","null","6","","","","","","","","","","","","","","","",""
"","ITI","","html-keyboard-response","49","93574","0.0-1.0-63.0","0","0","69308","","null","","","null","6","","","","","","","","","","","","","","","NaN",""
"","S1","","html-keyboard-response","50","93830","0.0-1.0-65.0","0","0","69308","","null","","","null","7","","","","","","","","","","","","","","","",""
"","ISI","","html-keyboard-response","51","95836","0.0-1.0-66.0","0","0","69308","","null","","","null","7","NaN","","","","","","","","","","","","","","",""
"","S2","","html-keyboard-response","52","96092","0.0-1.0-67.0","0","0","69308","","null","","","null","7","","NaN","","","","","","","","","","","","","",""
"","response","","html-keyboard-response","53","96159","0.0-1.0-68.0","0","0","69308","","65","","","75","7","","","1","7","training","adjacent","DC","4","3","R.jpg","L.jpg","0","0","1","",""
"","feedback","","html-keyboard-response","54","97163","0.0-1.0-69.0-0.0","0","0","69308","","null","","","null","7","","","","","","","","","","","","","","","",""
"","ITI","","html-keyboard-response","55","98166","0.0-1.0-72.0","0","0","69308","","null","","","null","7","","","","","","","","","","","","","","","NaN",""
"","S1","","html-keyboard-response","56","98422","0.0-1.0-74.0","0","0","69308","","null","","","null","8","","","","","","","","","","","","","","","",""
"","ISI","","html-keyboard-response","57","100428","0.0-1.0-75.0","0","0","69308","","null","","","null","8","NaN","","","","","","","","","","","","","","",""
"","S2","","html-keyboard-response","58","100683","0.0-1.0-76.0","0","0","69308","","null","","","null","8","","NaN","","","","","","","","","","","","","",""
"","response","","html-keyboard-response","59","100878","0.0-1.0-77.0","0","0","69308","","193","","","68","8","","","1","8","training","adjacent","BA","2","1","O.jpg","P.jpg","1","0","0","",""
"","feedback","","html-keyboard-response","60","101884","0.0-1.0-78.0-0.0","0","0","69308","","null","","","null","8","","","","","","","","","","","","","","","",""
"","time_out","","html-keyboard-response","61","103889","0.0-1.0-80.0-0.0","0","0","69308","","null","","","null","8","","","","","","","","","","","","","","","",""
"","ITI","","html-keyboard-response","62","104892","0.0-1.0-81.0","0","0","69308","","null","","","null","8","","","","","","","","","","","","","","","NaN",""
"","S1","","html-keyboard-response","63","105148","0.0-1.0-83.0","0","0","69308","","null","","","null","9","","","","","","","","","","","","","","","",""
"","ISI","","html-keyboard-response","64","107153","0.0-1.0-84.0","0","0","69308","","null","","","null","9","NaN","","","","","","","","","","","","","","",""
"","S2","","html-keyboard-response","65","107409","0.0-1.0-85.0","0","0","69308","","null","","","null","9","","NaN","","","","","","","","","","","","","",""
"","response","","html-keyboard-response","66","107558","0.0-1.0-86.0","0","0","69308","","148","","","68","9","","","1","9","training","adjacent","GF","7","6","M.jpg","Q.jpg","1","0","0","",""
"","feedback","","html-keyboard-response","67","108560","0.0-1.0-87.0-0.0","0","0","69308","","null","","","null","9","","","","","","","","","","","","","","","",""
"","time_out","","html-keyboard-response","68","110566","0.0-1.0-89.0-0.0","0","0","69308","","null","","","null","9","","","","","","","","","","","","","","","",""
"","ITI","","html-keyboard-response","69","111568","0.0-1.0-90.0","0","0","69308","","null","","","null","9","","","","","","","","","","","","","","","NaN",""
"","S1","","html-keyboard-response","70","111825","0.0-1.0-92.0","0","0","69308","","null","","","null","10","","","","","","","","","","","","","","","",""
"","ISI","","html-keyboard-response","71","113830","0.0-1.0-93.0","0","0","69308","","null","","","null","10","NaN","","","","","","","","","","","","","","",""
"","S2","","html-keyboard-response","72","114086","0.0-1.0-94.0","0","0","69308","","null","","","null","10","","NaN","","","","","","","","","","","","","",""
"","response","","html-keyboard-response","73","114309","0.0-1.0-95.0","0","0","69308","","221","","","75","10","","","1","10","training","adjacent","AB","1","2","P.jpg","O.jpg","0","1","0","",""
"","feedback","","html-keyboard-response","74","115313","0.0-1.0-96.0-0.0","0","0","69308","","null","","","null","10","","","","","","","","","","","","","","","",""
"","time_out","","html-keyboard-response","75","117319","0.0-1.0-98.0-0.0","0","0","69308","","null","","","null","10","","","","","","","","","","","","","","","",""
"","ITI","","html-keyboard-response","76","118320","0.0-1.0-99.0","0","0","69308","","null","","","null","10","","","","","","","","","","","","","","","NaN",""
"","S1","","html-keyboard-response","77","118577","0.0-1.0-101.0","0","0","69308","","null","","","null","11","","","","","","","","","","","","","","","",""
"","ISI","","html-keyboard-response","78","120582","0.0-1.0-102.0","0","0","69308","","null","","","null","11","NaN","","","","","","","","","","","","","","",""
"","S2","","html-keyboard-response","79","120838","0.0-1.0-103.0","0","0","69308","","null","","","null","11","","NaN","","","","","","","","","","","","","",""
"","response","","html-keyboard-response","80","121449","0.0-1.0-104.0","0","0","69308","","608","","","75","11","","","1","11","training","adjacent","FG","6","7","Q.jpg","M.jpg","0","1","0","",""
"","feedback","","html-keyboard-response","81","122454","0.0-1.0-105.0-0.0","0","0","69308","","null","","","null","11","","","","","","","","","","","","","","","",""
"","time_out","","html-keyboard-response","82","124460","0.0-1.0-107.0-0.0","0","0","69308","","null","","","null","11","","","","","","","","","","","","","","","",""
"","ITI","","html-keyboard-response","83","125463","0.0-1.0-108.0","0","0","69308","","null","","","null","11","","","","","","","","","","","","","","","NaN",""
"","S1","","html-keyboard-response","84","125718","0.0-1.0-110.0","0","0","69308","","null","","","null","12","","","","","","","","","","","","","","","",""
"","ISI","","html-keyboard-response","85","127724","0.0-1.0-111.0","0","0","69308","","null","","","null","12","NaN","","","","","","","","","","","","","","",""
"","S2","","html-keyboard-response","86","127980","0.0-1.0-112.0","0","0","69308","","null","","","null","12","","NaN","","","","","","","","","","","","","",""
"","response","","html-keyboard-response","87","128468","0.0-1.0-113.0","0","0","69308","","487","","","68","12","","","1","12","training","adjacent","FG","6","7","Q.jpg","M.jpg","1","1","1","",""
"","feedback","","html-keyboard-response","88","129473","0.0-1.0-114.0-0.0","0","0","69308","","null","","","null","12","","","","","","","","","","","","","","","",""
"","ITI","","html-keyboard-response","89","130476","0.0-1.0-117.0","0","0","69308","","null","","","null","12","","","","","","","","","","","","","","","NaN",""
"","S1","","html-keyboard-response","90","130732","0.0-1.0-119.0","0","0","69308","","null","","","null","13","","","","","","","","","","","","","","","",""
"","ISI","","html-keyboard-response","91","132737","0.0-1.0-120.0","0","0","69308","","null","","","null","13","NaN","","","","","","","","","","","","","","",""
"","S2","","html-keyboard-response","92","132993","0.0-1.0-121.0","0","0","69308","","null","","","null","13","","NaN","","","","","","","","","","","","","",""
"","response","","html-keyboard-response","93","133864","0.0-1.0-122.0","0","0","69308","","869","","","75","13","","","1","13","training","adjacent","AB","1","2","P.jpg","O.jpg","0","1","0","",""
"","feedback","","html-keyboard-response","94","134870","0.0-1.0-123.0-0.0","0","0","69308","","null","","","null","13","","","","","","","","","","","","","","","",""
"","time_out","","html-keyboard-response","95","136876","0.0-1.0-125.0-0.0","0","0","69308","","null","","","null","13","","","","","","","","","","","","","","","",""
"","ITI","","html-keyboard-response","96","137878","0.0-1.0-126.0","0","0","69308","","null","","","null","13","","","","","","","","","","","","","","","NaN",""
"","S1","","html-keyboard-response","97","138135","0.0-1.0-128.0","0","0","69308","","null","","","null","14","","","","","","","","","","","","","","","",""
"","ISI","","html-keyboard-response","98","140140","0.0-1.0-129.0","0","0","69308","","null","","","null","14","NaN","","","","","","","","","","","","","","",""
"","S2","","html-keyboard-response","99","140396","0.0-1.0-130.0","0","0","69308","","null","","","null","14","","NaN","","","","","","","","","","","","","",""
"","response","","html-keyboard-response","100","140790","0.0-1.0-131.0","0","0","69308","","393","","","75","14","","","1","14","training","adjacent","CD","3","4","L.jpg","R.jpg","0","1","0","",""
"","feedback","","html-keyboard-response","101","141793","0.0-1.0-132.0-0.0","0","0","69308","","null","","","null","14","","","","","","","","","","","","","","","",""
"","time_out","","html-keyboard-response","102","143799","0.0-1.0-134.0-0.0","0","0","69308","","null","","","null","14","","","","","","","","","","","","","","","",""
"","ITI","","html-keyboard-response","103","144801","0.0-1.0-135.0","0","0","69308","","null","","","null","14","","","","","","","","","","","","","","","NaN",""
"","S1","","html-keyboard-response","104","145057","0.0-1.0-137.0","0","0","69308","","null","","","null","15","","","","","","","","","","","","","","","",""
"","ISI","","html-keyboard-response","105","147062","0.0-1.0-138.0","0","0","69308","","null","","","null","15","NaN","","","","","","","","","","","","","","",""
"","S2","","html-keyboard-response","106","147319","0.0-1.0-139.0","0","0","69308","","null","","","null","15","","NaN","","","","","","","","","","","","","",""
"","response","","html-keyboard-response","107","147879","0.0-1.0-140.0","0","0","69308","","558","","","75","15","","","1","15","training","adjacent","EF","5","6","N.jpg","Q.jpg","0","1","0","",""
"","feedback","","html-keyboard-response","108","148881","0.0-1.0-141.0-0.0","0","0","69308","","null","","","null","15","","","","","","","","","","","","","","","",""
"","time_out","","html-keyboard-response","109","150886","0.0-1.0-143.0-0.0","0","0","69308","","null","","","null","15","","","","","","","","","","","","","","","",""
"","ITI","","html-keyboard-response","110","151889","0.0-1.0-144.0","0","0","69308","","null","","","null","15","","","","","","","","","","","","","","","NaN",""
"","S1","","html-keyboard-response","111","152145","0.0-1.0-146.0","0","0","69308","","null","","","null","16","","","","","","","","","","","","","","","",""
"","ISI","","html-keyboard-response","112","154150","0.0-1.0-147.0","0","0","69308","","null","","","null","16","NaN","","","","","","","","","","","","","","",""
"","S2","","html-keyboard-response","113","154406","0.0-1.0-148.0","0","0","69308","","null","","","null","16","","NaN","","","","","","","","","","","","","",""
"","response","","html-keyboard-response","114","154797","0.0-1.0-149.0","0","0","69308","","389","","","75","16","","","1","16","training","adjacent","BA","2","1","O.jpg","P.jpg","0","0","1","",""
"","feedback","","html-keyboard-response","115","155804","0.0-1.0-150.0-0.0","0","0","69308","","null","","","null","16","","","","","","","","","","","","","","","",""
"","ITI","","html-keyboard-response","116","156807","0.0-1.0-153.0","0","0","69308","","null","","","null","16","","","","","","","","","","","","","","","NaN",""
"","S1","","html-keyboard-response","117","157059","0.0-1.0-155.0","0","0","69308","","null","","","null","17","","","","","","","","","","","","","","","",""
"","ISI","","html-keyboard-response","118","159062","0.0-1.0-156.0","0","0","69308","","null","","","null","17","NaN","","","","","","","","","","","","","","",""
"","S2","","html-keyboard-response","119","159319","0.0-1.0-157.0","0","0","69308","","null","","","null","17","","NaN","","","","","","","","","","","","","",""
"","response","","html-keyboard-response","120","159715","0.0-1.0-158.0","0","0","69308","","395","","","75","17","","","1","17","training","adjacent","DC","4","3","R.jpg","L.jpg","0","0","1","",""
"","feedback","","html-keyboard-response","121","160721","0.0-1.0-159.0-0.0","0","0","69308","","null","","","null","17","","","","","","","","","","","","","","","",""
"","ITI","","html-keyboard-response","122","161724","0.0-1.0-162.0","0","0","69308","","null","","","null","17","","","","","","","","","","","","","","","NaN",""
"","S1","","html-keyboard-response","123","161980","0.0-1.0-164.0","0","0","69308","","null","","","null","18","","","","","","","","","","","","","","","",""
"","ISI","","html-keyboard-response","124","163985","0.0-1.0-165.0","0","0","69308","","null","","","null","18","NaN","","","","","","","","","","","","","","",""
"","S2","","html-keyboard-response","125","164241","0.0-1.0-166.0","0","0","69308","","null","","","null","18","","NaN","","","","","","","","","","","","","",""
"","response","","html-keyboard-response","126","164741","0.0-1.0-167.0","0","0","69308","","498","","","68","18","","","1","18","training","adjacent","DE","4","5","R.jpg","N.jpg","1","1","1","",""
"","feedback","","html-keyboard-response","127","165745","0.0-1.0-168.0-0.0","0","0","69308","","null","","","null","18","","","","","","","","","","","","","","","",""
"","ITI","","html-keyboard-response","128","166748","0.0-1.0-171.0","0","0","69308","","null","","","null","18","","","","","","","","","","","","","","","NaN",""
"","S1","","html-keyboard-response","129","167001","0.0-1.0-173.0","0","0","69308","","null","","","null","19","","","","","","","","","","","","","","","",""
"","ISI","","html-keyboard-response","130","169004","0.0-1.0-174.0","0","0","69308","","null","","","null","19","NaN","","","","","","","","","","","","","","",""
"","S2","","html-keyboard-response","131","169260","0.0-1.0-175.0","0","0","69308","","null","","","null","19","","NaN","","","","","","","","","","","","","",""
"","response","","html-keyboard-response","132","169420","0.0-1.0-176.0","0","0","69308","","159","","","75","19","","","1","19","training","adjacent","BA","2","1","O.jpg","P.jpg","0","0","1","",""
"","feedback","","html-keyboard-response","133","170423","0.0-1.0-177.0-0.0","0","0","69308","","null","","","null","19","","","","","","","","","","","","","","","",""
"","ITI","","html-keyboard-response","134","171425","0.0-1.0-180.0","0","0","69308","","null","","","null","19","","","","","","","","","","","","","","","NaN",""
"","S1","","html-keyboard-response","135","171681","0.0-1.0-182.0","0","0","69308","","null","","","null","20","","","","","","","","","","","","","","","",""
"","ISI","","html-keyboard-response","136","173686","0.0-1.0-183.0","0","0","69308","","null","","","null","20","NaN","","","","","","","","","","","","","","",""
"","S2","","html-keyboard-response","137","173943","0.0-1.0-184.0","0","0","69308","","null","","","null","20","","NaN","","","","","","","","","","","","","",""
"","response","","html-keyboard-response","138","174388","0.0-1.0-185.0","0","0","69308","","444","","","68","20","","","1","20","training","adjacent","ED","5","4","N.jpg","R.jpg","1","0","0","",""
"","feedback","","html-keyboard-response","139","175393","0.0-1.0-186.0-0.0","0","0","69308","","null","","","null","20","","","","","","","","","","","","","","","",""
"","time_out","","html-keyboard-response","140","177399","0.0-1.0-188.0-0.0","0","0","69308","","null","","","null","20","","","","","","","","","","","","","","","",""
"","ITI","","html-keyboard-response","141","178401","0.0-1.0-189.0","0","0","69308","","null","","","null","20","","","","","","","","","","","","","","","NaN",""
"","S1","","html-keyboard-response","142","178657","0.0-1.0-191.0","0","0","69308","","null","","","null","21","","","","","","","","","","","","","","","",""
"","ISI","","html-keyboard-response","143","180663","0.0-1.0-192.0","0","0","69308","","null","","","null","21","NaN","","","","","","","","","","","","","","",""
"","S2","","html-keyboard-response","144","180918","0.0-1.0-193.0","0","0","69308","","null","","","null","21","","NaN","","","","","","","","","","","","","",""
"","response","","html-keyboard-response","145","181361","0.0-1.0-194.0","0","0","69308","","441","","","68","21","","","1","21","training","adjacent","DC","4","3","R.jpg","L.jpg","1","0","0","",""
"","feedback","","html-keyboard-response","146","182364","0.0-1.0-195.0-0.0","0","0","69308","","null","","","null","21","","","","","","","","","","","","","","","",""
"","time_out","","html-keyboard-response","147","184369","0.0-1.0-197.0-0.0","0","0","69308","","null","","","null","21","","","","","","","","","","","","","","","",""
"","ITI","","html-keyboard-response","148","185372","0.0-1.0-198.0","0","0","69308","","null","","","null","21","","","","","","","","","","","","","","","NaN",""
"","S1","","html-keyboard-response","149","185628","0.0-1.0-200.0","0","0","69308","","null","","","null","22","","","","","","","","","","","","","","","",""
"","ISI","","html-keyboard-response","150","187633","0.0-1.0-201.0","0","0","69308","","null","","","null","22","NaN","","","","","","","","","","","","","","",""
"","S2","","html-keyboard-response","151","187889","0.0-1.0-202.0","0","0","69308","","null","","","null","22","","NaN","","","","","","","","","","","","","",""
"","response","","html-keyboard-response","152","188412","0.0-1.0-203.0","0","0","69308","","520","","","68","22","","","1","22","training","adjacent","FE","6","5","Q.jpg","N.jpg","1","0","0","",""
"","feedback","","html-keyboard-response","153","189415","0.0-1.0-204.0-0.0","0","0","69308","","null","","","null","22","","","","","","","","","","","","","","","",""
"","time_out","","html-keyboard-response","154","191420","0.0-1.0-206.0-0.0","0","0","69308","","null","","","null","22","","","","","","","","","","","","","","","",""
"","ITI","","html-keyboard-response","155","192423","0.0-1.0-207.0","0","0","69308","","null","","","null","22","","","","","","","","","","","","","","","NaN",""
"","S1","","html-keyboard-response","156","192679","0.0-1.0-209.0","0","0","69308","","null","","","null","23","","","","","","","","","","","","","","","",""
"","ISI","","html-keyboard-response","157","194684","0.0-1.0-210.0","0","0","69308","","null","","","null","23","NaN","","","","","","","","","","","","","","",""
"","S2","","html-keyboard-response","158","194940","0.0-1.0-211.0","0","0","69308","","null","","","null","23","","NaN","","","","","","","","","","","","","",""
"","response","","html-keyboard-response","159","195527","0.0-1.0-212.0","0","0","69308","","586","","","75","23","","","1","23","training","adjacent","BC","2","3","O.jpg","L.jpg","0","1","0","",""
"","feedback","","html-keyboard-response","160","196529","0.0-1.0-213.0-0.0","0","0","69308","","null","","","null","23","","","","","","","","","","","","","","","",""
"","time_out","","html-keyboard-response","161","198535","0.0-1.0-215.0-0.0","0","0","69308","","null","","","null","23","","","","","","","","","","","","","","","",""
"","ITI","","html-keyboard-response","162","199537","0.0-1.0-216.0","0","0","69308","","null","","","null","23","","","","","","","","","","","","","","","NaN",""
"","S1","","html-keyboard-response","163","199793","0.0-1.0-218.0","0","0","69308","","null","","","null","24","","","","","","","","","","","","","","","",""
"","ISI","","html-keyboard-response","164","201799","0.0-1.0-219.0","0","0","69308","","null","","","null","24","NaN","","","","","","","","","","","","","","",""
"","S2","","html-keyboard-response","165","202055","0.0-1.0-220.0","0","0","69308","","null","","","null","24","","NaN","","","","","","","","","","","","","",""
"","response","","html-keyboard-response","166","202422","0.0-1.0-221.0","0","0","69308","","366","","","68","24","","","1","24","training","adjacent","CB","3","2","L.jpg","O.jpg","1","0","0","",""
"","feedback","","html-keyboard-response","167","203427","0.0-1.0-222.0-0.0","0","0","69308","","null","","","null","24","","","","","","","","","","","","","","","",""
"","time_out","","html-keyboard-response","168","205431","0.0-1.0-224.0-0.0","0","0","69308","","null","","","null","24","","","","","","","","","","","","","","","",""
"","ITI","","html-keyboard-response","169","206434","0.0-1.0-225.0","0","0","69308","","null","","","null","24","","","","","","","","","","","","","","","NaN",""
"","S1","","html-keyboard-response","170","206690","0.0-1.0-227.0","0","0","69308","","null","","","null","25","","","","","","","","","","","","","","","",""
"","ISI","","html-keyboard-response","171","208695","0.0-1.0-228.0","0","0","69308","","null","","","null","25","NaN","","","","","","","","","","","","","","",""
"","S2","","html-keyboard-response","172","208951","0.0-1.0-229.0","0","0","69308","","null","","","null","25","","NaN","","","","","","","","","","","","","",""
"","response","","html-keyboard-response","173","209432","0.0-1.0-230.0","0","0","69308","","481","","","75","25","","","1","25","training","adjacent","GF","7","6","M.jpg","Q.jpg","0","0","1","",""
"","feedback","","html-keyboard-response","174","210439","0.0-1.0-231.0-0.0","0","0","69308","","null","","","null","25","","","","","","","","","","","","","","","",""
"","ITI","","html-keyboard-response","175","211441","0.0-1.0-234.0","0","0","69308","","null","","","null","25","","","","","","","","","","","","","","","NaN",""
"","S1","","html-keyboard-response","176","211698","0.0-1.0-236.0","0","0","69308","","null","","","null","26","","","","","","","","","","","","","","","",""
"","ISI","","html-keyboard-response","177","213703","0.0-1.0-237.0","0","0","69308","","null","","","null","26","NaN","","","","","","","","","","","","","","",""
"","S2","","html-keyboard-response","178","213959","0.0-1.0-238.0","0","0","69308","","null","","","null","26","","NaN","","","","","","","","","","","","","",""
"","response","","html-keyboard-response","179","214652","0.0-1.0-239.0","0","0","69308","","690","","","75","26","","","1","26","training","adjacent","DE","4","5","R.jpg","N.jpg","0","1","0","",""
"","feedback","","html-keyboard-response","180","215655","0.0-1.0-240.0-0.0","0","0","69308","","null","","","null","26","","","","","","","","","","","","","","","",""
"","time_out","","html-keyboard-response","181","217661","0.0-1.0-242.0-0.0","0","0","69308","","null","","","null","26","","","","","","","","","","","","","","","",""
"","ITI","","html-keyboard-response","182","218663","0.0-1.0-243.0","0","0","69308","","null","","","null","26","","","","","","","","","","","","","","","NaN",""
"","S1","","html-keyboard-response","183","218919","0.0-1.0-245.0","0","0","69308","","null","","","null","27","","","","","","","","","","","","","","","",""
"","ISI","","html-keyboard-response","184","220925","0.0-1.0-246.0","0","0","69308","","null","","","null","27","NaN","","","","","","","","","","","","","","",""
"","S2","","html-keyboard-response","185","221181","0.0-1.0-247.0","0","0","69308","","null","","","null","27","","NaN","","","","","","","","","","","","","",""
"","response","","html-keyboard-response","186","221415","0.0-1.0-248.0","0","0","69308","","233","","","68","27","","","1","27","training","adjacent","GF","7","6","M.jpg","Q.jpg","1","0","0","",""
"","feedback","","html-keyboard-response","187","222418","0.0-1.0-249.0-0.0","0","0","69308","","null","","","null","27","","","","","","","","","","","","","","","",""
"","time_out","","html-keyboard-response","188","224423","0.0-1.0-251.0-0.0","0","0","69308","","null","","","null","27","","","","","","","","","","","","","","","",""
"","ITI","","html-keyboard-response","189","225428","0.0-1.0-252.0","0","0","69308","","null","","","null","27","","","","","","","","","","","","","","","NaN",""
"","S1","","html-keyboard-response","190","225682","0.0-1.0-254.0","0","0","69308","","null","","","null","28","","","","","","","","","","","","","","","",""
"","ISI","","html-keyboard-response","191","227688","0.0-1.0-255.0","0","0","69308","","null","","","null","28","NaN","","","","","","","","","","","","","","",""
"","S2","","html-keyboard-response","192","227944","0.0-1.0-256.0","0","0","69308","","null","","","null","28","","NaN","","","","","","","","","","","","","",""
"","response","","html-keyboard-response","193","228126","0.0-1.0-257.0","0","0","69308","","180","","","75","28","","","1","28","training","adjacent","CB","3","2","L.jpg","O.jpg","0","0","1","",""
"","feedback","","html-keyboard-response","194","229133","0.0-1.0-258.0-0.0","0","0","69308","","null","","","null","28","","","","","","","","","","","","","","","",""
"","ITI","","html-keyboard-response","195","230136","0.0-1.0-261.0","0","0","69308","","null","","","null","28","","","","","","","","","","","","","","","NaN",""
"","S1","","html-keyboard-response","196","230391","0.0-1.0-263.0","0","0","69308","","null","","","null","29","","","","","","","","","","","","","","","",""
"","ISI","","html-keyboard-response","197","232397","0.0-1.0-264.0","0","0","69308","","null","","","null","29","NaN","","","","","","","","","","","","","","",""
"","S2","","html-keyboard-response","198","232653","0.0-1.0-265.0","0","0","69308","","null","","","null","29","","NaN","","","","","","","","","","","","","",""
"","response","","html-keyboard-response","199","233273","0.0-1.0-266.0","0","0","69308","","619","","","68","29","","","1","29","training","adjacent","CD","3","4","L.jpg","R.jpg","1","1","1","",""
"","feedback","","html-keyboard-response","200","234279","0.0-1.0-267.0-0.0","0","0","69308","","null","","","null","29","","","","","","","","","","","","","","","",""
"","ITI","","html-keyboard-response","201","235282","0.0-1.0-270.0","0","0","69308","","null","","","null","29","","","","","","","","","","","","","","","NaN",""
"","S1","","html-keyboard-response","202","235538","0.0-1.0-272.0","0","0","69308","","null","","","null","30","","","","","","","","","","","","","","","",""
"","ISI","","html-keyboard-response","203","237544","0.0-1.0-273.0","0","0","69308","","null","","","null","30","NaN","","","","","","","","","","","","","","",""
"","S2","","html-keyboard-response","204","237800","0.0-1.0-274.0","0","0","69308","","null","","","null","30","","NaN","","","","","","","","","","","","","",""
"","response","","html-keyboard-response","205","238420","0.0-1.0-275.0","0","0","69308","","619","","","75","30","","","1","30","training","adjacent","AB","1","2","P.jpg","O.jpg","0","1","0","",""
"","feedback","","html-keyboard-response","206","239426","0.0-1.0-276.0-0.0","0","0","69308","","null","","","null","30","","","","","","","","","","","","","","","",""
"","time_out","","html-keyboard-response","207","241432","0.0-1.0-278.0-0.0","0","0","69308","","null","","","null","30","","","","","","","","","","","","","","","",""
"","ITI","","html-keyboard-response","208","242434","0.0-1.0-279.0","0","0","69308","","null","","","null","30","","","","","","","","","","","","","","","NaN",""
"","S1","","html-keyboard-response","209","242690","0.0-1.0-281.0","0","0","69308","","null","","","null","31","","","","","","","","","","","","","","","",""
"","ISI","","html-keyboard-response","210","244696","0.0-1.0-282.0","0","0","69308","","null","","","null","31","NaN","","","","","","","","","","","","","","",""
"","S2","","html-keyboard-response","211","244952","0.0-1.0-283.0","0","0","69308","","null","","","null","31","","NaN","","","","","","","","","","","","","",""
"","response","","html-keyboard-response","212","245485","0.0-1.0-284.0","0","0","69308","","532","","","75","31","","","1","31","training","adjacent","CB","3","2","L.jpg","O.jpg","0","0","1","",""
"","feedback","","html-keyboard-response","213","246491","0.0-1.0-285.0-0.0","0","0","69308","","null","","","null","31","","","","","","","","","","","","","","","",""
"","ITI","","html-keyboard-response","214","247496","0.0-1.0-288.0","0","0","69308","","null","","","null","31","","","","","","","","","","","","","","","NaN",""
"","S1","","html-keyboard-response","215","247752","0.0-1.0-290.0","0","0","69308","","null","","","null","32","","","","","","","","","","","","","","","",""
"","ISI","","html-keyboard-response","216","249757","0.0-1.0-291.0","0","0","69308","","null","","","null","32","NaN","","","","","","","","","","","","","","",""
"","S2","","html-keyboard-response","217","250013","0.0-1.0-292.0","0","0","69308","","null","","","null","32","","NaN","","","","","","","","","","","","","",""
"","response","","html-keyboard-response","218","250431","0.0-1.0-293.0","0","0","69308","","416","","","68","32","","","1","32","training","adjacent","EF","5","6","N.jpg","Q.jpg","1","1","1","",""
"","feedback","","html-keyboard-response","219","251437","0.0-1.0-294.0-0.0","0","0","69308","","null","","","null","32","","","","","","","","","","","","","","","",""
"","ITI","","html-keyboard-response","220","252440","0.0-1.0-297.0","0","0","69308","","null","","","null","32","","","","","","","","","","","","","","","NaN",""
"","S1","","html-keyboard-response","221","252696","0.0-1.0-299.0","0","0","69308","","null","","","null","33","","","","","","","","","","","","","","","",""
"","ISI","","html-keyboard-response","222","254701","0.0-1.0-300.0","0","0","69308","","null","","","null","33","NaN","","","","","","","","","","","","","","",""
"","S2","","html-keyboard-response","223","254957","0.0-1.0-301.0","0","0","69308","","null","","","null","33","","NaN","","","","","","","","","","","","","",""
"","response","","html-keyboard-response","224","256575","0.0-1.0-302.0","0","0","69308","","1615","","","68","33","","","1","33","training","adjacent","FE","6","5","Q.jpg","N.jpg","1","0","0","",""
"","feedback","","html-keyboard-response","225","257581","0.0-1.0-303.0-0.0","0","0","69308","","null","","","null","33","","","","","","","","","","","","","","","",""
"","time_out","","html-keyboard-response","226","259586","0.0-1.0-305.0-0.0","0","0","69308","","null","","","null","33","","","","","","","","","","","","","","","",""
"","ITI","","html-keyboard-response","227","260592","0.0-1.0-306.0","0","0","69308","","null","","","null","33","","","","","","","","","","","","","","","NaN",""
"","S1","","html-keyboard-response","228","260847","0.0-1.0-308.0","0","0","69308","","null","","","null","34","","","","","","","","","","","","","","","",""
"","ISI","","html-keyboard-response","229","262854","0.0-1.0-309.0","0","0","69308","","null","","","null","34","NaN","","","","","","","","","","","","","","",""
"","S2","","html-keyboard-response","230","263107","0.0-1.0-310.0","0","0","69308","","null","","","null","34","","NaN","","","","","","","","","","","","","",""
"","response","","html-keyboard-response","231","263201","0.0-1.0-311.0","0","0","69308","","93","","","75","34","","","1","34","training","adjacent","DE","4","5","R.jpg","N.jpg","0","1","0","",""
"","feedback","","html-keyboard-response","232","264205","0.0-1.0-312.0-0.0","0","0","69308","","null","","","null","34","","","","","","","","","","","","","","","",""
"","time_out","","html-keyboard-response","233","266210","0.0-1.0-314.0-0.0","0","0","69308","","null","","","null","34","","","","","","","","","","","","","","","",""
"","ITI","","html-keyboard-response","234","267216","0.0-1.0-315.0","0","0","69308","","null","","","null","34","","","","","","","","","","","","","","","NaN",""
"","S1","","html-keyboard-response","235","267469","0.0-1.0-317.0","0","0","69308","","null","","","null","35","","","","","","","","","","","","","","","",""
"","ISI","","html-keyboard-response","236","269475","0.0-1.0-318.0","0","0","69308","","null","","","null","35","NaN","","","","","","","","","","","","","","",""
"","S2","","html-keyboard-response","237","269730","0.0-1.0-319.0","0","0","69308","","null","","","null","35","","NaN","","","","","","","","","","","","","",""
"","response","","html-keyboard-response","238","270178","0.0-1.0-320.0","0","0","69308","","447","","","68","35","","","1","35","training","adjacent","FG","6","7","Q.jpg","M.jpg","1","1","1","",""
"","feedback","","html-keyboard-response","239","271181","0.0-1.0-321.0-0.0","0","0","69308","","null","","","null","35","","","","","","","","","","","","","","","",""
"","ITI","","html-keyboard-response","240","272184","0.0-1.0-324.0","0","0","69308","","null","","","null","35","","","","","","","","","","","","","","","NaN",""
"","S1","","html-keyboard-response","241","272440","0.0-1.0-326.0","0","0","69308","","null","","","null","36","","","","","","","","","","","","","","","",""
"","ISI","","html-keyboard-response","242","274445","0.0-1.0-327.0","0","0","69308","","null","","","null","36","NaN","","","","","","","","","","","","","","",""
"","S2","","html-keyboard-response","243","274701","0.0-1.0-328.0","0","0","69308","","null","","","null","36","","NaN","","","","","","","","","","","","","",""
"","response","","html-keyboard-response","244","275186","0.0-1.0-329.0","0","0","69308","","482","","","68","36","","","1","36","training","adjacent","BC","2","3","O.jpg","L.jpg","1","1","1","",""
"","feedback","","html-keyboard-response","245","276192","0.0-1.0-330.0-0.0","0","0","69308","","null","","","null","36","","","","","","","","","","","","","","","",""
"","ITI","","html-keyboard-response","246","277197","0.0-1.0-333.0","0","0","69308","","null","","","null","36","","","","","","","","","","","","","","","NaN",""
"","S1","","html-keyboard-response","247","277453","0.0-1.0-335.0","0","0","69308","","null","","","null","37","","","","","","","","","","","","","","","",""
"","ISI","","html-keyboard-response","248","279459","0.0-1.0-336.0","0","0","69308","","null","","","null","37","NaN","","","","","","","","","","","","","","",""
"","S2","","html-keyboard-response","249","279715","0.0-1.0-337.0","0","0","69308","","null","","","null","37","","NaN","","","","","","","","","","","","","",""
"","response","","html-keyboard-response","250","280245","0.0-1.0-338.0","0","0","69308","","528","","","75","37","","","1","37","training","adjacent","FE","6","5","Q.jpg","N.jpg","0","0","1","",""
"","feedback","","html-keyboard-response","251","281250","0.0-1.0-339.0-0.0","0","0","69308","","null","","","null","37","","","","","","","","","","","","","","","",""
"","ITI","","html-keyboard-response","252","282253","0.0-1.0-342.0","0","0","69308","","null","","","null","37","","","","","","","","","","","","","","","NaN",""
"","S1","","html-keyboard-response","253","282509","0.0-1.0-344.0","0","0","69308","","null","","","null","38","","","","","","","","","","","","","","","",""
"","ISI","","html-keyboard-response","254","284515","0.0-1.0-345.0","0","0","69308","","null","","","null","38","NaN","","","","","","","","","","","","","","",""
"","S2","","html-keyboard-response","255","284769","0.0-1.0-346.0","0","0","69308","","null","","","null","38","","NaN","","","","","","","","","","","","","",""
"","response","","html-keyboard-response","256","285252","0.0-1.0-347.0","0","0","69308","","482","","","75","38","","","1","38","training","adjacent","EF","5","6","N.jpg","Q.jpg","0","1","0","",""
"","feedback","","html-keyboard-response","257","286259","0.0-1.0-348.0-0.0","0","0","69308","","null","","","null","38","","","","","","","","","","","","","","","",""
"","time_out","","html-keyboard-response","258","288264","0.0-1.0-350.0-0.0","0","0","69308","","null","","","null","38","","","","","","","","","","","","","","","",""
"","ITI","","html-keyboard-response","259","289267","0.0-1.0-351.0","0","0","69308","","null","","","null","38","","","","","","","","","","","","","","","NaN",""
"","S1","","html-keyboard-response","260","289523","0.0-1.0-353.0","0","0","69308","","null","","","null","39","","","","","","","","","","","","","","","",""
"","ISI","","html-keyboard-response","261","291528","0.0-1.0-354.0","0","0","69308","","null","","","null","39","NaN","","","","","","","","","","","","","","",""
"","S2","","html-keyboard-response","262","291784","0.0-1.0-355.0","0","0","69308","","null","","","null","39","","NaN","","","","","","","","","","","","","",""
"","response","","html-keyboard-response","263","292252","0.0-1.0-356.0","0","0","69308","","465","","","68","39","","","1","39","training","adjacent","BC","2","3","O.jpg","L.jpg","1","1","1","",""
"","feedback","","html-keyboard-response","264","293256","0.0-1.0-357.0-0.0","0","0","69308","","null","","","null","39","","","","","","","","","","","","","","","",""
"","ITI","","html-keyboard-response","265","294259","0.0-1.0-360.0","0","0","69308","","null","","","null","39","","","","","","","","","","","","","","","NaN",""
"","S1","","html-keyboard-response","266","294515","0.0-1.0-362.0","0","0","69308","","null","","","null","40","","","","","","","","","","","","","","","",""
"","ISI","","html-keyboard-response","267","296520","0.0-1.0-363.0","0","0","69308","","null","","","null","40","NaN","","","","","","","","","","","","","","",""
"","S2","","html-keyboard-response","268","296777","0.0-1.0-364.0","0","0","69308","","null","","","null","40","","NaN","","","","","","","","","","","","","",""
"","response","","html-keyboard-response","269","297400","0.0-1.0-365.0","0","0","69308","","621","","","68","40","","","1","40","training","adjacent","CD","3","4","L.jpg","R.jpg","1","1","1","",""
"","feedback","","html-keyboard-response","270","298403","0.0-1.0-366.0-0.0","0","0","69308","","null","","","null","40","","","","","","","","","","","","","","","",""
"","ITI","","html-keyboard-response","271","299405","0.0-1.0-369.0","0","0","69308","","null","","","null","40","","","","","","","","","","","","","","","NaN",""
"","S1","","html-keyboard-response","272","299662","0.0-1.0-371.0","0","0","69308","","null","","","null","41","","","","","","","","","","","","","","","",""
"","ISI","","html-keyboard-response","273","301667","0.0-1.0-372.0","0","0","69308","","null","","","null","41","NaN","","","","","","","","","","","","","","",""
"","S2","","html-keyboard-response","274","301923","0.0-1.0-373.0","0","0","69308","","null","","","null","41","","NaN","","","","","","","","","","","","","",""
"","response","","html-keyboard-response","275","303373","0.0-1.0-374.0","0","0","69308","","1449","","","75","41","","","1","41","training","adjacent","ED","5","4","N.jpg","R.jpg","0","0","1","",""
"","feedback","","html-keyboard-response","276","304376","0.0-1.0-375.0-0.0","0","0","69308","","null","","","null","41","","","","","","","","","","","","","","","",""
"","ITI","","html-keyboard-response","277","305379","0.0-1.0-378.0","0","0","69308","","null","","","null","41","","","","","","","","","","","","","","","NaN",""
"","S1","","html-keyboard-response","278","305635","0.0-1.0-380.0","0","0","69308","","null","","","null","42","","","","","","","","","","","","","","","",""
"","ISI","","html-keyboard-response","279","307640","0.0-1.0-381.0","0","0","69308","","null","","","null","42","NaN","","","","","","","","","","","","","","",""
"","S2","","html-keyboard-response","280","307896","0.0-1.0-382.0","0","0","69308","","null","","","null","42","","NaN","","","","","","","","","","","","","",""
"","response","","html-keyboard-response","281","308341","0.0-1.0-383.0","0","0","69308","","442","","","68","42","","","1","42","training","adjacent","DE","4","5","R.jpg","N.jpg","1","1","1","",""
"","feedback","","html-keyboard-response","282","309347","0.0-1.0-384.0-0.0","0","0","69308","","null","","","null","42","","","","","","","","","","","","","","","",""
"","ITI","","html-keyboard-response","283","310350","0.0-1.0-387.0","0","0","69308","","null","","","null","42","","","","","","","","","","","","","","","NaN",""
"","S1","","html-keyboard-response","284","310605","0.0-1.0-389.0","0","0","69308","","null","","","null","43","","","","","","","","","","","","","","","",""
"","ISI","","html-keyboard-response","285","312611","0.0-1.0-390.0","0","0","69308","","null","","","null","43","NaN","","","","","","","","","","","","","","",""
"","S2","","html-keyboard-response","286","312867","0.0-1.0-391.0","0","0","69308","","null","","","null","43","","NaN","","","","","","","","","","","","","",""
"","response","","html-keyboard-response","287","312875","0.0-1.0-392.0","0","0","69308","","6","","","75","43","","","1","43","training","adjacent","EF","5","6","N.jpg","Q.jpg","0","1","0","",""
"","feedback","","html-keyboard-response","288","313880","0.0-1.0-393.0-0.0","0","0","69308","","null","","","null","43","","","","","","","","","","","","","","","",""
"","time_out","","html-keyboard-response","289","315886","0.0-1.0-395.0-0.0","0","0","69308","","null","","","null","43","","","","","","","","","","","","","","","",""
"","ITI","","html-keyboard-response","290","316891","0.0-1.0-396.0","0","0","69308","","null","","","null","43","","","","","","","","","","","","","","","NaN",""
"","S1","","html-keyboard-response","291","317144","0.0-1.0-398.0","0","0","69308","","null","","","null","44","","","","","","","","","","","","","","","",""
"","ISI","","html-keyboard-response","292","319150","0.0-1.0-399.0","0","0","69308","","null","","","null","44","NaN","","","","","","","","","","","","","","",""
"","S2","","html-keyboard-response","293","319406","0.0-1.0-400.0","0","0","69308","","null","","","null","44","","NaN","","","","","","","","","","","","","",""
"","response","","html-keyboard-response","294","319648","0.0-1.0-401.0","0","0","69308","","241","","","68","44","","","1","44","training","adjacent","ED","5","4","N.jpg","R.jpg","1","0","0","",""
"","feedback","","html-keyboard-response","295","320654","0.0-1.0-402.0-0.0","0","0","69308","","null","","","null","44","","","","","","","","","","","","","","","",""
"","time_out","","html-keyboard-response","296","322659","0.0-1.0-404.0-0.0","0","0","69308","","null","","","null","44","","","","","","","","","","","","","","","",""
"","ITI","","html-keyboard-response","297","323662","0.0-1.0-405.0","0","0","69308","","null","","","null","44","","","","","","","","","","","","","","","NaN",""
"","S1","","html-keyboard-response","298","323918","0.0-1.0-407.0","0","0","69308","","null","","","null","45","","","","","","","","","","","","","","","",""
"","ISI","","html-keyboard-response","299","325923","0.0-1.0-408.0","0","0","69308","","null","","","null","45","NaN","","","","","","","","","","","","","","",""
"","S2","","html-keyboard-response","300","326179","0.0-1.0-409.0","0","0","69308","","null","","","null","45","","NaN","","","","","","","","","","","","","",""
"","response","","html-keyboard-response","301","326701","0.0-1.0-410.0","0","0","69308","","519","","","75","45","","","1","45","training","adjacent","DC","4","3","R.jpg","L.jpg","0","0","1","",""
"","feedback","","html-keyboard-response","302","327704","0.0-1.0-411.0-0.0","0","0","69308","","null","","","null","45","","","","","","","","","","","","","","","",""
"","ITI","","html-keyboard-response","303","328707","0.0-1.0-414.0","0","0","69308","","null","","","null","45","","","","","","","","","","","","","","","NaN",""
"","S1","","html-keyboard-response","304","328962","0.0-1.0-416.0","0","0","69308","","null","","","null","46","","","","","","","","","","","","","","","",""
"","ISI","","html-keyboard-response","305","330968","0.0-1.0-417.0","0","0","69308","","null","","","null","46","NaN","","","","","","","","","","","","","","",""
"","S2","","html-keyboard-response","306","331224","0.0-1.0-418.0","0","0","69308","","null","","","null","46","","NaN","","","","","","","","","","","","","",""
"","response","","html-keyboard-response","307","332354","0.0-1.0-419.0","0","0","69308","","1128","","","75","46","","","1","46","training","adjacent","CD","3","4","L.jpg","R.jpg","0","1","0","",""
"","feedback","","html-keyboard-response","308","333358","0.0-1.0-420.0-0.0","0","0","69308","","null","","","null","46","","","","","","","","","","","","","","","",""
"","time_out","","html-keyboard-response","309","335363","0.0-1.0-422.0-0.0","0","0","69308","","null","","","null","46","","","","","","","","","","","","","","","",""
"","ITI","","html-keyboard-response","310","336366","0.0-1.0-423.0","0","0","69308","","null","","","null","46","","","","","","","","","","","","","","","NaN",""
"","S1","","html-keyboard-response","311","336622","0.0-1.0-425.0","0","0","69308","","null","","","null","47","","","","","","","","","","","","","","","",""
"","ISI","","html-keyboard-response","312","338627","0.0-1.0-426.0","0","0","69308","","null","","","null","47","NaN","","","","","","","","","","","","","","",""
"","S2","","html-keyboard-response","313","338883","0.0-1.0-427.0","0","0","69308","","null","","","null","47","","NaN","","","","","","","","","","","","","",""
"","response","","html-keyboard-response","314","339052","0.0-1.0-428.0","0","0","69308","","167","","","68","47","","","1","47","training","adjacent","BA","2","1","O.jpg","P.jpg","1","0","0","",""
"","feedback","","html-keyboard-response","315","340056","0.0-1.0-429.0-0.0","0","0","69308","","null","","","null","47","","","","","","","","","","","","","","","",""
"","time_out","","html-keyboard-response","316","342062","0.0-1.0-431.0-0.0","0","0","69308","","null","","","null","47","","","","","","","","","","","","","","","",""
"","ITI","","html-keyboard-response","317","343065","0.0-1.0-432.0","0","0","69308","","null","","","null","47","","","","","","","","","","","","","","","NaN",""
"","block_over","","html-keyboard-response","318","346931","0.0-1.0-433.0-0.0","0","0","69308","","3865","","","32","47","","","","","","","","","","","","","","","",""
"","S1","","html-keyboard-response","319","347185","0.0-1.0-434.0","0","0","69308","","null","","","null","48","","","","","","","","","","","","","","","",""
"","ISI","","html-keyboard-response","320","349192","0.0-1.0-435.0","0","0","69308","","null","","","null","48","NaN","","","","","","","","","","","","","","",""
"","S2","","html-keyboard-response","321","349449","0.0-1.0-436.0","0","0","69308","","null","","","null","48","","NaN","","","","","","","","","","","","","",""
"","response","","html-keyboard-response","322","349847","0.0-1.0-437.0","0","0","69308","","397","","","75","48","","","2","48","training","adjacent","FG","6","7","Q.jpg","M.jpg","0","1","0","",""
"","feedback","","html-keyboard-response","323","350851","0.0-1.0-438.0-0.0","0","0","69308","","null","","","null","48","","","","","","","","","","","","","","","",""
"","time_out","","html-keyboard-response","324","352856","0.0-1.0-440.0-0.0","0","0","69308","","null","","","null","48","","","","","","","","","","","","","","","",""
"","ITI","","html-keyboard-response","325","353859","0.0-1.0-441.0","0","0","69308","","null","","","null","48","","","","","","","","","","","","","","","NaN",""
"","S1","","html-keyboard-response","326","354115","0.0-1.0-443.0","0","0","69308","","null","","","null","49","","","","","","","","","","","","","","","",""
"","ISI","","html-keyboard-response","327","356120","0.0-1.0-444.0","0","0","69308","","null","","","null","49","NaN","","","","","","","","","","","","","","",""
"","S2","","html-keyboard-response","328","356377","0.0-1.0-445.0","0","0","69308","","null","","","null","49","","NaN","","","","","","","","","","","","","",""
"","response","","html-keyboard-response","329","356776","0.0-1.0-446.0","0","0","69308","","398","","","75","49","","","2","49","training","adjacent","DC","4","3","R.jpg","L.jpg","0","0","1","",""
"","feedback","","html-keyboard-response","330","357783","0.0-1.0-447.0-0.0","0","0","69308","","null","","","null","49","","","","","","","","","","","","","","","",""
"","ITI","","html-keyboard-response","331","358789","0.0-1.0-450.0","0","0","69308","","null","","","null","49","","","","","","","","","","","","","","","NaN",""
"","S1","","html-keyboard-response","332","359043","0.0-1.0-452.0","0","0","69308","","null","","","null","50","","","","","","","","","","","","","","","",""
"","ISI","","html-keyboard-response","333","361049","0.0-1.0-453.0","0","0","69308","","null","","","null","50","NaN","","","","","","","","","","","","","","",""
"","S2","","html-keyboard-response","334","361305","0.0-1.0-454.0","0","0","69308","","null","","","null","50","","NaN","","","","","","","","","","","","","",""
"","response","","html-keyboard-response","335","361817","0.0-1.0-455.0","0","0","69308","","511","","","75","50","","","2","50","training","adjacent","DE","4","5","R.jpg","N.jpg","0","1","0","",""
"","feedback","","html-keyboard-response","336","362824","0.0-1.0-456.0-0.0","0","0","69308","","null","","","null","50","","","","","","","","","","","","","","","",""
"","time_out","","html-keyboard-response","337","364830","0.0-1.0-458.0-0.0","0","0","69308","","null","","","null","50","","","","","","","","","","","","","","","",""
"","ITI","","html-keyboard-response","338","365833","0.0-1.0-459.0","0","0","69308","","null","","","null","50","","","","","","","","","","","","","","","NaN",""
"","S1","","html-keyboard-response","339","366088","0.0-1.0-461.0","0","0","69308","","null","","","null","51","","","","","","","","","","","","","","","",""
"","ISI","","html-keyboard-response","340","368093","0.0-1.0-462.0","0","0","69308","","null","","","null","51","NaN","","","","","","","","","","","","","","",""
"","S2","","html-keyboard-response","341","368349","0.0-1.0-463.0","0","0","69308","","null","","","null","51","","NaN","","","","","","","","","","","","","",""
"","response","","html-keyboard-response","342","368811","0.0-1.0-464.0","0","0","69308","","460","","","68","51","","","2","51","training","adjacent","ED","5","4","N.jpg","R.jpg","1","0","0","",""
"","feedback","","html-keyboard-response","343","369817","0.0-1.0-465.0-0.0","0","0","69308","","null","","","null","51","","","","","","","","","","","","","","","",""
"","time_out","","html-keyboard-response","344","371822","0.0-1.0-467.0-0.0","0","0","69308","","null","","","null","51","","","","","","","","","","","","","","","",""
"","ITI","","html-keyboard-response","345","372825","0.0-1.0-468.0","0","0","69308","","null","","","null","51","","","","","","","","","","","","","","","NaN",""
"","S1","","html-keyboard-response","346","373081","0.0-1.0-470.0","0","0","69308","","null","","","null","52","","","","","","","","","","","","","","","",""
"","ISI","","html-keyboard-response","347","375086","0.0-1.0-471.0","0","0","69308","","null","","","null","52","NaN","","","","","","","","","","","","","","",""
"","S2","","html-keyboard-response","348","375342","0.0-1.0-472.0","0","0","69308","","null","","","null","52","","NaN","","","","","","","","","","","","","",""
"","response","","html-keyboard-response","349","375695","0.0-1.0-473.0","0","0","69308","","351","","","68","52","","","2","52","training","adjacent","DC","4","3","R.jpg","L.jpg","1","0","0","",""
"","feedback","","html-keyboard-response","350","376697","0.0-1.0-474.0-0.0","0","0","69308","","null","","","null","52","","","","","","","","","","","","","","","",""
"","time_out","","html-keyboard-response","351","378702","0.0-1.0-476.0-0.0","0","0","69308","","null","","","null","52","","","","","","","","","","","","","","","",""
"","ITI","","html-keyboard-response","352","379705","0.0-1.0-477.0","0","0","69308","","null","","","null","52","","","","","","","","","","","","","","","NaN",""
"","S1","","html-keyboard-response","353","379961","0.0-1.0-479.0","0","0","69308","","null","","","null","53","","","","","","","","","","","","","","","",""
"","ISI","","html-keyboard-response","354","381966","0.0-1.0-480.0","0","0","69308","","null","","","null","53","NaN","","","","","","","","","","","","","","",""
"","S2","","html-keyboard-response","355","382222","0.0-1.0-481.0","0","0","69308","","null","","","null","53","","NaN","","","","","","","","","","","","","",""
"","response","","html-keyboard-response","356","382716","0.0-1.0-482.0","0","0","69308","","492","","","75","53","","","2","53","training","adjacent","AB","1","2","P.jpg","O.jpg","0","1","0","",""
"","feedback","","html-keyboard-response","357","383721","0.0-1.0-483.0-0.0","0","0","69308","","null","","","null","53","","","","","","","","","","","","","","","",""
"","time_out","","html-keyboard-response","358","385726","0.0-1.0-485.0-0.0","0","0","69308","","null","","","null","53","","","","","","","","","","","","","","","",""
"","ITI","","html-keyboard-response","359","386729","0.0-1.0-486.0","0","0","69308","","null","","","null","53","","","","","","","","","","","","","","","NaN",""
"","S1","","html-keyboard-response","360","386985","0.0-1.0-488.0","0","0","69308","","null","","","null","54","","","","","","","","","","","","","","","",""
"","ISI","","html-keyboard-response","361","388990","0.0-1.0-489.0","0","0","69308","","null","","","null","54","NaN","","","","","","","","","","","","","","",""
"","S2","","html-keyboard-response","362","389246","0.0-1.0-490.0","0","0","69308","","null","","","null","54","","NaN","","","","","","","","","","","","","",""
"","response","","html-keyboard-response","363","389566","0.0-1.0-491.0","0","0","69308","","318","","","68","54","","","2","54","training","adjacent","FG","6","7","Q.jpg","M.jpg","1","1","1","",""
"","feedback","","html-keyboard-response","364","390569","0.0-1.0-492.0-0.0","0","0","69308","","null","","","null","54","","","","","","","","","","","","","","","",""
"","ITI","","html-keyboard-response","365","391572","0.0-1.0-495.0","0","0","69308","","null","","","null","54","","","","","","","","","","","","","","","NaN",""
"","S1","","html-keyboard-response","366","391827","0.0-1.0-497.0","0","0","69308","","null","","","null","55","","","","","","","","","","","","","","","",""
"","ISI","","html-keyboard-response","367","393833","0.0-1.0-498.0","0","0","69308","","null","","","null","55","NaN","","","","","","","","","","","","","","",""
"","S2","","html-keyboard-response","368","394089","0.0-1.0-499.0","0","0","69308","","null","","","null","55","","NaN","","","","","","","","","","","","","",""
"","response","","html-keyboard-response","369","394877","0.0-1.0-500.0","0","0","69308","","786","","","75","55","","","2","55","training","adjacent","AB","1","2","P.jpg","O.jpg","0","1","0","",""
"","feedback","","html-keyboard-response","370","395881","0.0-1.0-501.0-0.0","0","0","69308","","null","","","null","55","","","","","","","","","","","","","","","",""
"","time_out","","html-keyboard-response","371","397886","0.0-1.0-503.0-0.0","0","0","69308","","null","","","null","55","","","","","","","","","","","","","","","",""
"","ITI","","html-keyboard-response","372","398893","0.0-1.0-504.0","0","0","69308","","null","","","null","55","","","","","","","","","","","","","","","NaN",""
"","S1","","html-keyboard-response","373","399145","0.0-1.0-506.0","0","0","69308","","null","","","null","56","","","","","","","","","","","","","","","",""
"","ISI","","html-keyboard-response","374","401150","0.0-1.0-507.0","0","0","69308","","null","","","null","56","NaN","","","","","","","","","","","","","","",""
"","S2","","html-keyboard-response","375","401406","0.0-1.0-508.0","0","0","69308","","null","","","null","56","","NaN","","","","","","","","","","","","","",""
"","response","","html-keyboard-response","376","401930","0.0-1.0-509.0","0","0","69308","","522","","","75","56","","","2","56","training","adjacent","CB","3","2","L.jpg","O.jpg","0","0","1","",""
"","feedback","","html-keyboard-response","377","402937","0.0-1.0-510.0-0.0","0","0","69308","","null","","","null","56","","","","","","","","","","","","","","","",""
"","ITI","","html-keyboard-response","378","403940","0.0-1.0-513.0","0","0","69308","","null","","","null","56","","","","","","","","","","","","","","","NaN",""
"","S1","","html-keyboard-response","379","404196","0.0-1.0-515.0","0","0","69308","","null","","","null","57","","","","","","","","","","","","","","","",""
"","ISI","","html-keyboard-response","380","406201","0.0-1.0-516.0","0","0","69308","","null","","","null","57","NaN","","","","","","","","","","","","","","",""
"","S2","","html-keyboard-response","381","406457","0.0-1.0-517.0","0","0","69308","","null","","","null","57","","NaN","","","","","","","","","","","","","",""
"","response","","html-keyboard-response","382","407272","0.0-1.0-518.0","0","0","69308","","813","","","75","57","","","2","57","training","adjacent","FG","6","7","Q.jpg","M.jpg","0","1","0","",""
"","feedback","","html-keyboard-response","383","408276","0.0-1.0-519.0-0.0","0","0","69308","","null","","","null","57","","","","","","","","","","","","","","","",""
"","time_out","","html-keyboard-response","384","410281","0.0-1.0-521.0-0.0","0","0","69308","","null","","","null","57","","","","","","","","","","","","","","","",""
"","ITI","","html-keyboard-response","385","411284","0.0-1.0-522.0","0","0","69308","","null","","","null","57","","","","","","","","","","","","","","","NaN",""
"","S1","","html-keyboard-response","386","411540","0.0-1.0-524.0","0","0","69308","","null","","","null","58","","","","","","","","","","","","","","","",""
"","ISI","","html-keyboard-response","387","413545","0.0-1.0-525.0","0","0","69308","","null","","","null","58","NaN","","","","","","","","","","","","","","",""
"","S2","","html-keyboard-response","388","413801","0.0-1.0-526.0","0","0","69308","","null","","","null","58","","NaN","","","","","","","","","","","","","",""
"","response","","html-keyboard-response","389","414102","0.0-1.0-527.0","0","0","69308","","300","","","75","58","","","2","58","training","adjacent","CD","3","4","L.jpg","R.jpg","0","1","0","",""
"","feedback","","html-keyboard-response","390","415108","0.0-1.0-528.0-0.0","0","0","69308","","null","","","null","58","","","","","","","","","","","","","","","",""
"","time_out","","html-keyboard-response","391","417113","0.0-1.0-530.0-0.0","0","0","69308","","null","","","null","58","","","","","","","","","","","","","","","",""
"","ITI","","html-keyboard-response","392","418116","0.0-1.0-531.0","0","0","69308","","null","","","null","58","","","","","","","","","","","","","","","NaN",""
"","S1","","html-keyboard-response","393","418372","0.0-1.0-533.0","0","0","69308","","null","","","null","59","","","","","","","","","","","","","","","",""
"","ISI","","html-keyboard-response","394","420377","0.0-1.0-534.0","0","0","69308","","null","","","null","59","NaN","","","","","","","","","","","","","","",""
"","S2","","html-keyboard-response","395","420633","0.0-1.0-535.0","0","0","69308","","null","","","null","59","","NaN","","","","","","","","","","","","","",""
"","response","","html-keyboard-response","396","420773","0.0-1.0-536.0","0","0","69308","","138","","","68","59","","","2","59","training","adjacent","FG","6","7","Q.jpg","M.jpg","1","1","1","",""
"","feedback","","html-keyboard-response","397","421780","0.0-1.0-537.0-0.0","0","0","69308","","null","","","null","59","","","","","","","","","","","","","","","",""
"","ITI","","html-keyboard-response","398","422782","0.0-1.0-540.0","0","0","69308","","null","","","null","59","","","","","","","","","","","","","","","NaN",""
"","S1","","html-keyboard-response","399","423038","0.0-1.0-542.0","0","0","69308","","null","","","null","60","","","","","","","","","","","","","","","",""
"","ISI","","html-keyboard-response","400","425044","0.0-1.0-543.0","0","0","69308","","null","","","null","60","NaN","","","","","","","","","","","","","","",""
"","S2","","html-keyboard-response","401","425300","0.0-1.0-544.0","0","0","69308","","null","","","null","60","","NaN","","","","","","","","","","","","","",""
"","response","","html-keyboard-response","402","426758","0.0-1.0-545.0","0","0","69308","","1457","","","75","60","","","2","60","training","adjacent","ED","5","4","N.jpg","R.jpg","0","0","1","",""
"","feedback","","html-keyboard-response","403","427764","0.0-1.0-546.0-0.0","0","0","69308","","null","","","null","60","","","","","","","","","","","","","","","",""
"","ITI","","html-keyboard-response","404","428767","0.0-1.0-549.0","0","0","69308","","null","","","null","60","","","","","","","","","","","","","","","NaN",""
"","S1","","html-keyboard-response","405","429022","0.0-1.0-551.0","0","0","69308","","null","","","null","61","","","","","","","","","","","","","","","",""
"","ISI","","html-keyboard-response","406","431028","0.0-1.0-552.0","0","0","69308","","null","","","null","61","NaN","","","","","","","","","","","","","","",""
"","S2","","html-keyboard-response","407","431284","0.0-1.0-553.0","0","0","69308","","null","","","null","61","","NaN","","","","","","","","","","","","","",""
"","response","","html-keyboard-response","408","431977","0.0-1.0-554.0","0","0","69308","","692","","","68","61","","","2","61","training","adjacent","BA","2","1","O.jpg","P.jpg","1","0","0","",""
"","feedback","","html-keyboard-response","409","432980","0.0-1.0-555.0-0.0","0","0","69308","","null","","","null","61","","","","","","","","","","","","","","","",""
"","time_out","","html-keyboard-response","410","434985","0.0-1.0-557.0-0.0","0","0","69308","","null","","","null","61","","","","","","","","","","","","","","","",""
"","ITI","","html-keyboard-response","411","435988","0.0-1.0-558.0","0","0","69308","","null","","","null","61","","","","","","","","","","","","","","","NaN",""
"","S1","","html-keyboard-response","412","436244","0.0-1.0-560.0","0","0","69308","","null","","","null","62","","","","","","","","","","","","","","","",""
"","ISI","","html-keyboard-response","413","438249","0.0-1.0-561.0","0","0","69308","","null","","","null","62","NaN","","","","","","","","","","","","","","",""
"","S2","","html-keyboard-response","414","438505","0.0-1.0-562.0","0","0","69308","","null","","","null","62","","NaN","","","","","","","","","","","","","",""
"","response","","html-keyboard-response","415","438759","0.0-1.0-563.0","0","0","69308","","252","","","75","62","","","2","62","training","adjacent","BC","2","3","O.jpg","L.jpg","0","1","0","",""
"","feedback","","html-keyboard-response","416","439764","0.0-1.0-564.0-0.0","0","0","69308","","null","","","null","62","","","","","","","","","","","","","","","",""
"","time_out","","html-keyboard-response","417","441769","0.0-1.0-566.0-0.0","0","0","69308","","null","","","null","62","","","","","","","","","","","","","","","",""
"","ITI","","html-keyboard-response","418","442772","0.0-1.0-567.0","0","0","69308","","null","","","null","62","","","","","","","","","","","","","","","NaN",""
"","S1","","html-keyboard-response","419","443028","0.0-1.0-569.0","0","0","69308","","null","","","null","63","","","","","","","","","","","","","","","",""
"","ISI","","html-keyboard-response","420","445033","0.0-1.0-570.0","0","0","69308","","null","","","null","63","NaN","","","","","","","","","","","","","","",""
"","S2","","html-keyboard-response","421","445289","0.0-1.0-571.0","0","0","69308","","null","","","null","63","","NaN","","","","","","","","","","","","","",""
"","response","","html-keyboard-response","422","445708","0.0-1.0-572.0","0","0","69308","","416","","","75","63","","","2","63","training","adjacent","EF","5","6","N.jpg","Q.jpg","0","1","0","",""
"","feedback","","html-keyboard-response","423","446713","0.0-1.0-573.0-0.0","0","0","69308","","null","","","null","63","","","","","","","","","","","","","","","",""
"","time_out","","html-keyboard-response","424","448720","0.0-1.0-575.0-0.0","0","0","69308","","null","","","null","63","","","","","","","","","","","","","","","",""
"","ITI","","html-keyboard-response","425","449723","0.0-1.0-576.0","0","0","69308","","null","","","null","63","","","","","","","","","","","","","","","NaN",""
"","S1","","html-keyboard-response","426","449977","0.0-1.0-578.0","0","0","69308","","null","","","null","64","","","","","","","","","","","","","","","",""
"","ISI","","html-keyboard-response","427","451983","0.0-1.0-579.0","0","0","69308","","null","","","null","64","NaN","","","","","","","","","","","","","","",""
"","S2","","html-keyboard-response","428","452239","0.0-1.0-580.0","0","0","69308","","null","","","null","64","","NaN","","","","","","","","","","","","","",""
"","response","","html-keyboard-response","429","453044","0.0-1.0-581.0","0","0","69308","","803","","","68","64","","","2","64","training","adjacent","AB","1","2","P.jpg","O.jpg","1","1","1","",""
"","feedback","","html-keyboard-response","430","454047","0.0-1.0-582.0-0.0","0","0","69308","","null","","","null","64","","","","","","","","","","","","","","","",""
"","ITI","","html-keyboard-response","431","455049","0.0-1.0-585.0","0","0","69308","","null","","","null","64","","","","","","","","","","","","","","","NaN",""
"","S1","","html-keyboard-response","432","455305","0.0-1.0-587.0","0","0","69308","","null","","","null","65","","","","","","","","","","","","","","","",""
"","ISI","","html-keyboard-response","433","457311","0.0-1.0-588.0","0","0","69308","","null","","","null","65","NaN","","","","","","","","","","","","","","",""
"","S2","","html-keyboard-response","434","457567","0.0-1.0-589.0","0","0","69308","","null","","","null","65","","NaN","","","","","","","","","","","","","",""
"","response","","html-keyboard-response","435","458172","0.0-1.0-590.0","0","0","69308","","604","","","75","65","","","2","65","training","adjacent","BC","2","3","O.jpg","L.jpg","0","1","0","",""
"","feedback","","html-keyboard-response","436","459177","0.0-1.0-591.0-0.0","0","0","69308","","null","","","null","65","","","","","","","","","","","","","","","",""
"","time_out","","html-keyboard-response","437","461183","0.0-1.0-593.0-0.0","0","0","69308","","null","","","null","65","","","","","","","","","","","","","","","",""
"","ITI","","html-keyboard-response","438","462186","0.0-1.0-594.0","0","0","69308","","null","","","null","65","","","","","","","","","","","","","","","NaN",""
"","S1","","html-keyboard-response","439","462441","0.0-1.0-596.0","0","0","69308","","null","","","null","66","","","","","","","","","","","","","","","",""
"","ISI","","html-keyboard-response","440","464447","0.0-1.0-597.0","0","0","69308","","null","","","null","66","NaN","","","","","","","","","","","","","","",""
"","S2","","html-keyboard-response","441","464703","0.0-1.0-598.0","0","0","69308","","null","","","null","66","","NaN","","","","","","","","","","","","","",""
"","response","","html-keyboard-response","442","464920","0.0-1.0-599.0","0","0","69308","","215","","","68","66","","","2","66","training","adjacent","BA","2","1","O.jpg","P.jpg","1","0","0","",""
"","feedback","","html-keyboard-response","443","465924","0.0-1.0-600.0-0.0","0","0","69308","","null","","","null","66","","","","","","","","","","","","","","","",""
"","time_out","","html-keyboard-response","444","467929","0.0-1.0-602.0-0.0","0","0","69308","","null","","","null","66","","","","","","","","","","","","","","","",""
"","ITI","","html-keyboard-response","445","468932","0.0-1.0-603.0","0","0","69308","","null","","","null","66","","","","","","","","","","","","","","","NaN",""
"","S1","","html-keyboard-response","446","469188","0.0-1.0-605.0","0","0","69308","","null","","","null","67","","","","","","","","","","","","","","","",""
"","ISI","","html-keyboard-response","447","471193","0.0-1.0-606.0","0","0","69308","","null","","","null","67","NaN","","","","","","","","","","","","","","",""
"","S2","","html-keyboard-response","448","471449","0.0-1.0-607.0","0","0","69308","","null","","","null","67","","NaN","","","","","","","","","","","","","",""
"","response","","html-keyboard-response","449","472071","0.0-1.0-608.0","0","0","69308","","620","","","68","67","","","2","67","training","adjacent","EF","5","6","N.jpg","Q.jpg","1","1","1","",""
"","feedback","","html-keyboard-response","450","473076","0.0-1.0-609.0-0.0","0","0","69308","","null","","","null","67","","","","","","","","","","","","","","","",""
"","ITI","","html-keyboard-response","451","474079","0.0-1.0-612.0","0","0","69308","","null","","","null","67","","","","","","","","","","","","","","","NaN",""
"","S1","","html-keyboard-response","452","474335","0.0-1.0-614.0","0","0","69308","","null","","","null","68","","","","","","","","","","","","","","","",""
"","ISI","","html-keyboard-response","453","476340","0.0-1.0-615.0","0","0","69308","","null","","","null","68","NaN","","","","","","","","","","","","","","",""
"","S2","","html-keyboard-response","454","476596","0.0-1.0-616.0","0","0","69308","","null","","","null","68","","NaN","","","","","","","","","","","","","",""
"","response","","html-keyboard-response","455","477014","0.0-1.0-617.0","0","0","69308","","416","","","75","68","","","2","68","training","adjacent","DE","4","5","R.jpg","N.jpg","0","1","0","",""
"","feedback","","html-keyboard-response","456","478020","0.0-1.0-618.0-0.0","0","0","69308","","null","","","null","68","","","","","","","","","","","","","","","",""
"","time_out","","html-keyboard-response","457","480026","0.0-1.0-620.0-0.0","0","0","69308","","null","","","null","68","","","","","","","","","","","","","","","",""
"","ITI","","html-keyboard-response","458","481028","0.0-1.0-621.0","0","0","69308","","null","","","null","68","","","","","","","","","","","","","","","NaN",""
"","S1","","html-keyboard-response","459","481284","0.0-1.0-623.0","0","0","69308","","null","","","null","69","","","","","","","","","","","","","","","",""
"","ISI","","html-keyboard-response","460","483290","0.0-1.0-624.0","0","0","69308","","null","","","null","69","NaN","","","","","","","","","","","","","","",""
"","S2","","html-keyboard-response","461","483546","0.0-1.0-625.0","0","0","69308","","null","","","null","69","","NaN","","","","","","","","","","","","","",""
"","response","","html-keyboard-response","462","483879","0.0-1.0-626.0","0","0","69308","","331","","","68","69","","","2","69","training","adjacent","GF","7","6","M.jpg","Q.jpg","1","0","0","",""
"","feedback","","html-keyboard-response","463","484884","0.0-1.0-627.0-0.0","0","0","69308","","null","","","null","69","","","","","","","","","","","","","","","",""
"","time_out","","html-keyboard-response","464","486890","0.0-1.0-629.0-0.0","0","0","69308","","null","","","null","69","","","","","","","","","","","","","","","",""
"","ITI","","html-keyboard-response","465","487894","0.0-1.0-630.0","0","0","69308","","null","","","null","69","","","","","","","","","","","","","","","NaN",""
"","S1","","html-keyboard-response","466","488148","0.0-1.0-632.0","0","0","69308","","null","","","null","70","","","","","","","","","","","","","","","",""
"","ISI","","html-keyboard-response","467","490154","0.0-1.0-633.0","0","0","69308","","null","","","null","70","NaN","","","","","","","","","","","","","","",""
"","S2","","html-keyboard-response","468","490410","0.0-1.0-634.0","0","0","69308","","null","","","null","70","","NaN","","","","","","","","","","","","","",""
"","response","","html-keyboard-response","469","490663","0.0-1.0-635.0","0","0","69308","","251","","","75","70","","","2","70","training","adjacent","FE","6","5","Q.jpg","N.jpg","0","0","1","",""
"","feedback","","html-keyboard-response","470","491668","0.0-1.0-636.0-0.0","0","0","69308","","null","","","null","70","","","","","","","","","","","","","","","",""
"","ITI","","html-keyboard-response","471","492671","0.0-1.0-639.0","0","0","69308","","null","","","null","70","","","","","","","","","","","","","","","NaN",""
"","S1","","html-keyboard-response","472","492927","0.0-1.0-641.0","0","0","69308","","null","","","null","71","","","","","","","","","","","","","","","",""
"","ISI","","html-keyboard-response","473","494932","0.0-1.0-642.0","0","0","69308","","null","","","null","71","NaN","","","","","","","","","","","","","","",""
"","S2","","html-keyboard-response","474","495188","0.0-1.0-643.0","0","0","69308","","null","","","null","71","","NaN","","","","","","","","","","","","","",""
"","response","","html-keyboard-response","475","495832","0.0-1.0-644.0","0","0","69308","","642","","","68","71","","","2","71","training","adjacent","AB","1","2","P.jpg","O.jpg","1","1","1","",""
"","feedback","","html-keyboard-response","476","496836","0.0-1.0-645.0-0.0","0","0","69308","","null","","","null","71","","","","","","","","","","","","","","","",""
"","ITI","","html-keyboard-response","477","497839","0.0-1.0-648.0","0","0","69308","","null","","","null","71","","","","","","","","","","","","","","","NaN",""
"","S1","","html-keyboard-response","478","498095","0.0-1.0-650.0","0","0","69308","","null","","","null","72","","","","","","","","","","","","","","","",""
"","ISI","","html-keyboard-response","479","500100","0.0-1.0-651.0","0","0","69308","","null","","","null","72","NaN","","","","","","","","","","","","","","",""
"","S2","","html-keyboard-response","480","500356","0.0-1.0-652.0","0","0","69308","","null","","","null","72","","NaN","","","","","","","","","","","","","",""
"","response","","html-keyboard-response","481","501157","0.0-1.0-653.0","0","0","69308","","798","","","75","72","","","2","72","training","adjacent","GF","7","6","M.jpg","Q.jpg","0","0","1","",""
"","feedback","","html-keyboard-response","482","502159","0.0-1.0-654.0-0.0","0","0","69308","","null","","","null","72","","","","","","","","","","","","","","","",""
"","ITI","","html-keyboard-response","483","503162","0.0-1.0-657.0","0","0","69308","","null","","","null","72","","","","","","","","","","","","","","","NaN",""
"","S1","","html-keyboard-response","484","503418","0.0-1.0-659.0","0","0","69308","","null","","","null","73","","","","","","","","","","","","","","","",""
"","ISI","","html-keyboard-response","485","505423","0.0-1.0-660.0","0","0","69308","","null","","","null","73","NaN","","","","","","","","","","","","","","",""
"","S2","","html-keyboard-response","486","505679","0.0-1.0-661.0","0","0","69308","","null","","","null","73","","NaN","","","","","","","","","","","","","",""
"","response","","html-keyboard-response","487","506662","0.0-1.0-662.0","0","0","69308","","981","","","68","73","","","2","73","training","adjacent","EF","5","6","N.jpg","Q.jpg","1","1","1","",""
"","feedback","","html-keyboard-response","488","507668","0.0-1.0-663.0-0.0","0","0","69308","","null","","","null","73","","","","","","","","","","","","","","","",""
"","ITI","","html-keyboard-response","489","508671","0.0-1.0-666.0","0","0","69308","","null","","","null","73","","","","","","","","","","","","","","","NaN",""
"","S1","","html-keyboard-response","490","508927","0.0-1.0-668.0","0","0","69308","","null","","","null","74","","","","","","","","","","","","","","","",""
"","ISI","","html-keyboard-response","491","510932","0.0-1.0-669.0","0","0","69308","","null","","","null","74","NaN","","","","","","","","","","","","","","",""
"","S2","","html-keyboard-response","492","511188","0.0-1.0-670.0","0","0","69308","","null","","","null","74","","NaN","","","","","","","","","","","","","",""
"","response","","html-keyboard-response","493","511952","0.0-1.0-671.0","0","0","69308","","762","","","75","74","","","2","74","training","adjacent","FE","6","5","Q.jpg","N.jpg","0","0","1","",""
"","feedback","","html-keyboard-response","494","512954","0.0-1.0-672.0-0.0","0","0","69308","","null","","","null","74","","","","","","","","","","","","","","","",""
"","ITI","","html-keyboard-response","495","513956","0.0-1.0-675.0","0","0","69308","","null","","","null","74","","","","","","","","","","","","","","","NaN",""
"","S1","","html-keyboard-response","496","514212","0.0-1.0-677.0","0","0","69308","","null","","","null","75","","","","","","","","","","","","","","","",""
"","ISI","","html-keyboard-response","497","516218","0.0-1.0-678.0","0","0","69308","","null","","","null","75","NaN","","","","","","","","","","","","","","",""
"","S2","","html-keyboard-response","498","516474","0.0-1.0-679.0","0","0","69308","","null","","","null","75","","NaN","","","","","","","","","","","","","",""
"","response","","html-keyboard-response","499","516927","0.0-1.0-680.0","0","0","69308","","451","","","68","75","","","2","75","training","adjacent","CB","3","2","L.jpg","O.jpg","1","0","0","",""
"","feedback","","html-keyboard-response","500","517930","0.0-1.0-681.0-0.0","0","0","69308","","null","","","null","75","","","","","","","","","","","","","","","",""
"","time_out","","html-keyboard-response","501","519935","0.0-1.0-683.0-0.0","0","0","69308","","null","","","null","75","","","","","","","","","","","","","","","",""
"","ITI","","html-keyboard-response","502","520938","0.0-1.0-684.0","0","0","69308","","null","","","null","75","","","","","","","","","","","","","","","NaN",""
"","S1","","html-keyboard-response","503","521194","0.0-1.0-686.0","0","0","69308","","null","","","null","76","","","","","","","","","","","","","","","",""
"","ISI","","html-keyboard-response","504","523199","0.0-1.0-687.0","0","0","69308","","243","","","75","76","k","","","","","","","","","","","","","","",""
"","S2","","html-keyboard-response","505","523455","0.0-1.0-688.0","0","0","69308","","null","","","null","76","","NaN","","","","","","","","","","","","","",""
"","response","","html-keyboard-response","506","523460","0.0-1.0-689.0","0","0","69308","","2","","","75","76","","","2","76","training","adjacent","CB","3","2","L.jpg","O.jpg","0","0","1","",""
"","feedback","","html-keyboard-response","507","524463","0.0-1.0-690.0-0.0","0","0","69308","","null","","","null","76","","","","","","","","","","","","","","","",""
"","ITI","","html-keyboard-response","508","525466","0.0-1.0-693.0","0","0","69308","","null","","","null","76","","","","","","","","","","","","","","","NaN",""
"","S1","","html-keyboard-response","509","525722","0.0-1.0-695.0","0","0","69308","","null","","","null","77","","","","","","","","","","","","","","","",""
"","ISI","","html-keyboard-response","510","527727","0.0-1.0-696.0","0","0","69308","","null","","","null","77","NaN","","","","","","","","","","","","","","",""
"","S2","","html-keyboard-response","511","527983","0.0-1.0-697.0","0","0","69308","","null","","","null","77","","NaN","","","","","","","","","","","","","",""
"","response","","html-keyboard-response","512","528463","0.0-1.0-698.0","0","0","69308","","477","","","68","77","","","2","77","training","adjacent","EF","5","6","N.jpg","Q.jpg","1","1","1","",""
"","feedback","","html-keyboard-response","513","529466","0.0-1.0-699.0-0.0","0","0","69308","","null","","","null","77","","","","","","","","","","","","","","","",""
"","ITI","","html-keyboard-response","514","530469","0.0-1.0-702.0","0","0","69308","","null","","","null","77","","","","","","","","","","","","","","","NaN",""
"","S1","","html-keyboard-response","515","530725","0.0-1.0-704.0","0","0","69308","","null","","","null","78","","","","","","","","","","","","","","","",""
"","ISI","","html-keyboard-response","516","532730","0.0-1.0-705.0","0","0","69308","","null","","","null","78","NaN","","","","","","","","","","","","","","",""
"","S2","","html-keyboard-response","517","532986","0.0-1.0-706.0","0","0","69308","","null","","","null","78","","NaN","","","","","","","","","","","","","",""
"","response","","html-keyboard-response","518","533265","0.0-1.0-707.0","0","0","69308","","278","","","75","78","","","2","78","training","adjacent","ED","5","4","N.jpg","R.jpg","0","0","1","",""
"","feedback","","html-keyboard-response","519","534271","0.0-1.0-708.0-0.0","0","0","69308","","null","","","null","78","","","","","","","","","","","","","","","",""
"","ITI","","html-keyboard-response","520","535274","0.0-1.0-711.0","0","0","69308","","null","","","null","78","","","","","","","","","","","","","","","NaN",""
"","S1","","html-keyboard-response","521","535530","0.0-1.0-713.0","0","0","69308","","null","","","null","79","","","","","","","","","","","","","","","",""
"","ISI","","html-keyboard-response","522","537535","0.0-1.0-714.0","0","0","69308","","null","","","null","79","NaN","","","","","","","","","","","","","","",""
"","S2","","html-keyboard-response","523","537792","0.0-1.0-715.0","0","0","69308","","null","","","null","79","","NaN","","","","","","","","","","","","","",""
"","response","","html-keyboard-response","524","538179","0.0-1.0-716.0","0","0","69308","","385","","","68","79","","","2","79","training","adjacent","DE","4","5","R.jpg","N.jpg","1","1","1","",""
"","feedback","","html-keyboard-response","525","539183","0.0-1.0-717.0-0.0","0","0","69308","","null","","","null","79","","","","","","","","","","","","","","","",""
"","ITI","","html-keyboard-response","526","540186","0.0-1.0-720.0","0","0","69308","","null","","","null","79","","","","","","","","","","","","","","","NaN",""
"","S1","","html-keyboard-response","527","540442","0.0-1.0-722.0","0","0","69308","","null","","","null","80","","","","","","","","","","","","","","","",""
"","ISI","","html-keyboard-response","528","542447","0.0-1.0-723.0","0","0","69308","","null","","","null","80","NaN","","","","","","","","","","","","","","",""
"","S2","","html-keyboard-response","529","542703","0.0-1.0-724.0","0","0","69308","","null","","","null","80","","NaN","","","","","","","","","","","","","",""
"","response","","html-keyboard-response","530","542793","0.0-1.0-725.0","0","0","69308","","88","","","75","80","","","2","80","training","adjacent","DE","4","5","R.jpg","N.jpg","0","1","0","",""
"","feedback","","html-keyboard-response","531","543797","0.0-1.0-726.0-0.0","0","0","69308","","null","","","null","80","","","","","","","","","","","","","","","",""
"","time_out","","html-keyboard-response","532","545802","0.0-1.0-728.0-0.0","0","0","69308","","null","","","null","80","","","","","","","","","","","","","","","",""
"","ITI","","html-keyboard-response","533","546805","0.0-1.0-729.0","0","0","69308","","null","","","null","80","","","","","","","","","","","","","","","NaN",""
"","S1","","html-keyboard-response","534","547061","0.0-1.0-731.0","0","0","69308","","null","","","null","81","","","","","","","","","","","","","","","",""
"","ISI","","html-keyboard-response","535","549063","0.0-1.0-732.0","0","0","69308","","null","","","null","81","NaN","","","","","","","","","","","","","","",""
"","S2","","html-keyboard-response","536","549317","0.0-1.0-733.0","0","0","69308","","null","","","null","81","","NaN","","","","","","","","","","","","","",""
"","response","","html-keyboard-response","537","549557","0.0-1.0-734.0","0","0","69308","","239","","","68","81","","","2","81","training","adjacent","ED","5","4","N.jpg","R.jpg","1","0","0","",""
"","feedback","","html-keyboard-response","538","550560","0.0-1.0-735.0-0.0","0","0","69308","","null","","","null","81","","","","","","","","","","","","","","","",""
"","time_out","","html-keyboard-response","539","552565","0.0-1.0-737.0-0.0","0","0","69308","","null","","","null","81","","","","","","","","","","","","","","","",""
"","ITI","","html-keyboard-response","540","553567","0.0-1.0-738.0","0","0","69308","","null","","","null","81","","","","","","","","","","","","","","","NaN",""
"","S1","","html-keyboard-response","541","553824","0.0-1.0-740.0","0","0","69308","","null","","","null","82","","","","","","","","","","","","","","","",""
"","ISI","","html-keyboard-response","542","555829","0.0-1.0-741.0","0","0","69308","","null","","","null","82","NaN","","","","","","","","","","","","","","",""
"","S2","","html-keyboard-response","543","556085","0.0-1.0-742.0","0","0","69308","","null","","","null","82","","NaN","","","","","","","","","","","","","",""
"","response","","html-keyboard-response","544","556657","0.0-1.0-743.0","0","0","69308","","570","","","75","82","","","2","82","training","adjacent","CD","3","4","L.jpg","R.jpg","0","1","0","",""
"","feedback","","html-keyboard-response","545","557664","0.0-1.0-744.0-0.0","0","0","69308","","null","","","null","82","","","","","","","","","","","","","","","",""
"","time_out","","html-keyboard-response","546","559669","0.0-1.0-746.0-0.0","0","0","69308","","null","","","null","82","","","","","","","","","","","","","","","",""
"","ITI","","html-keyboard-response","547","560672","0.0-1.0-747.0","0","0","69308","","null","","","null","82","","","","","","","","","","","","","","","NaN",""
"","S1","","html-keyboard-response","548","560928","0.0-1.0-749.0","0","0","69308","","null","","","null","83","","","","","","","","","","","","","","","",""
"","ISI","","html-keyboard-response","549","562933","0.0-1.0-750.0","0","0","69308","","null","","","null","83","NaN","","","","","","","","","","","","","","",""
"","S2","","html-keyboard-response","550","563189","0.0-1.0-751.0","0","0","69308","","null","","","null","83","","NaN","","","","","","","","","","","","","",""
"","response","","html-keyboard-response","551","563639","0.0-1.0-752.0","0","0","69308","","448","","","75","83","","","2","83","training","adjacent","FE","6","5","Q.jpg","N.jpg","0","0","1","",""
"","feedback","","html-keyboard-response","552","564645","0.0-1.0-753.0-0.0","0","0","69308","","null","","","null","83","","","","","","","","","","","","","","","",""
"","ITI","","html-keyboard-response","553","565648","0.0-1.0-756.0","0","0","69308","","null","","","null","83","","","","","","","","","","","","","","","NaN",""
"","S1","","html-keyboard-response","554","565904","0.0-1.0-758.0","0","0","69308","","null","","","null","84","","","","","","","","","","","","","","","",""
"","ISI","","html-keyboard-response","555","567909","0.0-1.0-759.0","0","0","69308","","null","","","null","84","NaN","","","","","","","","","","","","","","",""
"","S2","","html-keyboard-response","556","568165","0.0-1.0-760.0","0","0","69308","","null","","","null","84","","NaN","","","","","","","","","","","","","",""
"","response","","html-keyboard-response","557","568612","0.0-1.0-761.0","0","0","69308","","444","","","68","84","","","2","84","training","adjacent","BA","2","1","O.jpg","P.jpg","1","0","0","",""
"","feedback","","html-keyboard-response","558","569616","0.0-1.0-762.0-0.0","0","0","69308","","null","","","null","84","","","","","","","","","","","","","","","",""
"","time_out","","html-keyboard-response","559","571621","0.0-1.0-764.0-0.0","0","0","69308","","null","","","null","84","","","","","","","","","","","","","","","",""
"","ITI","","html-keyboard-response","560","572624","0.0-1.0-765.0","0","0","69308","","null","","","null","84","","","","","","","","","","","","","","","NaN",""
"","S1","","html-keyboard-response","561","572880","0.0-1.0-767.0","0","0","69308","","null","","","null","85","","","","","","","","","","","","","","","",""
"","ISI","","html-keyboard-response","562","574885","0.0-1.0-768.0","0","0","69308","","null","","","null","85","NaN","","","","","","","","","","","","","","",""
"","S2","","html-keyboard-response","563","575141","0.0-1.0-769.0","0","0","69308","","null","","","null","85","","NaN","","","","","","","","","","","","","",""
"","response","","html-keyboard-response","564","575289","0.0-1.0-770.0","0","0","69308","","146","","","75","85","","","2","85","training","adjacent","DC","4","3","R.jpg","L.jpg","0","0","1","",""
"","feedback","","html-keyboard-response","565","576293","0.0-1.0-771.0-0.0","0","0","69308","","null","","","null","85","","","","","","","","","","","","","","","",""
"","ITI","","html-keyboard-response","566","577296","0.0-1.0-774.0","0","0","69308","","null","","","null","85","","","","","","","","","","","","","","","NaN",""
"","S1","","html-keyboard-response","567","577552","0.0-1.0-776.0","0","0","69308","","null","","","null","86","","","","","","","","","","","","","","","",""
"","ISI","","html-keyboard-response","568","579557","0.0-1.0-777.0","0","0","69308","","933","","","68","86","d","","","","","","","","","","","","","","",""
"","S2","","html-keyboard-response","569","579813","0.0-1.0-778.0","0","0","69308","","null","","","null","86","","NaN","","","","","","","","","","","","","",""
"","response","","html-keyboard-response","570","580490","0.0-1.0-779.0","0","0","69308","","674","","","68","86","","","2","86","training","adjacent","GF","7","6","M.jpg","Q.jpg","1","0","0","",""
"","feedback","","html-keyboard-response","571","581493","0.0-1.0-780.0-0.0","0","0","69308","","null","","","null","86","","","","","","","","","","","","","","","",""
"","time_out","","html-keyboard-response","572","583498","0.0-1.0-782.0-0.0","0","0","69308","","null","","","null","86","","","","","","","","","","","","","","","",""
"","ITI","","html-keyboard-response","573","584501","0.0-1.0-783.0","0","0","69308","","null","","","null","86","","","","","","","","","","","","","","","NaN",""
"","S1","","html-keyboard-response","574","584757","0.0-1.0-785.0","0","0","69308","","null","","","null","87","","","","","","","","","","","","","","","",""
"","ISI","","html-keyboard-response","575","586762","0.0-1.0-786.0","0","0","69308","","null","","","null","87","NaN","","","","","","","","","","","","","","",""
"","S2","","html-keyboard-response","576","587019","0.0-1.0-787.0","0","0","69308","","null","","","null","87","","NaN","","","","","","","","","","","","","",""
"","response","","html-keyboard-response","577","587514","0.0-1.0-788.0","0","0","69308","","494","","","75","87","","","2","87","training","adjacent","CD","3","4","L.jpg","R.jpg","0","1","0","",""
"","feedback","","html-keyboard-response","578","588517","0.0-1.0-789.0-0.0","0","0","69308","","null","","","null","87","","","","","","","","","","","","","","","",""
"","time_out","","html-keyboard-response","579","590522","0.0-1.0-791.0-0.0","0","0","69308","","null","","","null","87","","","","","","","","","","","","","","","",""
"","ITI","","html-keyboard-response","580","591525","0.0-1.0-792.0","0","0","69308","","null","","","null","87","","","","","","","","","","","","","","","NaN",""
"","S1","","html-keyboard-response","581","591781","0.0-1.0-794.0","0","0","69308","","null","","","null","88","","","","","","","","","","","","","","","",""
"","ISI","","html-keyboard-response","582","593787","0.0-1.0-795.0","0","0","69308","","null","","","null","88","NaN","","","","","","","","","","","","","","",""
"","S2","","html-keyboard-response","583","594043","0.0-1.0-796.0","0","0","69308","","null","","","null","88","","NaN","","","","","","","","","","","","","",""
"","response","","html-keyboard-response","584","594573","0.0-1.0-797.0","0","0","69308","","529","","","75","88","","","2","88","training","adjacent","BC","2","3","O.jpg","L.jpg","0","1","0","",""
"","feedback","","html-keyboard-response","585","595580","0.0-1.0-798.0-0.0","0","0","69308","","null","","","null","88","","","","","","","","","","","","","","","",""
