"success","ttype","start_time","trial_type","trial_index","time_elapsed","internal_node_id","warning","missed_checkup","PID","view_history","rt","responses","repeat_instructions","key_press","index","keypress_isi","keypress_S2","block","trial_num","phase","group_type","pair_type","S1_stim","S2_stim","S1_img","S2_img","S1_chosen","S1_higher","accuracy","keypress_iti","total_bonus_tally"
"true","full_screen","d04142023hr2202","fullscreen","0","16638","0.0-0.0","0","0","76201","","","","","","","","","","","","","","","","","","","","","",""
"","instructions","","instructions","1","56292","0.0-1.0-0.0-0.0","0","0","76201","[{""page_index"":0,""viewing_time"":5186},{""page_index"":1,""viewing_time"":22634},{""page_index"":2,""viewing_time"":9508},{""page_index"":3,""viewing_time"":2324}]","39652","","","","","","","","","","","","","","","","","","","",""
"","comprehension_check","","survey-multi-choice","2","90083","0.0-1.0-0.0-1.0","0","0","76201","","33787","{""Q0"":""True"",""Q1"":""K"",""Q2"":""Only when the screen 'MAKE A CHOICE' is shown"",""Q3"":""Green mark"",""Q4"":""either D or K""}","1","","","","","","","","","","","","","","","","","",""
"","missed_instruction_checkup","","html-keyboard-response","3","92993","0.0-1.0-0.0-2.0-0.0","0","1","76201","","2907","","","32","","","","","","","","","","","","","","","","",""
"","instructions","","instructions","4","116736","0.0-1.0-0.1-0.1","0","0","76201","[{""page_index"":0,""viewing_time"":11101},{""page_index"":1,""viewing_time"":6188},{""page_index"":2,""viewing_time"":5286},{""page_index"":3,""viewing_time"":1166}]","23742","","","","","","","","","","","","","","","","","","","",""
"","comprehension_check","","survey-multi-choice","5","176541","0.0-1.0-0.1-1.1","0","0","76201","","59801","{""Q0"":""True"",""Q1"":""K"",""Q2"":""Once the second image appears and while the screen 'MAKE A CHOICE' is shown"",""Q3"":""Green mark"",""Q4"":""either D or K""}","0","","","","","","","","","","","","","","","","","",""
"","start_exp","","html-keyboard-response","6","181585","0.0-1.0-1.0","0","0","76201","","5041","","","32","","","","","","","","","","","","","","","","",""
"","S1","","html-keyboard-response","7","181838","0.0-1.0-2.0","0","0","76201","","null","","","null","0","","","","","","","","","","","","","","","",""
"","ISI","","html-keyboard-response","8","182841","0.0-1.0-3.0","0","0","76201","","null","","","null","0","NaN","","","","","","","","","","","","","","",""
"","S2","","html-keyboard-response","9","183095","0.0-1.0-4.0","0","0","76201","","null","","","null","0","","NaN","","","","","","","","","","","","","",""
"","response","","html-keyboard-response","10","183856","0.0-1.0-5.0-0.0","0","0","76201","","759","","","75","0","","","1","0","training","adjacent","DE","4","5","R.jpg","L.jpg","1","1","1","",""
"","feedback","","html-keyboard-response","11","184860","0.0-1.0-6.0-0.0","0","0","76201","","null","","","null","0","","","","","","","","","","","","","","","",""
"","ITI","","html-keyboard-response","12","185864","0.0-1.0-9.0","0","0","76201","","null","","","null","0","","","","","","","","","","","","","","","NaN",""
"","S1","","html-keyboard-response","13","186117","0.0-1.0-11.0","0","0","76201","","null","","","null","1","","","","","","","","","","","","","","","",""
"","ISI","","html-keyboard-response","14","187119","0.0-1.0-12.0","0","0","76201","","null","","","null","1","NaN","","","","","","","","","","","","","","",""
"","S2","","html-keyboard-response","15","187372","0.0-1.0-13.0","0","0","76201","","null","","","null","1","","NaN","","","","","","","","","","","","","",""
"","response","","html-keyboard-response","16","188144","0.0-1.0-14.0-0.0","0","0","76201","","770","","","75","1","","","1","1","training","adjacent","BC","2","3","P.jpg","Q.jpg","1","1","1","",""
"","feedback","","html-keyboard-response","17","189148","0.0-1.0-15.0-0.0","0","0","76201","","null","","","null","1","","","","","","","","","","","","","","","",""
"","ITI","","html-keyboard-response","18","190151","0.0-1.0-18.0","0","0","76201","","null","","","null","1","","","","","","","","","","","","","","","NaN",""
"","S1","","html-keyboard-response","19","190404","0.0-1.0-20.0","0","0","76201","","null","","","null","2","","","","","","","","","","","","","","","",""
"","ISI","","html-keyboard-response","20","191407","0.0-1.0-21.0","0","0","76201","","null","","","null","2","NaN","","","","","","","","","","","","","","",""
"","S2","","html-keyboard-response","21","191661","0.0-1.0-22.0","0","0","76201","","null","","","null","2","","NaN","","","","","","","","","","","","","",""
"","response","","html-keyboard-response","22","192160","0.0-1.0-23.0-0.0","0","0","76201","","497","","","68","2","","","1","2","training","adjacent","CD","3","4","Q.jpg","R.jpg","0","1","0","",""
"","feedback","","html-keyboard-response","23","193164","0.0-1.0-24.0-0.0","0","0","76201","","null","","","null","2","","","","","","","","","","","","","","","",""
"","time_out","","html-keyboard-response","24","195167","0.0-1.0-26.0-0.0","0","0","76201","","null","","","null","2","","","","","","","","","","","","","","","",""
"","ITI","","html-keyboard-response","25","196169","0.0-1.0-27.0","0","0","76201","","null","","","null","2","","","","","","","","","","","","","","","NaN",""
"","S1","","html-keyboard-response","26","196422","0.0-1.0-29.0","0","0","76201","","null","","","null","3","","","","","","","","","","","","","","","",""
"","ISI","","html-keyboard-response","27","197425","0.0-1.0-30.0","0","0","76201","","null","","","null","3","NaN","","","","","","","","","","","","","","",""
"","S2","","html-keyboard-response","28","197678","0.0-1.0-31.0","0","0","76201","","null","","","null","3","","NaN","","","","","","","","","","","","","",""
"","response","","html-keyboard-response","29","198159","0.0-1.0-32.0-0.0","0","0","76201","","480","","","75","3","","","1","3","training","adjacent","FG","6","7","N.jpg","M.jpg","1","1","1","",""
"","feedback","","html-keyboard-response","30","199163","0.0-1.0-33.0-0.0","0","0","76201","","null","","","null","3","","","","","","","","","","","","","","","",""
"","ITI","","html-keyboard-response","31","200167","0.0-1.0-36.0","0","0","76201","","null","","","null","3","","","","","","","","","","","","","","","NaN",""
"","S1","","html-keyboard-response","32","200420","0.0-1.0-38.0","0","0","76201","","null","","","null","4","","","","","","","","","","","","","","","",""
"","ISI","","html-keyboard-response","33","201422","0.0-1.0-39.0","0","0","76201","","null","","","null","4","NaN","","","","","","","","","","","","","","",""
"","S2","","html-keyboard-response","34","201675","0.0-1.0-40.0","0","0","76201","","null","","","null","4","","NaN","","","","","","","","","","","","","",""
"","response","","html-keyboard-response","35","202431","0.0-1.0-41.0-0.0","0","0","76201","","755","","","75","4","","","1","4","training","adjacent","DE","4","5","R.jpg","L.jpg","1","1","1","",""
"","feedback","","html-keyboard-response","36","203434","0.0-1.0-42.0-0.0","0","0","76201","","null","","","null","4","","","","","","","","","","","","","","","",""
"","ITI","","html-keyboard-response","37","204436","0.0-1.0-45.0","0","0","76201","","null","","","null","4","","","","","","","","","","","","","","","NaN",""
"","S1","","html-keyboard-response","38","204688","0.0-1.0-47.0","0","0","76201","","null","","","null","5","","","","","","","","","","","","","","","",""
"","ISI","","html-keyboard-response","39","205691","0.0-1.0-48.0","0","0","76201","","null","","","null","5","NaN","","","","","","","","","","","","","","",""
"","S2","","html-keyboard-response","40","205945","0.0-1.0-49.0","0","0","76201","","null","","","null","5","","NaN","","","","","","","","","","","","","",""
"","response","","html-keyboard-response","41","206703","0.0-1.0-50.0-0.0","0","0","76201","","756","","","75","5","","","1","5","training","adjacent","CB","3","2","Q.jpg","P.jpg","1","0","0","",""
"","feedback","","html-keyboard-response","42","207716","0.0-1.0-51.0-0.0","0","0","76201","","null","","","null","5","","","","","","","","","","","","","","","",""
"","time_out","","html-keyboard-response","43","209719","0.0-1.0-53.0-0.0","0","0","76201","","null","","","null","5","","","","","","","","","","","","","","","",""
"","ITI","","html-keyboard-response","44","210722","0.0-1.0-54.0","0","0","76201","","null","","","null","5","","","","","","","","","","","","","","","NaN",""
"","S1","","html-keyboard-response","45","210975","0.0-1.0-56.0","0","0","76201","","null","","","null","6","","","","","","","","","","","","","","","",""
"","ISI","","html-keyboard-response","46","211978","0.0-1.0-57.0","0","0","76201","","null","","","null","6","NaN","","","","","","","","","","","","","","",""
"","S2","","html-keyboard-response","47","212231","0.0-1.0-58.0","0","0","76201","","null","","","null","6","","NaN","","","","","","","","","","","","","",""
"","response","","html-keyboard-response","48","212505","0.0-1.0-59.0-0.0","0","0","76201","","271","","","68","6","","","1","6","training","adjacent","BA","2","1","P.jpg","O.jpg","0","0","1","",""
"","feedback","","html-keyboard-response","49","213508","0.0-1.0-60.0-0.0","0","0","76201","","null","","","null","6","","","","","","","","","","","","","","","",""
"","ITI","","html-keyboard-response","50","214512","0.0-1.0-63.0","0","0","76201","","null","","","null","6","","","","","","","","","","","","","","","NaN",""
"","S1","","html-keyboard-response","51","214770","0.0-1.0-65.0","0","0","76201","","null","","","null","7","","","","","","","","","","","","","","","",""
"","ISI","","html-keyboard-response","52","215772","0.0-1.0-66.0","0","0","76201","","null","","","null","7","NaN","","","","","","","","","","","","","","",""
"","S2","","html-keyboard-response","53","216025","0.0-1.0-67.0","0","0","76201","","null","","","null","7","","NaN","","","","","","","","","","","","","",""
"","response","","html-keyboard-response","54","217777","0.0-1.0-68.0-0.0","0","0","76201","","null","","","null","7","","","1","7","training","adjacent","BA","2","1","P.jpg","O.jpg","NaN","0","0","",""
"","too_slow_prompt","","html-keyboard-response","55","218781","0.0-1.0-70.0-0.0","1","0","76201","","null","","","null","","","","","","","","","","","","","","","","",""
"","time_out","","html-keyboard-response","56","220784","0.0-1.0-71.0-0.0","0","0","76201","","null","","","null","7","","","","","","","","","","","","","","","",""
"","ITI","","html-keyboard-response","57","221787","0.0-1.0-72.0","0","0","76201","","null","","","null","7","","","","","","","","","","","","","","","NaN",""
"","S1","","html-keyboard-response","58","222041","0.0-1.0-74.0","0","0","76201","","null","","","null","8","","","","","","","","","","","","","","","",""
"","ISI","","html-keyboard-response","59","223043","0.0-1.0-75.0","0","0","76201","","null","","","null","8","NaN","","","","","","","","","","","","","","",""
"","S2","","html-keyboard-response","60","223296","0.0-1.0-76.0","0","0","76201","","null","","","null","8","","NaN","","","","","","","","","","","","","",""
"","response","","html-keyboard-response","61","223792","0.0-1.0-77.0-0.0","0","0","76201","","494","","","75","8","","","1","8","training","adjacent","GF","7","6","M.jpg","N.jpg","1","0","0","",""
"","feedback","","html-keyboard-response","62","224795","0.0-1.0-78.0-0.0","0","0","76201","","null","","","null","8","","","","","","","","","","","","","","","",""
"","time_out","","html-keyboard-response","63","226798","0.0-1.0-80.0-0.0","0","0","76201","","null","","","null","8","","","","","","","","","","","","","","","",""
"","ITI","","html-keyboard-response","64","227800","0.0-1.0-81.0","0","0","76201","","null","","","null","8","","","","","","","","","","","","","","","NaN",""
"","S1","","html-keyboard-response","65","228053","0.0-1.0-83.0","0","0","76201","","null","","","null","9","","","","","","","","","","","","","","","",""
"","ISI","","html-keyboard-response","66","229055","0.0-1.0-84.0","0","0","76201","","null","","","null","9","NaN","","","","","","","","","","","","","","",""
"","S2","","html-keyboard-response","67","229308","0.0-1.0-85.0","0","0","76201","","null","","","null","9","","NaN","","","","","","","","","","","","","",""
"","response","","html-keyboard-response","68","229608","0.0-1.0-86.0-0.0","0","0","76201","","297","","","75","9","","","1","9","training","adjacent","ED","5","4","L.jpg","R.jpg","1","0","0","",""
"","feedback","","html-keyboard-response","69","230611","0.0-1.0-87.0-0.0","0","0","76201","","null","","","null","9","","","","","","","","","","","","","","","",""
"","time_out","","html-keyboard-response","70","232614","0.0-1.0-89.0-0.0","0","0","76201","","null","","","null","9","","","","","","","","","","","","","","","",""
"","ITI","","html-keyboard-response","71","233617","0.0-1.0-90.0","0","0","76201","","null","","","null","9","","","","","","","","","","","","","","","NaN",""
"","S1","","html-keyboard-response","72","233870","0.0-1.0-92.0","0","0","76201","","null","","","null","10","","","","","","","","","","","","","","","",""
"","ISI","","html-keyboard-response","73","234873","0.0-1.0-93.0","0","0","76201","","null","","","null","10","NaN","","","","","","","","","","","","","","",""
"","S2","","html-keyboard-response","74","235126","0.0-1.0-94.0","0","0","76201","","null","","","null","10","","NaN","","","","","","","","","","","","","",""
"","response","","html-keyboard-response","75","235672","0.0-1.0-95.0-0.0","0","0","76201","","544","","","68","10","","","1","10","training","adjacent","DC","4","3","R.jpg","Q.jpg","0","0","1","",""
"","feedback","","html-keyboard-response","76","236674","0.0-1.0-96.0-0.0","0","0","76201","","null","","","null","10","","","","","","","","","","","","","","","",""
"","ITI","","html-keyboard-response","77","237677","0.0-1.0-99.0","0","0","76201","","null","","","null","10","","","","","","","","","","","","","","","NaN",""
"","S1","","html-keyboard-response","78","237931","0.0-1.0-101.0","0","0","76201","","null","","","null","11","","","","","","","","","","","","","","","",""
"","ISI","","html-keyboard-response","79","238934","0.0-1.0-102.0","0","0","76201","","null","","","null","11","NaN","","","","","","","","","","","","","","",""
"","S2","","html-keyboard-response","80","239187","0.0-1.0-103.0","0","0","76201","","null","","","null","11","","NaN","","","","","","","","","","","","","",""
"","response","","html-keyboard-response","81","239719","0.0-1.0-104.0-0.0","0","0","76201","","530","","","68","11","","","1","11","training","adjacent","AB","1","2","O.jpg","P.jpg","0","1","0","",""
"","feedback","","html-keyboard-response","82","240721","0.0-1.0-105.0-0.0","0","0","76201","","null","","","null","11","","","","","","","","","","","","","","","",""
"","time_out","","html-keyboard-response","83","242724","0.0-1.0-107.0-0.0","0","0","76201","","null","","","null","11","","","","","","","","","","","","","","","",""
"","ITI","","html-keyboard-response","84","243727","0.0-1.0-108.0","0","0","76201","","null","","","null","11","","","","","","","","","","","","","","","NaN",""
"","S1","","html-keyboard-response","85","243979","0.0-1.0-110.0","0","0","76201","","null","","","null","12","","","","","","","","","","","","","","","",""
"","ISI","","html-keyboard-response","86","244983","0.0-1.0-111.0","0","0","76201","","null","","","null","12","NaN","","","","","","","","","","","","","","",""
"","S2","","html-keyboard-response","87","245238","0.0-1.0-112.0","0","0","76201","","null","","","null","12","","NaN","","","","","","","","","","","","","",""
"","response","","html-keyboard-response","88","245473","0.0-1.0-113.0-0.0","0","0","76201","","233","","","75","12","","","1","12","training","adjacent","EF","5","6","L.jpg","N.jpg","1","1","1","",""
"","feedback","","html-keyboard-response","89","246476","0.0-1.0-114.0-0.0","0","0","76201","","null","","","null","12","","","","","","","","","","","","","","","",""
"","ITI","","html-keyboard-response","90","247478","0.0-1.0-117.0","0","0","76201","","null","","","null","12","","","","","","","","","","","","","","","NaN",""
"","S1","","html-keyboard-response","91","247731","0.0-1.0-119.0","0","0","76201","","null","","","null","13","","","","","","","","","","","","","","","",""
"","ISI","","html-keyboard-response","92","248733","0.0-1.0-120.0","0","0","76201","","null","","","null","13","NaN","","","","","","","","","","","","","","",""
"","S2","","html-keyboard-response","93","248986","0.0-1.0-121.0","0","0","76201","","null","","","null","13","","NaN","","","","","","","","","","","","","",""
"","response","","html-keyboard-response","94","249073","0.0-1.0-122.0-0.0","0","0","76201","","85","","","75","13","","","1","13","training","adjacent","BC","2","3","P.jpg","Q.jpg","1","1","1","",""
"","feedback","","html-keyboard-response","95","250076","0.0-1.0-123.0-0.0","0","0","76201","","null","","","null","13","","","","","","","","","","","","","","","",""
"","ITI","","html-keyboard-response","96","251079","0.0-1.0-126.0","0","0","76201","","null","","","null","13","","","","","","","","","","","","","","","NaN",""
"","S1","","html-keyboard-response","97","251331","0.0-1.0-128.0","0","0","76201","","null","","","null","14","","","","","","","","","","","","","","","",""
"","ISI","","html-keyboard-response","98","252334","0.0-1.0-129.0","0","0","76201","","null","","","null","14","NaN","","","","","","","","","","","","","","",""
"","S2","","html-keyboard-response","99","252587","0.0-1.0-130.0","0","0","76201","","null","","","null","14","","NaN","","","","","","","","","","","","","",""
"","response","","html-keyboard-response","100","252952","0.0-1.0-131.0-0.0","0","0","76201","","364","","","68","14","","","1","14","training","adjacent","AB","1","2","O.jpg","P.jpg","0","1","0","",""
"","feedback","","html-keyboard-response","101","253955","0.0-1.0-132.0-0.0","0","0","76201","","null","","","null","14","","","","","","","","","","","","","","","",""
"","time_out","","html-keyboard-response","102","255957","0.0-1.0-134.0-0.0","0","0","76201","","null","","","null","14","","","","","","","","","","","","","","","",""
"","ITI","","html-keyboard-response","103","256960","0.0-1.0-135.0","0","0","76201","","null","","","null","14","","","","","","","","","","","","","","","NaN",""
"","S1","","html-keyboard-response","104","257214","0.0-1.0-137.0","0","0","76201","","null","","","null","15","","","","","","","","","","","","","","","",""
"","ISI","","html-keyboard-response","105","258216","0.0-1.0-138.0","0","0","76201","","null","","","null","15","NaN","","","","","","","","","","","","","","",""
"","S2","","html-keyboard-response","106","258470","0.0-1.0-139.0","0","0","76201","","null","","","null","15","","NaN","","","","","","","","","","","","","",""
"","response","","html-keyboard-response","107","258944","0.0-1.0-140.0-0.0","0","0","76201","","471","","","75","15","","","1","15","training","adjacent","CD","3","4","Q.jpg","R.jpg","1","1","1","",""
"","feedback","","html-keyboard-response","108","259948","0.0-1.0-141.0-0.0","0","0","76201","","null","","","null","15","","","","","","","","","","","","","","","",""
"","ITI","","html-keyboard-response","109","260951","0.0-1.0-144.0","0","0","76201","","null","","","null","15","","","","","","","","","","","","","","","NaN",""
"","S1","","html-keyboard-response","110","261203","0.0-1.0-146.0","0","0","76201","","null","","","null","16","","","","","","","","","","","","","","","",""
"","ISI","","html-keyboard-response","111","262207","0.0-1.0-147.0","0","0","76201","","null","","","null","16","NaN","","","","","","","","","","","","","","",""
"","S2","","html-keyboard-response","112","262460","0.0-1.0-148.0","0","0","76201","","null","","","null","16","","NaN","","","","","","","","","","","","","",""
"","response","","html-keyboard-response","113","264213","0.0-1.0-149.0-0.0","0","0","76201","","null","","","null","16","","","1","16","training","adjacent","EF","5","6","L.jpg","N.jpg","NaN","1","0","",""
"","too_slow_prompt","","html-keyboard-response","114","265216","0.0-1.0-151.0-0.0","1","0","76201","","null","","","null","","","","","","","","","","","","","","","","",""
"","time_out","","html-keyboard-response","115","267218","0.0-1.0-152.0-0.0","0","0","76201","","null","","","null","16","","","","","","","","","","","","","","","",""
"","ITI","","html-keyboard-response","116","268221","0.0-1.0-153.0","0","0","76201","","null","","","null","16","","","","","","","","","","","","","","","NaN",""
"","S1","","html-keyboard-response","117","268473","0.0-1.0-155.0","0","0","76201","","null","","","null","17","","","","","","","","","","","","","","","",""
"","ISI","","html-keyboard-response","118","269476","0.0-1.0-156.0","0","0","76201","","null","","","null","17","NaN","","","","","","","","","","","","","","",""
"","S2","","html-keyboard-response","119","269728","0.0-1.0-157.0","0","0","76201","","null","","","null","17","","NaN","","","","","","","","","","","","","",""
"","response","","html-keyboard-response","120","269824","0.0-1.0-158.0-0.0","0","0","76201","","94","","","68","17","","","1","17","training","adjacent","CB","3","2","Q.jpg","P.jpg","0","0","1","",""
"","feedback","","html-keyboard-response","121","270828","0.0-1.0-159.0-0.0","0","0","76201","","null","","","null","17","","","","","","","","","","","","","","","",""
"","ITI","","html-keyboard-response","122","271831","0.0-1.0-162.0","0","0","76201","","null","","","null","17","","","","","","","","","","","","","","","NaN",""
"","S1","","html-keyboard-response","123","272083","0.0-1.0-164.0","0","0","76201","","null","","","null","18","","","","","","","","","","","","","","","",""
"","ISI","","html-keyboard-response","124","273086","0.0-1.0-165.0","0","0","76201","","null","","","null","18","NaN","","","","","","","","","","","","","","",""
"","S2","","html-keyboard-response","125","273339","0.0-1.0-166.0","0","0","76201","","null","","","null","18","","NaN","","","","","","","","","","","","","",""
"","response","","html-keyboard-response","126","273480","0.0-1.0-167.0-0.0","0","0","76201","","139","","","68","18","","","1","18","training","adjacent","FE","6","5","N.jpg","L.jpg","0","0","1","",""
"","feedback","","html-keyboard-response","127","274492","0.0-1.0-168.0-0.0","0","0","76201","","null","","","null","18","","","","","","","","","","","","","","","",""
"","ITI","","html-keyboard-response","128","275495","0.0-1.0-171.0","0","0","76201","","null","","","null","18","","","","","","","","","","","","","","","NaN",""
"","S1","","html-keyboard-response","129","275748","0.0-1.0-173.0","0","0","76201","","null","","","null","19","","","","","","","","","","","","","","","",""
"","ISI","","html-keyboard-response","130","276750","0.0-1.0-174.0","0","0","76201","","null","","","null","19","NaN","","","","","","","","","","","","","","",""
"","S2","","html-keyboard-response","131","277004","0.0-1.0-175.0","0","0","76201","","null","","","null","19","","NaN","","","","","","","","","","","","","",""
"","response","","html-keyboard-response","132","277247","0.0-1.0-176.0-0.0","0","0","76201","","241","","","75","19","","","1","19","training","adjacent","GF","7","6","M.jpg","N.jpg","1","0","0","",""
"","feedback","","html-keyboard-response","133","278250","0.0-1.0-177.0-0.0","0","0","76201","","null","","","null","19","","","","","","","","","","","","","","","",""
"","time_out","","html-keyboard-response","134","280252","0.0-1.0-179.0-0.0","0","0","76201","","null","","","null","19","","","","","","","","","","","","","","","",""
"","ITI","","html-keyboard-response","135","281254","0.0-1.0-180.0","0","0","76201","","null","","","null","19","","","","","","","","","","","","","","","NaN",""
"","S1","","html-keyboard-response","136","281507","0.0-1.0-182.0","0","0","76201","","null","","","null","20","","","","","","","","","","","","","","","",""
"","ISI","","html-keyboard-response","137","282509","0.0-1.0-183.0","0","0","76201","","null","","","null","20","NaN","","","","","","","","","","","","","","",""
"","S2","","html-keyboard-response","138","282761","0.0-1.0-184.0","0","0","76201","","null","","","null","20","","NaN","","","","","","","","","","","","","",""
"","response","","html-keyboard-response","139","283136","0.0-1.0-185.0-0.0","0","0","76201","","374","","","75","20","","","1","20","training","adjacent","FG","6","7","N.jpg","M.jpg","1","1","1","",""
"","feedback","","html-keyboard-response","140","284140","0.0-1.0-186.0-0.0","0","0","76201","","null","","","null","20","","","","","","","","","","","","","","","",""
"","ITI","","html-keyboard-response","141","285143","0.0-1.0-189.0","0","0","76201","","null","","","null","20","","","","","","","","","","","","","","","NaN",""
"","S1","","html-keyboard-response","142","285395","0.0-1.0-191.0","0","0","76201","","null","","","null","21","","","","","","","","","","","","","","","",""
"","ISI","","html-keyboard-response","143","286398","0.0-1.0-192.0","0","0","76201","","null","","","null","21","NaN","","","","","","","","","","","","","","",""
"","S2","","html-keyboard-response","144","286650","0.0-1.0-193.0","0","0","76201","","null","","","null","21","","NaN","","","","","","","","","","","","","",""
"","response","","html-keyboard-response","145","286695","0.0-1.0-194.0-0.0","0","0","76201","","43","","","68","21","","","1","21","training","adjacent","DE","4","5","R.jpg","L.jpg","0","1","0","",""
"","feedback","","html-keyboard-response","146","287698","0.0-1.0-195.0-0.0","0","0","76201","","null","","","null","21","","","","","","","","","","","","","","","",""
"","time_out","","html-keyboard-response","147","289700","0.0-1.0-197.0-0.0","0","0","76201","","null","","","null","21","","","","","","","","","","","","","","","",""
"","ITI","","html-keyboard-response","148","290703","0.0-1.0-198.0","0","0","76201","","null","","","null","21","","","","","","","","","","","","","","","NaN",""
"","S1","","html-keyboard-response","149","290955","0.0-1.0-200.0","0","0","76201","","null","","","null","22","","","","","","","","","","","","","","","",""
"","ISI","","html-keyboard-response","150","291957","0.0-1.0-201.0","0","0","76201","","null","","","null","22","NaN","","","","","","","","","","","","","","",""
"","S2","","html-keyboard-response","151","292211","0.0-1.0-202.0","0","0","76201","","null","","","null","22","","NaN","","","","","","","","","","","","","",""
"","response","","html-keyboard-response","152","292432","0.0-1.0-203.0-0.0","0","0","76201","","220","","","68","22","","","1","22","training","adjacent","GF","7","6","M.jpg","N.jpg","0","0","1","",""
"","feedback","","html-keyboard-response","153","293436","0.0-1.0-204.0-0.0","0","0","76201","","null","","","null","22","","","","","","","","","","","","","","","",""
"","ITI","","html-keyboard-response","154","294437","0.0-1.0-207.0","0","0","76201","","null","","","null","22","","","","","","","","","","","","","","","NaN",""
"","S1","","html-keyboard-response","155","294689","0.0-1.0-209.0","0","0","76201","","null","","","null","23","","","","","","","","","","","","","","","",""
"","ISI","","html-keyboard-response","156","295691","0.0-1.0-210.0","0","0","76201","","null","","","null","23","NaN","","","","","","","","","","","","","","",""
"","S2","","html-keyboard-response","157","295945","0.0-1.0-211.0","0","0","76201","","null","","","null","23","","NaN","","","","","","","","","","","","","",""
"","response","","html-keyboard-response","158","296152","0.0-1.0-212.0-0.0","0","0","76201","","205","","","68","23","","","1","23","training","adjacent","FE","6","5","N.jpg","L.jpg","0","0","1","",""
"","feedback","","html-keyboard-response","159","297156","0.0-1.0-213.0-0.0","0","0","76201","","null","","","null","23","","","","","","","","","","","","","","","",""
"","ITI","","html-keyboard-response","160","298158","0.0-1.0-216.0","0","0","76201","","null","","","null","23","","","","","","","","","","","","","","","NaN",""
"","S1","","html-keyboard-response","161","298410","0.0-1.0-218.0","0","0","76201","","null","","","null","24","","","","","","","","","","","","","","","",""
"","ISI","","html-keyboard-response","162","299412","0.0-1.0-219.0","0","0","76201","","null","","","null","24","NaN","","","","","","","","","","","","","","",""
"","S2","","html-keyboard-response","163","299664","0.0-1.0-220.0","0","0","76201","","249","","","75","24","","k","1","24","training","adjacent","ED","5","4","L.jpg","R.jpg","1","0","0","",""
"","feedback","","html-keyboard-response","164","300668","0.0-1.0-222.0-0.0","0","0","76201","","null","","","null","24","","","","","","","","","","","","","","","",""
"","time_out","","html-keyboard-response","165","302672","0.0-1.0-224.0-0.0","0","0","76201","","null","","","null","24","","","","","","","","","","","","","","","",""
"","ITI","","html-keyboard-response","166","303674","0.0-1.0-225.0","0","0","76201","","null","","","null","24","","","","","","","","","","","","","","","NaN",""
"","S1","","html-keyboard-response","167","303926","0.0-1.0-227.0","0","0","76201","","null","","","null","25","","","","","","","","","","","","","","","",""
"","ISI","","html-keyboard-response","168","304929","0.0-1.0-228.0","0","0","76201","","null","","","null","25","NaN","","","","","","","","","","","","","","",""
"","S2","","html-keyboard-response","169","305182","0.0-1.0-229.0","0","0","76201","","null","","","null","25","","NaN","","","","","","","","","","","","","",""
"","response","","html-keyboard-response","170","305505","0.0-1.0-230.0-0.0","0","0","76201","","320","","","75","25","","","1","25","training","adjacent","GF","7","6","M.jpg","N.jpg","1","0","0","",""
"","feedback","","html-keyboard-response","171","306509","0.0-1.0-231.0-0.0","0","0","76201","","null","","","null","25","","","","","","","","","","","","","","","",""
"","time_out","","html-keyboard-response","172","308511","0.0-1.0-233.0-0.0","0","0","76201","","null","","","null","25","","","","","","","","","","","","","","","",""
"","ITI","","html-keyboard-response","173","309515","0.0-1.0-234.0","0","0","76201","","null","","","null","25","","","","","","","","","","","","","","","NaN",""
"","S1","","html-keyboard-response","174","309768","0.0-1.0-236.0","0","0","76201","","null","","","null","26","","","","","","","","","","","","","","","",""
"","ISI","","html-keyboard-response","175","310770","0.0-1.0-237.0","0","0","76201","","null","","","null","26","NaN","","","","","","","","","","","","","","",""
"","S2","","html-keyboard-response","176","311025","0.0-1.0-238.0","0","0","76201","","null","","","null","26","","NaN","","","","","","","","","","","","","",""
"","response","","html-keyboard-response","177","311198","0.0-1.0-239.0-0.0","0","0","76201","","172","","","68","26","","","1","26","training","adjacent","AB","1","2","O.jpg","P.jpg","0","1","0","",""
"","feedback","","html-keyboard-response","178","312200","0.0-1.0-240.0-0.0","0","0","76201","","null","","","null","26","","","","","","","","","","","","","","","",""
"","time_out","","html-keyboard-response","179","314203","0.0-1.0-242.0-0.0","0","0","76201","","null","","","null","26","","","","","","","","","","","","","","","",""
"","ITI","","html-keyboard-response","180","315206","0.0-1.0-243.0","0","0","76201","","null","","","null","26","","","","","","","","","","","","","","","NaN",""
"","S1","","html-keyboard-response","181","315466","0.0-1.0-245.0","0","0","76201","","null","","","null","27","","","","","","","","","","","","","","","",""
"","ISI","","html-keyboard-response","182","316469","0.0-1.0-246.0","0","0","76201","","null","","","null","27","NaN","","","","","","","","","","","","","","",""
"","S2","","html-keyboard-response","183","316737","0.0-1.0-247.0","0","0","76201","","null","","","null","27","","NaN","","","","","","","","","","","","","",""
"","response","","html-keyboard-response","184","316792","0.0-1.0-248.0-0.0","0","0","76201","","53","","","75","27","","","1","27","training","adjacent","DE","4","5","R.jpg","L.jpg","1","1","1","",""
"","feedback","","html-keyboard-response","185","317795","0.0-1.0-249.0-0.0","0","0","76201","","null","","","null","27","","","","","","","","","","","","","","","",""
"","ITI","","html-keyboard-response","186","318798","0.0-1.0-252.0","0","0","76201","","null","","","null","27","","","","","","","","","","","","","","","NaN",""
"","S1","","html-keyboard-response","187","319050","0.0-1.0-254.0","0","0","76201","","null","","","null","28","","","","","","","","","","","","","","","",""
"","ISI","","html-keyboard-response","188","320052","0.0-1.0-255.0","0","0","76201","","null","","","null","28","NaN","","","","","","","","","","","","","","",""
"","S2","","html-keyboard-response","189","320264","0.0-1.0-256.0","0","0","76201","","210","","","68","28","","d","1","28","training","adjacent","ED","5","4","L.jpg","R.jpg","0","0","1","",""
"","feedback","","html-keyboard-response","190","321268","0.0-1.0-258.0-0.0","0","0","76201","","null","","","null","28","","","","","","","","","","","","","","","",""
"","ITI","","html-keyboard-response","191","322271","0.0-1.0-261.0","0","0","76201","","null","","","null","28","","","","","","","","","","","","","","","NaN",""
"","S1","","html-keyboard-response","192","322524","0.0-1.0-263.0","0","0","76201","","null","","","null","29","","","","","","","","","","","","","","","",""
"","ISI","","html-keyboard-response","193","323527","0.0-1.0-264.0","0","0","76201","","null","","","null","29","NaN","","","","","","","","","","","","","","",""
"","S2","","html-keyboard-response","194","323781","0.0-1.0-265.0","0","0","76201","","null","","","null","29","","NaN","","","","","","","","","","","","","",""
"","response","","html-keyboard-response","195","324121","0.0-1.0-266.0-0.0","0","0","76201","","337","","","68","29","","","1","29","training","adjacent","AB","1","2","O.jpg","P.jpg","0","1","0","",""
"","feedback","","html-keyboard-response","196","325123","0.0-1.0-267.0-0.0","0","0","76201","","null","","","null","29","","","","","","","","","","","","","","","",""
"","time_out","","html-keyboard-response","197","327125","0.0-1.0-269.0-0.0","0","0","76201","","null","","","null","29","","","","","","","","","","","","","","","",""
"","ITI","","html-keyboard-response","198","328128","0.0-1.0-270.0","0","0","76201","","null","","","null","29","","","","","","","","","","","","","","","NaN",""
"","S1","","html-keyboard-response","199","328381","0.0-1.0-272.0","0","0","76201","","null","","","null","30","","","","","","","","","","","","","","","",""
"","ISI","","html-keyboard-response","200","329383","0.0-1.0-273.0","0","0","76201","","null","","","null","30","NaN","","","","","","","","","","","","","","",""
"","S2","","html-keyboard-response","201","329635","0.0-1.0-274.0","0","0","76201","","null","","","null","30","","NaN","","","","","","","","","","","","","",""
"","response","","html-keyboard-response","202","329726","0.0-1.0-275.0-0.0","0","0","76201","","90","","","75","30","","","1","30","training","adjacent","FE","6","5","N.jpg","L.jpg","1","0","0","",""
"","feedback","","html-keyboard-response","203","330729","0.0-1.0-276.0-0.0","0","0","76201","","null","","","null","30","","","","","","","","","","","","","","","",""
"","time_out","","html-keyboard-response","204","332732","0.0-1.0-278.0-0.0","0","0","76201","","null","","","null","30","","","","","","","","","","","","","","","",""
"","ITI","","html-keyboard-response","205","333736","0.0-1.0-279.0","0","0","76201","","null","","","null","30","","","","","","","","","","","","","","","NaN",""
"","S1","","html-keyboard-response","206","333988","0.0-1.0-281.0","0","0","76201","","null","","","null","31","","","","","","","","","","","","","","","",""
"","ISI","","html-keyboard-response","207","334990","0.0-1.0-282.0","0","0","76201","","null","","","null","31","NaN","","","","","","","","","","","","","","",""
"","S2","","html-keyboard-response","208","335243","0.0-1.0-283.0","0","0","76201","","null","","","null","31","","NaN","","","","","","","","","","","","","",""
"","response","","html-keyboard-response","209","335432","0.0-1.0-284.0-0.0","0","0","76201","","186","","","68","31","","","1","31","training","adjacent","CB","3","2","Q.jpg","P.jpg","0","0","1","",""
"","feedback","","html-keyboard-response","210","336435","0.0-1.0-285.0-0.0","0","0","76201","","null","","","null","31","","","","","","","","","","","","","","","",""
"","ITI","","html-keyboard-response","211","337439","0.0-1.0-288.0","0","0","76201","","null","","","null","31","","","","","","","","","","","","","","","NaN",""
"","S1","","html-keyboard-response","212","337692","0.0-1.0-290.0","0","0","76201","","null","","","null","32","","","","","","","","","","","","","","","",""
"","ISI","","html-keyboard-response","213","338695","0.0-1.0-291.0","0","0","76201","","null","","","null","32","NaN","","","","","","","","","","","","","","",""
"","S2","","html-keyboard-response","214","338963","0.0-1.0-292.0","0","0","76201","","null","","","null","32","","NaN","","","","","","","","","","","","","",""
"","response","","html-keyboard-response","215","338967","0.0-1.0-293.0-0.0","0","0","76201","","3","","","75","32","","","1","32","training","adjacent","BC","2","3","P.jpg","Q.jpg","1","1","1","",""
"","feedback","","html-keyboard-response","216","339968","0.0-1.0-294.0-0.0","0","0","76201","","null","","","null","32","","","","","","","","","","","","","","","",""
"","ITI","","html-keyboard-response","217","340971","0.0-1.0-297.0","0","0","76201","","null","","","null","32","","","","","","","","","","","","","","","NaN",""
"","S1","","html-keyboard-response","218","341224","0.0-1.0-299.0","0","0","76201","","null","","","null","33","","","","","","","","","","","","","","","",""
"","ISI","","html-keyboard-response","219","342227","0.0-1.0-300.0","0","0","76201","","null","","","null","33","NaN","","","","","","","","","","","","","","",""
"","S2","","html-keyboard-response","220","342408","0.0-1.0-301.0","0","0","76201","","179","","","68","33","","d","1","33","training","adjacent","ED","5","4","L.jpg","R.jpg","0","0","1","",""
"","feedback","","html-keyboard-response","221","343412","0.0-1.0-303.0-0.0","0","0","76201","","null","","","null","33","","","","","","","","","","","","","","","",""
"","ITI","","html-keyboard-response","222","344415","0.0-1.0-306.0","0","0","76201","","null","","","null","33","","","","","","","","","","","","","","","NaN",""
"","S1","","html-keyboard-response","223","344667","0.0-1.0-308.0","0","0","76201","","null","","","null","34","","","","","","","","","","","","","","","",""
"","ISI","","html-keyboard-response","224","345670","0.0-1.0-309.0","0","0","76201","","null","","","null","34","NaN","","","","","","","","","","","","","","",""
"","S2","","html-keyboard-response","225","345923","0.0-1.0-310.0","0","0","76201","","null","","","null","34","","NaN","","","","","","","","","","","","","",""
"","response","","html-keyboard-response","226","346776","0.0-1.0-311.0-0.0","0","0","76201","","850","","","75","34","","","1","34","training","adjacent","DC","4","3","R.jpg","Q.jpg","1","0","0","",""
"","feedback","","html-keyboard-response","227","347780","0.0-1.0-312.0-0.0","0","0","76201","","null","","","null","34","","","","","","","","","","","","","","","",""
"","time_out","","html-keyboard-response","228","349782","0.0-1.0-314.0-0.0","0","0","76201","","null","","","null","34","","","","","","","","","","","","","","","",""
"","ITI","","html-keyboard-response","229","350785","0.0-1.0-315.0","0","0","76201","","null","","","null","34","","","","","","","","","","","","","","","NaN",""
"","S1","","html-keyboard-response","230","351038","0.0-1.0-317.0","0","0","76201","","null","","","null","35","","","","","","","","","","","","","","","",""
"","ISI","","html-keyboard-response","231","352041","0.0-1.0-318.0","0","0","76201","","null","","","null","35","NaN","","","","","","","","","","","","","","",""
"","S2","","html-keyboard-response","232","352294","0.0-1.0-319.0","0","0","76201","","null","","","null","35","","NaN","","","","","","","","","","","","","",""
"","response","","html-keyboard-response","233","352432","0.0-1.0-320.0-0.0","0","0","76201","","136","","","68","35","","","1","35","training","adjacent","CB","3","2","Q.jpg","P.jpg","0","0","1","",""
"","feedback","","html-keyboard-response","234","353436","0.0-1.0-321.0-0.0","0","0","76201","","null","","","null","35","","","","","","","","","","","","","","","",""
"","ITI","","html-keyboard-response","235","354439","0.0-1.0-324.0","0","0","76201","","null","","","null","35","","","","","","","","","","","","","","","NaN",""
"","S1","","html-keyboard-response","236","354692","0.0-1.0-326.0","0","0","76201","","null","","","null","36","","","","","","","","","","","","","","","",""
"","ISI","","html-keyboard-response","237","355696","0.0-1.0-327.0","0","0","76201","","null","","","null","36","NaN","","","","","","","","","","","","","","",""
"","S2","","html-keyboard-response","238","355949","0.0-1.0-328.0","0","0","76201","","null","","","null","36","","NaN","","","","","","","","","","","","","",""
"","response","","html-keyboard-response","239","356216","0.0-1.0-329.0-0.0","0","0","76201","","265","","","68","36","","","1","36","training","adjacent","FE","6","5","N.jpg","L.jpg","0","0","1","",""
"","feedback","","html-keyboard-response","240","357219","0.0-1.0-330.0-0.0","0","0","76201","","null","","","null","36","","","","","","","","","","","","","","","",""
"","ITI","","html-keyboard-response","241","358223","0.0-1.0-333.0","0","0","76201","","null","","","null","36","","","","","","","","","","","","","","","NaN",""
"","S1","","html-keyboard-response","242","358475","0.0-1.0-335.0","0","0","76201","","null","","","null","37","","","","","","","","","","","","","","","",""
"","ISI","","html-keyboard-response","243","359478","0.0-1.0-336.0","0","0","76201","","null","","","null","37","NaN","","","","","","","","","","","","","","",""
"","S2","","html-keyboard-response","244","359732","0.0-1.0-337.0","0","0","76201","","null","","","null","37","","NaN","","","","","","","","","","","","","",""
"","response","","html-keyboard-response","245","359743","0.0-1.0-338.0-0.0","0","0","76201","","11","","","75","37","","","1","37","training","adjacent","BA","2","1","P.jpg","O.jpg","1","0","0","",""
"","feedback","","html-keyboard-response","246","360746","0.0-1.0-339.0-0.0","0","0","76201","","null","","","null","37","","","","","","","","","","","","","","","",""
"","time_out","","html-keyboard-response","247","362749","0.0-1.0-341.0-0.0","0","0","76201","","null","","","null","37","","","","","","","","","","","","","","","",""
"","ITI","","html-keyboard-response","248","363751","0.0-1.0-342.0","0","0","76201","","null","","","null","37","","","","","","","","","","","","","","","NaN",""
"","S1","","html-keyboard-response","249","364005","0.0-1.0-344.0","0","0","76201","","null","","","null","38","","","","","","","","","","","","","","","",""
"","ISI","","html-keyboard-response","250","365008","0.0-1.0-345.0","0","0","76201","","null","","","null","38","NaN","","","","","","","","","","","","","","",""
"","S2","","html-keyboard-response","251","365262","0.0-1.0-346.0","0","0","76201","","null","","","null","38","","NaN","","","","","","","","","","","","","",""
"","response","","html-keyboard-response","252","365481","0.0-1.0-347.0-0.0","0","0","76201","","218","","","68","38","","","1","38","training","adjacent","DC","4","3","R.jpg","Q.jpg","0","0","1","",""
"","feedback","","html-keyboard-response","253","366484","0.0-1.0-348.0-0.0","0","0","76201","","null","","","null","38","","","","","","","","","","","","","","","",""
"","ITI","","html-keyboard-response","254","367486","0.0-1.0-351.0","0","0","76201","","null","","","null","38","","","","","","","","","","","","","","","NaN",""
"","S1","","html-keyboard-response","255","367739","0.0-1.0-353.0","0","0","76201","","null","","","null","39","","","","","","","","","","","","","","","",""
"","ISI","","html-keyboard-response","256","368742","0.0-1.0-354.0","0","0","76201","","null","","","null","39","NaN","","","","","","","","","","","","","","",""
"","S2","","html-keyboard-response","257","368995","0.0-1.0-355.0","0","0","76201","","null","","","null","39","","NaN","","","","","","","","","","","","","",""
"","response","","html-keyboard-response","258","369113","0.0-1.0-356.0-0.0","0","0","76201","","115","","","75","39","","","1","39","training","adjacent","BC","2","3","P.jpg","Q.jpg","1","1","1","",""
"","feedback","","html-keyboard-response","259","370116","0.0-1.0-357.0-0.0","0","0","76201","","null","","","null","39","","","","","","","","","","","","","","","",""
"","ITI","","html-keyboard-response","260","371118","0.0-1.0-360.0","0","0","76201","","null","","","null","39","","","","","","","","","","","","","","","NaN",""
"","S1","","html-keyboard-response","261","371372","0.0-1.0-362.0","0","0","76201","","null","","","null","40","","","","","","","","","","","","","","","",""
"","ISI","","html-keyboard-response","262","372376","0.0-1.0-363.0","0","0","76201","","null","","","null","40","NaN","","","","","","","","","","","","","","",""
"","S2","","html-keyboard-response","263","372636","0.0-1.0-364.0","0","0","76201","","null","","","null","40","","NaN","","","","","","","","","","","","","",""
"","response","","html-keyboard-response","264","372648","0.0-1.0-365.0-0.0","0","0","76201","","10","","","68","40","","","1","40","training","adjacent","EF","5","6","L.jpg","N.jpg","0","1","0","",""
"","feedback","","html-keyboard-response","265","373652","0.0-1.0-366.0-0.0","0","0","76201","","null","","","null","40","","","","","","","","","","","","","","","",""
"","time_out","","html-keyboard-response","266","375655","0.0-1.0-368.0-0.0","0","0","76201","","null","","","null","40","","","","","","","","","","","","","","","",""
"","ITI","","html-keyboard-response","267","376657","0.0-1.0-369.0","0","0","76201","","null","","","null","40","","","","","","","","","","","","","","","NaN",""
"","S1","","html-keyboard-response","268","376910","0.0-1.0-371.0","0","0","76201","","null","","","null","41","","","","","","","","","","","","","","","",""
"","ISI","","html-keyboard-response","269","377913","0.0-1.0-372.0","0","0","76201","","null","","","null","41","NaN","","","","","","","","","","","","","","",""
"","S2","","html-keyboard-response","270","378167","0.0-1.0-373.0","0","0","76201","","null","","","null","41","","NaN","","","","","","","","","","","","","",""
"","response","","html-keyboard-response","271","378369","0.0-1.0-374.0-0.0","0","0","76201","","201","","","75","41","","","1","41","training","adjacent","DC","4","3","R.jpg","Q.jpg","1","0","0","",""
"","feedback","","html-keyboard-response","272","379372","0.0-1.0-375.0-0.0","0","0","76201","","null","","","null","41","","","","","","","","","","","","","","","",""
"","time_out","","html-keyboard-response","273","381375","0.0-1.0-377.0-0.0","0","0","76201","","null","","","null","41","","","","","","","","","","","","","","","",""
"","ITI","","html-keyboard-response","274","382377","0.0-1.0-378.0","0","0","76201","","null","","","null","41","","","","","","","","","","","","","","","NaN",""
"","S1","","html-keyboard-response","275","382629","0.0-1.0-380.0","0","0","76201","","null","","","null","42","","","","","","","","","","","","","","","",""
"","ISI","","html-keyboard-response","276","383632","0.0-1.0-381.0","0","0","76201","","null","","","null","42","NaN","","","","","","","","","","","","","","",""
"","S2","","html-keyboard-response","277","383885","0.0-1.0-382.0","0","0","76201","","null","","","null","42","","NaN","","","","","","","","","","","","","",""
"","response","","html-keyboard-response","278","384008","0.0-1.0-383.0-0.0","0","0","76201","","121","","","68","42","","","1","42","training","adjacent","FG","6","7","N.jpg","M.jpg","0","1","0","",""
"","feedback","","html-keyboard-response","279","385011","0.0-1.0-384.0-0.0","0","0","76201","","null","","","null","42","","","","","","","","","","","","","","","",""
"","time_out","","html-keyboard-response","280","387013","0.0-1.0-386.0-0.0","0","0","76201","","null","","","null","42","","","","","","","","","","","","","","","",""
"","ITI","","html-keyboard-response","281","388015","0.0-1.0-387.0","0","0","76201","","null","","","null","42","","","","","","","","","","","","","","","NaN",""
"","S1","","html-keyboard-response","282","388268","0.0-1.0-389.0","0","0","76201","","null","","","null","43","","","","","","","","","","","","","","","",""
"","ISI","","html-keyboard-response","283","389270","0.0-1.0-390.0","0","0","76201","","null","","","null","43","NaN","","","","","","","","","","","","","","",""
"","S2","","html-keyboard-response","284","389523","0.0-1.0-391.0","0","0","76201","","null","","","null","43","","NaN","","","","","","","","","","","","","",""
"","response","","html-keyboard-response","285","389993","0.0-1.0-392.0-0.0","0","0","76201","","468","","","68","43","","","1","43","training","adjacent","BA","2","1","P.jpg","O.jpg","0","0","1","",""
"","feedback","","html-keyboard-response","286","390996","0.0-1.0-393.0-0.0","0","0","76201","","null","","","null","43","","","","","","","","","","","","","","","",""
"","ITI","","html-keyboard-response","287","391999","0.0-1.0-396.0","0","0","76201","","null","","","null","43","","","","","","","","","","","","","","","NaN",""
"","S1","","html-keyboard-response","288","392251","0.0-1.0-398.0","0","0","76201","","null","","","null","44","","","","","","","","","","","","","","","",""
"","ISI","","html-keyboard-response","289","393252","0.0-1.0-399.0","0","0","76201","","null","","","null","44","NaN","","","","","","","","","","","","","","",""
"","S2","","html-keyboard-response","290","393505","0.0-1.0-400.0","0","0","76201","","null","","","null","44","","NaN","","","","","","","","","","","","","",""
"","response","","html-keyboard-response","291","393601","0.0-1.0-401.0-0.0","0","0","76201","","93","","","68","44","","","1","44","training","adjacent","EF","5","6","L.jpg","N.jpg","0","1","0","",""
"","feedback","","html-keyboard-response","292","394603","0.0-1.0-402.0-0.0","0","0","76201","","null","","","null","44","","","","","","","","","","","","","","","",""
"","time_out","","html-keyboard-response","293","396606","0.0-1.0-404.0-0.0","0","0","76201","","null","","","null","44","","","","","","","","","","","","","","","",""
"","ITI","","html-keyboard-response","294","397609","0.0-1.0-405.0","0","0","76201","","null","","","null","44","","","","","","","","","","","","","","","NaN",""
"","S1","","html-keyboard-response","295","397863","0.0-1.0-407.0","0","0","76201","","null","","","null","45","","","","","","","","","","","","","","","",""
"","ISI","","html-keyboard-response","296","398865","0.0-1.0-408.0","0","0","76201","","null","","","null","45","NaN","","","","","","","","","","","","","","",""
"","S2","","html-keyboard-response","297","399119","0.0-1.0-409.0","0","0","76201","","null","","","null","45","","NaN","","","","","","","","","","","","","",""
"","response","","html-keyboard-response","298","399273","0.0-1.0-410.0-0.0","0","0","76201","","151","","","68","45","","","1","45","training","adjacent","CD","3","4","Q.jpg","R.jpg","0","1","0","",""
"","feedback","","html-keyboard-response","299","400276","0.0-1.0-411.0-0.0","0","0","76201","","null","","","null","45","","","","","","","","","","","","","","","",""
"","time_out","","html-keyboard-response","300","402278","0.0-1.0-413.0-0.0","0","0","76201","","null","","","null","45","","","","","","","","","","","","","","","",""
"","ITI","","html-keyboard-response","301","403281","0.0-1.0-414.0","0","0","76201","","null","","","null","45","","","","","","","","","","","","","","","NaN",""
"","S1","","html-keyboard-response","302","403535","0.0-1.0-416.0","0","0","76201","","null","","","null","46","","","","","","","","","","","","","","","",""
"","ISI","","html-keyboard-response","303","404538","0.0-1.0-417.0","0","0","76201","","null","","","null","46","NaN","","","","","","","","","","","","","","",""
"","S2","","html-keyboard-response","304","404791","0.0-1.0-418.0","0","0","76201","","null","","","null","46","","NaN","","","","","","","","","","","","","",""
"","response","","html-keyboard-response","305","405089","0.0-1.0-419.0-0.0","0","0","76201","","295","","","75","46","","","1","46","training","adjacent","CD","3","4","Q.jpg","R.jpg","1","1","1","",""
"","feedback","","html-keyboard-response","306","406092","0.0-1.0-420.0-0.0","0","0","76201","","null","","","null","46","","","","","","","","","","","","","","","",""
"","ITI","","html-keyboard-response","307","407096","0.0-1.0-423.0","0","0","76201","","null","","","null","46","","","","","","","","","","","","","","","NaN",""
"","S1","","html-keyboard-response","308","407348","0.0-1.0-425.0","0","0","76201","","null","","","null","47","","","","","","","","","","","","","","","",""
"","ISI","","html-keyboard-response","309","408357","0.0-1.0-426.0","0","0","76201","","null","","","null","47","NaN","","","","","","","","","","","","","","",""
"","S2","","html-keyboard-response","310","408610","0.0-1.0-427.0","0","0","76201","","null","","","null","47","","NaN","","","","","","","","","","","","","",""
"","response","","html-keyboard-response","311","408913","0.0-1.0-428.0-0.0","0","0","76201","","300","","","68","47","","","1","47","training","adjacent","FG","6","7","N.jpg","M.jpg","0","1","0","",""
"","feedback","","html-keyboard-response","312","409915","0.0-1.0-429.0-0.0","0","0","76201","","null","","","null","47","","","","","","","","","","","","","","","",""
"","time_out","","html-keyboard-response","313","411918","0.0-1.0-431.0-0.0","0","0","76201","","null","","","null","47","","","","","","","","","","","","","","","",""
"","ITI","","html-keyboard-response","314","412920","0.0-1.0-432.0","0","0","76201","","null","","","null","47","","","","","","","","","","","","","","","NaN",""
"","block_over","","html-keyboard-response","315","419999","0.0-1.0-433.0-0.0","0","0","76201","","7077","","","32","47","","","","","","","","","","","","","","","",""
"","S1","","html-keyboard-response","316","420252","0.0-1.0-434.0","0","0","76201","","null","","","null","48","","","","","","","","","","","","","","","",""
"","ISI","","html-keyboard-response","317","421256","0.0-1.0-435.0","0","0","76201","","null","","","null","48","NaN","","","","","","","","","","","","","","",""
"","S2","","html-keyboard-response","318","421509","0.0-1.0-436.0","0","0","76201","","null","","","null","48","","NaN","","","","","","","","","","","","","",""
"","response","","html-keyboard-response","319","421856","0.0-1.0-437.0-0.0","0","0","76201","","344","","","68","48","","","2","48","training","adjacent","FE","6","5","N.jpg","L.jpg","0","0","1","",""
"","feedback","","html-keyboard-response","320","422859","0.0-1.0-438.0-0.0","0","0","76201","","null","","","null","48","","","","","","","","","","","","","","","",""
"","ITI","","html-keyboard-response","321","423861","0.0-1.0-441.0","0","0","76201","","null","","","null","48","","","","","","","","","","","","","","","NaN",""
"","S1","","html-keyboard-response","322","424114","0.0-1.0-443.0","0","0","76201","","null","","","null","49","","","","","","","","","","","","","","","",""
"","ISI","","html-keyboard-response","323","425117","0.0-1.0-444.0","0","0","76201","","null","","","null","49","NaN","","","","","","","","","","","","","","",""
"","S2","","html-keyboard-response","324","425370","0.0-1.0-445.0","0","0","76201","","null","","","null","49","","NaN","","","","","","","","","","","","","",""
"","response","","html-keyboard-response","325","425830","0.0-1.0-446.0-0.0","0","0","76201","","459","","","68","49","","","2","49","training","adjacent","CD","3","4","Q.jpg","R.jpg","0","1","0","",""
"","feedback","","html-keyboard-response","326","426834","0.0-1.0-447.0-0.0","0","0","76201","","null","","","null","49","","","","","","","","","","","","","","","",""
"","time_out","","html-keyboard-response","327","428837","0.0-1.0-449.0-0.0","0","0","76201","","null","","","null","49","","","","","","","","","","","","","","","",""
"","ITI","","html-keyboard-response","328","429839","0.0-1.0-450.0","0","0","76201","","null","","","null","49","","","","","","","","","","","","","","","NaN",""
"","S1","","html-keyboard-response","329","430093","0.0-1.0-452.0","0","0","76201","","null","","","null","50","","","","","","","","","","","","","","","",""
"","ISI","","html-keyboard-response","330","431096","0.0-1.0-453.0","0","0","76201","","null","","","null","50","NaN","","","","","","","","","","","","","","",""
"","S2","","html-keyboard-response","331","431349","0.0-1.0-454.0","0","0","76201","","null","","","null","50","","NaN","","","","","","","","","","","","","",""
"","response","","html-keyboard-response","332","431408","0.0-1.0-455.0-0.0","0","0","76201","","58","","","75","50","","","2","50","training","adjacent","DC","4","3","R.jpg","Q.jpg","1","0","0","",""
"","feedback","","html-keyboard-response","333","432412","0.0-1.0-456.0-0.0","0","0","76201","","null","","","null","50","","","","","","","","","","","","","","","",""
"","time_out","","html-keyboard-response","334","434415","0.0-1.0-458.0-0.0","0","0","76201","","null","","","null","50","","","","","","","","","","","","","","","",""
"","ITI","","html-keyboard-response","335","435418","0.0-1.0-459.0","0","0","76201","","null","","","null","50","","","","","","","","","","","","","","","NaN",""
"","S1","","html-keyboard-response","336","435670","0.0-1.0-461.0","0","0","76201","","null","","","null","51","","","","","","","","","","","","","","","",""
"","ISI","","html-keyboard-response","337","436673","0.0-1.0-462.0","0","0","76201","","null","","","null","51","NaN","","","","","","","","","","","","","","",""
"","S2","","html-keyboard-response","338","436926","0.0-1.0-463.0","0","0","76201","","null","","","null","51","","NaN","","","","","","","","","","","","","",""
"","response","","html-keyboard-response","339","436992","0.0-1.0-464.0-0.0","0","0","76201","","64","","","68","51","","","2","51","training","adjacent","EF","5","6","L.jpg","N.jpg","0","1","0","",""
"","feedback","","html-keyboard-response","340","437995","0.0-1.0-465.0-0.0","0","0","76201","","null","","","null","51","","","","","","","","","","","","","","","",""
"","time_out","","html-keyboard-response","341","439998","0.0-1.0-467.0-0.0","0","0","76201","","null","","","null","51","","","","","","","","","","","","","","","",""
"","ITI","","html-keyboard-response","342","441001","0.0-1.0-468.0","0","0","76201","","null","","","null","51","","","","","","","","","","","","","","","NaN",""
"","S1","","html-keyboard-response","343","441254","0.0-1.0-470.0","0","0","76201","","null","","","null","52","","","","","","","","","","","","","","","",""
"","ISI","","html-keyboard-response","344","442256","0.0-1.0-471.0","0","0","76201","","null","","","null","52","NaN","","","","","","","","","","","","","","",""
"","S2","","html-keyboard-response","345","442513","0.0-1.0-472.0","0","0","76201","","254","","","75","52","","k","2","52","training","adjacent","DE","4","5","R.jpg","L.jpg","1","1","1","",""
"","feedback","","html-keyboard-response","346","443516","0.0-1.0-474.0-0.0","0","0","76201","","null","","","null","52","","","","","","","","","","","","","","","",""
"","ITI","","html-keyboard-response","347","444518","0.0-1.0-477.0","0","0","76201","","null","","","null","52","","","","","","","","","","","","","","","NaN",""
"","S1","","html-keyboard-response","348","444771","0.0-1.0-479.0","0","0","76201","","null","","","null","53","","","","","","","","","","","","","","","",""
"","ISI","","html-keyboard-response","349","445773","0.0-1.0-480.0","0","0","76201","","null","","","null","53","NaN","","","","","","","","","","","","","","",""
"","S2","","html-keyboard-response","350","446027","0.0-1.0-481.0","0","0","76201","","null","","","null","53","","NaN","","","","","","","","","","","","","",""
"","response","","html-keyboard-response","351","446144","0.0-1.0-482.0-0.0","0","0","76201","","115","","","68","53","","","2","53","training","adjacent","ED","5","4","L.jpg","R.jpg","0","0","1","",""
"","feedback","","html-keyboard-response","352","447146","0.0-1.0-483.0-0.0","0","0","76201","","null","","","null","53","","","","","","","","","","","","","","","",""
"","ITI","","html-keyboard-response","353","448148","0.0-1.0-486.0","0","0","76201","","null","","","null","53","","","","","","","","","","","","","","","NaN",""
"","S1","","html-keyboard-response","354","448401","0.0-1.0-488.0","0","0","76201","","null","","","null","54","","","","","","","","","","","","","","","",""
"","ISI","","html-keyboard-response","355","449412","0.0-1.0-489.0","0","0","76201","","null","","","null","54","NaN","","","","","","","","","","","","","","",""
"","S2","","html-keyboard-response","356","449666","0.0-1.0-490.0","0","0","76201","","null","","","null","54","","NaN","","","","","","","","","","","","","",""
"","response","","html-keyboard-response","357","449912","0.0-1.0-491.0-0.0","0","0","76201","","244","","","68","54","","","2","54","training","adjacent","DC","4","3","R.jpg","Q.jpg","0","0","1","",""
"","feedback","","html-keyboard-response","358","450915","0.0-1.0-492.0-0.0","0","0","76201","","null","","","null","54","","","","","","","","","","","","","","","",""
"","ITI","","html-keyboard-response","359","451917","0.0-1.0-495.0","0","0","76201","","null","","","null","54","","","","","","","","","","","","","","","NaN",""
"","S1","","html-keyboard-response","360","452171","0.0-1.0-497.0","0","0","76201","","null","","","null","55","","","","","","","","","","","","","","","",""
"","ISI","","html-keyboard-response","361","453173","0.0-1.0-498.0","0","0","76201","","null","","","null","55","NaN","","","","","","","","","","","","","","",""
"","S2","","html-keyboard-response","362","453399","0.0-1.0-499.0","0","0","76201","","225","","","75","55","","k","2","55","training","adjacent","FE","6","5","N.jpg","L.jpg","1","0","0","",""
"","feedback","","html-keyboard-response","363","454401","0.0-1.0-501.0-0.0","0","0","76201","","null","","","null","55","","","","","","","","","","","","","","","",""
"","time_out","","html-keyboard-response","364","456403","0.0-1.0-503.0-0.0","0","0","76201","","null","","","null","55","","","","","","","","","","","","","","","",""
"","ITI","","html-keyboard-response","365","457407","0.0-1.0-504.0","0","0","76201","","null","","","null","55","","","","","","","","","","","","","","","NaN",""
"","S1","","html-keyboard-response","366","457659","0.0-1.0-506.0","0","0","76201","","null","","","null","56","","","","","","","","","","","","","","","",""
"","ISI","","html-keyboard-response","367","458661","0.0-1.0-507.0","0","0","76201","","null","","","null","56","NaN","","","","","","","","","","","","","","",""
"","S2","","html-keyboard-response","368","458913","0.0-1.0-508.0","0","0","76201","","null","","","null","56","","NaN","","","","","","","","","","","","","",""
"","response","","html-keyboard-response","369","458960","0.0-1.0-509.0-0.0","0","0","76201","","46","","","68","56","","","2","56","training","adjacent","EF","5","6","L.jpg","N.jpg","0","1","0","",""
"","feedback","","html-keyboard-response","370","459962","0.0-1.0-510.0-0.0","0","0","76201","","null","","","null","56","","","","","","","","","","","","","","","",""
"","time_out","","html-keyboard-response","371","461965","0.0-1.0-512.0-0.0","0","0","76201","","null","","","null","56","","","","","","","","","","","","","","","",""
"","ITI","","html-keyboard-response","372","462967","0.0-1.0-513.0","0","0","76201","","null","","","null","56","","","","","","","","","","","","","","","NaN",""
"","S1","","html-keyboard-response","373","463219","0.0-1.0-515.0","0","0","76201","","null","","","null","57","","","","","","","","","","","","","","","",""
"","ISI","","html-keyboard-response","374","464222","0.0-1.0-516.0","0","0","76201","","null","","","null","57","NaN","","","","","","","","","","","","","","",""
"","S2","","html-keyboard-response","375","464474","0.0-1.0-517.0","0","0","76201","","null","","","null","57","","NaN","","","","","","","","","","","","","",""
"","response","","html-keyboard-response","376","464840","0.0-1.0-518.0-0.0","0","0","76201","","365","","","68","57","","","2","57","training","adjacent","BA","2","1","P.jpg","O.jpg","0","0","1","",""
"","feedback","","html-keyboard-response","377","465843","0.0-1.0-519.0-0.0","0","0","76201","","null","","","null","57","","","","","","","","","","","","","","","",""
"","ITI","","html-keyboard-response","378","466847","0.0-1.0-522.0","0","0","76201","","null","","","null","57","","","","","","","","","","","","","","","NaN",""
"","S1","","html-keyboard-response","379","467100","0.0-1.0-524.0","0","0","76201","","null","","","null","58","","","","","","","","","","","","","","","",""
"","ISI","","html-keyboard-response","380","468104","0.0-1.0-525.0","0","0","76201","","null","","","null","58","NaN","","","","","","","","","","","","","","",""
"","S2","","html-keyboard-response","381","468357","0.0-1.0-526.0","0","0","76201","","null","","","null","58","","NaN","","","","","","","","","","","","","",""
"","response","","html-keyboard-response","382","468600","0.0-1.0-527.0-0.0","0","0","76201","","241","","","75","58","","","2","58","training","adjacent","BC","2","3","P.jpg","Q.jpg","1","1","1","",""
"","feedback","","html-keyboard-response","383","469603","0.0-1.0-528.0-0.0","0","0","76201","","null","","","null","58","","","","","","","","","","","","","","","",""
"","ITI","","html-keyboard-response","384","470606","0.0-1.0-531.0","0","0","76201","","null","","","null","58","","","","","","","","","","","","","","","NaN",""
"","S1","","html-keyboard-response","385","470863","0.0-1.0-533.0","0","0","76201","","null","","","null","59","","","","","","","","","","","","","","","",""
"","ISI","","html-keyboard-response","386","471866","0.0-1.0-534.0","0","0","76201","","null","","","null","59","NaN","","","","","","","","","","","","","","",""
"","S2","","html-keyboard-response","387","472104","0.0-1.0-535.0","0","0","76201","","236","","","75","59","","k","2","59","training","adjacent","AB","1","2","O.jpg","P.jpg","1","1","1","",""
"","feedback","","html-keyboard-response","388","473108","0.0-1.0-537.0-0.0","0","0","76201","","null","","","null","59","","","","","","","","","","","","","","","",""
"","ITI","","html-keyboard-response","389","474110","0.0-1.0-540.0","0","0","76201","","null","","","null","59","","","","","","","","","","","","","","","NaN",""
"","S1","","html-keyboard-response","390","474363","0.0-1.0-542.0","0","0","76201","","null","","","null","60","","","","","","","","","","","","","","","",""
"","ISI","","html-keyboard-response","391","475366","0.0-1.0-543.0","0","0","76201","","null","","","null","60","NaN","","","","","","","","","","","","","","",""
"","S2","","html-keyboard-response","392","475629","0.0-1.0-544.0","0","0","76201","","null","","","null","60","","NaN","","","","","","","","","","","","","",""
"","response","","html-keyboard-response","393","475710","0.0-1.0-545.0-0.0","0","0","76201","","81","","","75","60","","","2","60","training","adjacent","GF","7","6","M.jpg","N.jpg","1","0","0","",""
"","feedback","","html-keyboard-response","394","476713","0.0-1.0-546.0-0.0","0","0","76201","","null","","","null","60","","","","","","","","","","","","","","","",""
"","time_out","","html-keyboard-response","395","478716","0.0-1.0-548.0-0.0","0","0","76201","","null","","","null","60","","","","","","","","","","","","","","","",""
"","ITI","","html-keyboard-response","396","479719","0.0-1.0-549.0","0","0","76201","","null","","","null","60","","","","","","","","","","","","","","","NaN",""
"","S1","","html-keyboard-response","397","479972","0.0-1.0-551.0","0","0","76201","","null","","","null","61","","","","","","","","","","","","","","","",""
"","ISI","","html-keyboard-response","398","480975","0.0-1.0-552.0","0","0","76201","","null","","","null","61","NaN","","","","","","","","","","","","","","",""
"","S2","","html-keyboard-response","399","481227","0.0-1.0-553.0","0","0","76201","","null","","","null","61","","NaN","","","","","","","","","","","","","",""
"","response","","html-keyboard-response","400","481421","0.0-1.0-554.0-0.0","0","0","76201","","193","","","75","61","","","2","61","training","adjacent","BC","2","3","P.jpg","Q.jpg","1","1","1","",""
"","feedback","","html-keyboard-response","401","482423","0.0-1.0-555.0-0.0","0","0","76201","","null","","","null","61","","","","","","","","","","","","","","","",""
"","ITI","","html-keyboard-response","402","483425","0.0-1.0-558.0","0","0","76201","","null","","","null","61","","","","","","","","","","","","","","","NaN",""
"","S1","","html-keyboard-response","403","483677","0.0-1.0-560.0","0","0","76201","","null","","","null","62","","","","","","","","","","","","","","","",""
"","ISI","","html-keyboard-response","404","484680","0.0-1.0-561.0","0","0","76201","","null","","","null","62","NaN","","","","","","","","","","","","","","",""
"","S2","","html-keyboard-response","405","484932","0.0-1.0-562.0","0","0","76201","","null","","","null","62","","NaN","","","","","","","","","","","","","",""
"","response","","html-keyboard-response","406","485120","0.0-1.0-563.0-0.0","0","0","76201","","187","","","68","62","","","2","62","training","adjacent","CD","3","4","Q.jpg","R.jpg","0","1","0","",""
"","feedback","","html-keyboard-response","407","486122","0.0-1.0-564.0-0.0","0","0","76201","","null","","","null","62","","","","","","","","","","","","","","","",""
"","time_out","","html-keyboard-response","408","488125","0.0-1.0-566.0-0.0","0","0","76201","","null","","","null","62","","","","","","","","","","","","","","","",""
"","ITI","","html-keyboard-response","409","489127","0.0-1.0-567.0","0","0","76201","","null","","","null","62","","","","","","","","","","","","","","","NaN",""
"","S1","","html-keyboard-response","410","489379","0.0-1.0-569.0","0","0","76201","","null","","","null","63","","","","","","","","","","","","","","","",""
"","ISI","","html-keyboard-response","411","490381","0.0-1.0-570.0","0","0","76201","","null","","","null","63","NaN","","","","","","","","","","","","","","",""
"","S2","","html-keyboard-response","412","490634","0.0-1.0-571.0","0","0","76201","","null","","","null","63","","NaN","","","","","","","","","","","","","",""
"","response","","html-keyboard-response","413","490840","0.0-1.0-572.0-0.0","0","0","76201","","204","","","68","63","","","2","63","training","adjacent","ED","5","4","L.jpg","R.jpg","0","0","1","",""
"","feedback","","html-keyboard-response","414","491843","0.0-1.0-573.0-0.0","0","0","76201","","null","","","null","63","","","","","","","","","","","","","","","",""
"","ITI","","html-keyboard-response","415","492847","0.0-1.0-576.0","0","0","76201","","null","","","null","63","","","","","","","","","","","","","","","NaN",""
"","S1","","html-keyboard-response","416","493100","0.0-1.0-578.0","0","0","76201","","null","","","null","64","","","","","","","","","","","","","","","",""
"","ISI","","html-keyboard-response","417","494103","0.0-1.0-579.0","0","0","76201","","null","","","null","64","NaN","","","","","","","","","","","","","","",""
"","S2","","html-keyboard-response","418","494357","0.0-1.0-580.0","0","0","76201","","null","","","null","64","","NaN","","","","","","","","","","","","","",""
"","response","","html-keyboard-response","419","494408","0.0-1.0-581.0-0.0","0","0","76201","","50","","","75","64","","","2","64","training","adjacent","FG","6","7","N.jpg","M.jpg","1","1","1","",""
"","feedback","","html-keyboard-response","420","495411","0.0-1.0-582.0-0.0","0","0","76201","","null","","","null","64","","","","","","","","","","","","","","","",""
"","ITI","","html-keyboard-response","421","496414","0.0-1.0-585.0","0","0","76201","","null","","","null","64","","","","","","","","","","","","","","","NaN",""
"","S1","","html-keyboard-response","422","496667","0.0-1.0-587.0","0","0","76201","","null","","","null","65","","","","","","","","","","","","","","","",""
"","ISI","","html-keyboard-response","423","497669","0.0-1.0-588.0","0","0","76201","","null","","","null","65","NaN","","","","","","","","","","","","","","",""
"","S2","","html-keyboard-response","424","497922","0.0-1.0-589.0","0","0","76201","","null","","","null","65","","NaN","","","","","","","","","","","","","",""
"","response","","html-keyboard-response","425","497933","0.0-1.0-590.0-0.0","0","0","76201","","10","","","68","65","","","2","65","training","adjacent","CB","3","2","Q.jpg","P.jpg","0","0","1","",""
"","feedback","","html-keyboard-response","426","498936","0.0-1.0-591.0-0.0","0","0","76201","","null","","","null","65","","","","","","","","","","","","","","","",""
"","ITI","","html-keyboard-response","427","499938","0.0-1.0-594.0","0","0","76201","","null","","","null","65","","","","","","","","","","","","","","","NaN",""
"","S1","","html-keyboard-response","428","500192","0.0-1.0-596.0","0","0","76201","","null","","","null","66","","","","","","","","","","","","","","","",""
"","ISI","","html-keyboard-response","429","501203","0.0-1.0-597.0","0","0","76201","","null","","","null","66","NaN","","","","","","","","","","","","","","",""
"","S2","","html-keyboard-response","430","501385","0.0-1.0-598.0","0","0","76201","","179","","","75","66","","k","2","66","training","adjacent","CB","3","2","Q.jpg","P.jpg","1","0","0","",""
"","feedback","","html-keyboard-response","431","502389","0.0-1.0-600.0-0.0","0","0","76201","","null","","","null","66","","","","","","","","","","","","","","","",""
"","time_out","","html-keyboard-response","432","504391","0.0-1.0-602.0-0.0","0","0","76201","","null","","","null","66","","","","","","","","","","","","","","","",""
"","ITI","","html-keyboard-response","433","505393","0.0-1.0-603.0","0","0","76201","","null","","","null","66","","","","","","","","","","","","","","","NaN",""
"","S1","","html-keyboard-response","434","505647","0.0-1.0-605.0","0","0","76201","","null","","","null","67","","","","","","","","","","","","","","","",""
"","ISI","","html-keyboard-response","435","506650","0.0-1.0-606.0","0","0","76201","","null","","","null","67","NaN","","","","","","","","","","","","","","",""
"","S2","","html-keyboard-response","436","506903","0.0-1.0-607.0","0","0","76201","","null","","","null","67","","NaN","","","","","","","","","","","","","",""
"","response","","html-keyboard-response","437","507095","0.0-1.0-608.0-0.0","0","0","76201","","190","","","68","67","","","2","67","training","adjacent","CD","3","4","Q.jpg","R.jpg","0","1","0","",""
"","feedback","","html-keyboard-response","438","508097","0.0-1.0-609.0-0.0","0","0","76201","","null","","","null","67","","","","","","","","","","","","","","","",""
"","time_out","","html-keyboard-response","439","510100","0.0-1.0-611.0-0.0","0","0","76201","","null","","","null","67","","","","","","","","","","","","","","","",""
"","ITI","","html-keyboard-response","440","511104","0.0-1.0-612.0","0","0","76201","","null","","","null","67","","","","","","","","","","","","","","","NaN",""
"","S1","","html-keyboard-response","441","511357","0.0-1.0-614.0","0","0","76201","","null","","","null","68","","","","","","","","","","","","","","","",""
"","ISI","","html-keyboard-response","442","512359","0.0-1.0-615.0","0","0","76201","","null","","","null","68","NaN","","","","","","","","","","","","","","",""
"","S2","","html-keyboard-response","443","512608","0.0-1.0-616.0","0","0","76201","","247","","","75","68","","k","2","68","training","adjacent","AB","1","2","O.jpg","P.jpg","1","1","1","",""
"","feedback","","html-keyboard-response","444","513627","0.0-1.0-618.0-0.0","0","0","76201","","null","","","null","68","","","","","","","","","","","","","","","",""
"","ITI","","html-keyboard-response","445","514630","0.0-1.0-621.0","0","0","76201","","null","","","null","68","","","","","","","","","","","","","","","NaN",""
"","S1","","html-keyboard-response","446","514883","0.0-1.0-623.0","0","0","76201","","null","","","null","69","","","","","","","","","","","","","","","",""
"","ISI","","html-keyboard-response","447","515885","0.0-1.0-624.0","0","0","76201","","null","","","null","69","NaN","","","","","","","","","","","","","","",""
"","S2","","html-keyboard-response","448","516139","0.0-1.0-625.0","0","0","76201","","null","","","null","69","","NaN","","","","","","","","","","","","","",""
"","response","","html-keyboard-response","449","516184","0.0-1.0-626.0-0.0","0","0","76201","","43","","","75","69","","","2","69","training","adjacent","CD","3","4","Q.jpg","R.jpg","1","1","1","",""
"","feedback","","html-keyboard-response","450","517188","0.0-1.0-627.0-0.0","0","0","76201","","null","","","null","69","","","","","","","","","","","","","","","",""
"","ITI","","html-keyboard-response","451","518190","0.0-1.0-630.0","0","0","76201","","null","","","null","69","","","","","","","","","","","","","","","NaN",""
"","S1","","html-keyboard-response","452","518442","0.0-1.0-632.0","0","0","76201","","null","","","null","70","","","","","","","","","","","","","","","",""
"","ISI","","html-keyboard-response","453","519445","0.0-1.0-633.0","0","0","76201","","null","","","null","70","NaN","","","","","","","","","","","","","","",""
"","S2","","html-keyboard-response","454","519704","0.0-1.0-634.0","0","0","76201","","257","","","75","70","","k","2","70","training","adjacent","DC","4","3","R.jpg","Q.jpg","1","0","0","",""
"","feedback","","html-keyboard-response","455","520706","0.0-1.0-636.0-0.0","0","0","76201","","null","","","null","70","","","","","","","","","","","","","","","",""
"","time_out","","html-keyboard-response","456","522709","0.0-1.0-638.0-0.0","0","0","76201","","null","","","null","70","","","","","","","","","","","","","","","",""
"","ITI","","html-keyboard-response","457","523713","0.0-1.0-639.0","0","0","76201","","null","","","null","70","","","","","","","","","","","","","","","NaN",""
"","S1","","html-keyboard-response","458","523966","0.0-1.0-641.0","0","0","76201","","null","","","null","71","","","","","","","","","","","","","","","",""
"","ISI","","html-keyboard-response","459","524969","0.0-1.0-642.0","0","0","76201","","null","","","null","71","NaN","","","","","","","","","","","","","","",""
"","S2","","html-keyboard-response","460","525222","0.0-1.0-643.0","0","0","76201","","null","","","null","71","","NaN","","","","","","","","","","","","","",""
"","response","","html-keyboard-response","461","525313","0.0-1.0-644.0-0.0","0","0","76201","","88","","","68","71","","","2","71","training","adjacent","ED","5","4","L.jpg","R.jpg","0","0","1","",""
"","feedback","","html-keyboard-response","462","526317","0.0-1.0-645.0-0.0","0","0","76201","","null","","","null","71","","","","","","","","","","","","","","","",""
"","ITI","","html-keyboard-response","463","527327","0.0-1.0-648.0","0","0","76201","","null","","","null","71","","","","","","","","","","","","","","","NaN",""
"","S1","","html-keyboard-response","464","527581","0.0-1.0-650.0","0","0","76201","","null","","","null","72","","","","","","","","","","","","","","","",""
"","ISI","","html-keyboard-response","465","528584","0.0-1.0-651.0","0","0","76201","","null","","","null","72","NaN","","","","","","","","","","","","","","",""
"","S2","","html-keyboard-response","466","528837","0.0-1.0-652.0","0","0","76201","","null","","","null","72","","NaN","","","","","","","","","","","","","",""
"","response","","html-keyboard-response","467","529169","0.0-1.0-653.0-0.0","0","0","76201","","329","","","68","72","","","2","72","training","adjacent","BC","2","3","P.jpg","Q.jpg","0","1","0","",""
"","feedback","","html-keyboard-response","468","530172","0.0-1.0-654.0-0.0","0","0","76201","","null","","","null","72","","","","","","","","","","","","","","","",""
"","time_out","","html-keyboard-response","469","532174","0.0-1.0-656.0-0.0","0","0","76201","","null","","","null","72","","","","","","","","","","","","","","","",""
"","ITI","","html-keyboard-response","470","533176","0.0-1.0-657.0","0","0","76201","","null","","","null","72","","","","","","","","","","","","","","","NaN",""
"","S1","","html-keyboard-response","471","533434","0.0-1.0-659.0","0","0","76201","","null","","","null","73","","","","","","","","","","","","","","","",""
"","ISI","","html-keyboard-response","472","534436","0.0-1.0-660.0","0","0","76201","","null","","","null","73","NaN","","","","","","","","","","","","","","",""
"","S2","","html-keyboard-response","473","534600","0.0-1.0-661.0","0","0","76201","","162","","","75","73","","k","2","73","training","adjacent","DE","4","5","R.jpg","L.jpg","1","1","1","",""
"","feedback","","html-keyboard-response","474","535603","0.0-1.0-663.0-0.0","0","0","76201","","null","","","null","73","","","","","","","","","","","","","","","",""
"","ITI","","html-keyboard-response","475","536605","0.0-1.0-666.0","0","0","76201","","null","","","null","73","","","","","","","","","","","","","","","NaN",""
"","S1","","html-keyboard-response","476","536865","0.0-1.0-668.0","0","0","76201","","null","","","null","74","","","","","","","","","","","","","","","",""
"","ISI","","html-keyboard-response","477","537867","0.0-1.0-669.0","0","0","76201","","null","","","null","74","NaN","","","","","","","","","","","","","","",""
"","S2","","html-keyboard-response","478","538121","0.0-1.0-670.0","0","0","76201","","null","","","null","74","","NaN","","","","","","","","","","","","","",""
"","response","","html-keyboard-response","479","538169","0.0-1.0-671.0-0.0","0","0","76201","","45","","","75","74","","","2","74","training","adjacent","FE","6","5","N.jpg","L.jpg","1","0","0","",""
"","feedback","","html-keyboard-response","480","539172","0.0-1.0-672.0-0.0","0","0","76201","","null","","","null","74","","","","","","","","","","","","","","","",""
"","time_out","","html-keyboard-response","481","541175","0.0-1.0-674.0-0.0","0","0","76201","","null","","","null","74","","","","","","","","","","","","","","","",""
"","ITI","","html-keyboard-response","482","542178","0.0-1.0-675.0","0","0","76201","","null","","","null","74","","","","","","","","","","","","","","","NaN",""
"","S1","","html-keyboard-response","483","542430","0.0-1.0-677.0","0","0","76201","","null","","","null","75","","","","","","","","","","","","","","","",""
"","ISI","","html-keyboard-response","484","543433","0.0-1.0-678.0","0","0","76201","","null","","","null","75","NaN","","","","","","","","","","","","","","",""
"","S2","","html-keyboard-response","485","543686","0.0-1.0-679.0","0","0","76201","","null","","","null","75","","NaN","","","","","","","","","","","","","",""
"","response","","html-keyboard-response","486","543702","0.0-1.0-680.0-0.0","0","0","76201","","16","","","75","75","","","2","75","training","adjacent","BC","2","3","P.jpg","Q.jpg","1","1","1","",""
"","feedback","","html-keyboard-response","487","544704","0.0-1.0-681.0-0.0","0","0","76201","","null","","","null","75","","","","","","","","","","","","","","","",""
"","ITI","","html-keyboard-response","488","545707","0.0-1.0-684.0","0","0","76201","","null","","","null","75","","","","","","","","","","","","","","","NaN",""
"","S1","","html-keyboard-response","489","545960","0.0-1.0-686.0","0","0","76201","","null","","","null","76","","","","","","","","","","","","","","","",""
"","ISI","","html-keyboard-response","490","546963","0.0-1.0-687.0","0","0","76201","","null","","","null","76","NaN","","","","","","","","","","","","","","",""
"","S2","","html-keyboard-response","491","547216","0.0-1.0-688.0","0","0","76201","","null","","","null","76","","NaN","","","","","","","","","","","","","",""
"","response","","html-keyboard-response","492","547409","0.0-1.0-689.0-0.0","0","0","76201","","191","","","75","76","","","2","76","training","adjacent","CB","3","2","Q.jpg","P.jpg","1","0","0","",""
"","feedback","","html-keyboard-response","493","548413","0.0-1.0-690.0-0.0","0","0","76201","","null","","","null","76","","","","","","","","","","","","","","","",""
"","time_out","","html-keyboard-response","494","550416","0.0-1.0-692.0-0.0","0","0","76201","","null","","","null","76","","","","","","","","","","","","","","","",""
"","ITI","","html-keyboard-response","495","551418","0.0-1.0-693.0","0","0","76201","","null","","","null","76","","","","","","","","","","","","","","","NaN",""
"","S1","","html-keyboard-response","496","551671","0.0-1.0-695.0","0","0","76201","","null","","","null","77","","","","","","","","","","","","","","","",""
"","ISI","","html-keyboard-response","497","552674","0.0-1.0-696.0","0","0","76201","","null","","","null","77","NaN","","","","","","","","","","","","","","",""
"","S2","","html-keyboard-response","498","552927","0.0-1.0-697.0","0","0","76201","","null","","","null","77","","NaN","","","","","","","","","","","","","",""
"","response","","html-keyboard-response","499","552953","0.0-1.0-698.0-0.0","0","0","76201","","24","","","75","77","","","2","77","training","adjacent","AB","1","2","O.jpg","P.jpg","1","1","1","",""
"","feedback","","html-keyboard-response","500","553955","0.0-1.0-699.0-0.0","0","0","76201","","null","","","null","77","","","","","","","","","","","","","","","",""
"","ITI","","html-keyboard-response","501","554958","0.0-1.0-702.0","0","0","76201","","null","","","null","77","","","","","","","","","","","","","","","NaN",""
"","S1","","html-keyboard-response","502","555210","0.0-1.0-704.0","0","0","76201","","null","","","null","78","","","","","","","","","","","","","","","",""
"","ISI","","html-keyboard-response","503","556213","0.0-1.0-705.0","0","0","76201","","null","","","null","78","NaN","","","","","","","","","","","","","","",""
"","S2","","html-keyboard-response","504","556466","0.0-1.0-706.0","0","0","76201","","null","","","null","78","","NaN","","","","","","","","","","","","","",""
"","response","","html-keyboard-response","505","556584","0.0-1.0-707.0-0.0","0","0","76201","","117","","","68","78","","","2","78","training","adjacent","EF","5","6","L.jpg","N.jpg","0","1","0","",""
"","feedback","","html-keyboard-response","506","557588","0.0-1.0-708.0-0.0","0","0","76201","","null","","","null","78","","","","","","","","","","","","","","","",""
"","time_out","","html-keyboard-response","507","559590","0.0-1.0-710.0-0.0","0","0","76201","","null","","","null","78","","","","","","","","","","","","","","","",""
"","ITI","","html-keyboard-response","508","560592","0.0-1.0-711.0","0","0","76201","","null","","","null","78","","","","","","","","","","","","","","","NaN",""
"","S1","","html-keyboard-response","509","560846","0.0-1.0-713.0","0","0","76201","","null","","","null","79","","","","","","","","","","","","","","","",""
"","ISI","","html-keyboard-response","510","561848","0.0-1.0-714.0","0","0","76201","","null","","","null","79","NaN","","","","","","","","","","","","","","",""
"","S2","","html-keyboard-response","511","562105","0.0-1.0-715.0","0","0","76201","","null","","","null","79","","NaN","","","","","","","","","","","","","",""
"","response","","html-keyboard-response","512","562169","0.0-1.0-716.0-0.0","0","0","76201","","61","","","75","79","","","2","79","training","adjacent","DE","4","5","R.jpg","L.jpg","1","1","1","",""
"","feedback","","html-keyboard-response","513","563181","0.0-1.0-717.0-0.0","0","0","76201","","null","","","null","79","","","","","","","","","","","","","","","",""
"","ITI","","html-keyboard-response","514","564199","0.0-1.0-720.0","0","0","76201","","null","","","null","79","","","","","","","","","","","","","","","NaN",""
"","S1","","html-keyboard-response","515","564453","0.0-1.0-722.0","0","0","76201","","null","","","null","80","","","","","","","","","","","","","","","",""
"","ISI","","html-keyboard-response","516","565455","0.0-1.0-723.0","0","0","76201","","null","","","null","80","NaN","","","","","","","","","","","","","","",""
"","S2","","html-keyboard-response","517","565708","0.0-1.0-724.0","0","0","76201","","null","","","null","80","","NaN","","","","","","","","","","","","","",""
"","response","","html-keyboard-response","518","565710","0.0-1.0-725.0-0.0","0","0","76201","","1","","","75","80","","","2","80","training","adjacent","BA","2","1","P.jpg","O.jpg","1","0","0","",""
"","feedback","","html-keyboard-response","519","566713","0.0-1.0-726.0-0.0","0","0","76201","","null","","","null","80","","","","","","","","","","","","","","","",""
"","time_out","","html-keyboard-response","520","568717","0.0-1.0-728.0-0.0","0","0","76201","","null","","","null","80","","","","","","","","","","","","","","","",""
"","ITI","","html-keyboard-response","521","569719","0.0-1.0-729.0","0","0","76201","","null","","","null","80","","","","","","","","","","","","","","","NaN",""
"","S1","","html-keyboard-response","522","569971","0.0-1.0-731.0","0","0","76201","","null","","","null","81","","","","","","","","","","","","","","","",""
"","ISI","","html-keyboard-response","523","570972","0.0-1.0-732.0","0","0","76201","","null","","","null","81","NaN","","","","","","","","","","","","","","",""
"","S2","","html-keyboard-response","524","571199","0.0-1.0-733.0","0","0","76201","","226","","","68","81","","d","2","81","training","adjacent","DE","4","5","R.jpg","L.jpg","0","1","0","",""
"","feedback","","html-keyboard-response","525","572202","0.0-1.0-735.0-0.0","0","0","76201","","null","","","null","81","","","","","","","","","","","","","","","",""
"","time_out","","html-keyboard-response","526","574203","0.0-1.0-737.0-0.0","0","0","76201","","null","","","null","81","","","","","","","","","","","","","","","",""
"","ITI","","html-keyboard-response","527","575204","0.0-1.0-738.0","0","0","76201","","null","","","null","81","","","","","","","","","","","","","","","NaN",""
"","S1","","html-keyboard-response","528","575457","0.0-1.0-740.0","0","0","76201","","null","","","null","82","","","","","","","","","","","","","","","",""
"","ISI","","html-keyboard-response","529","576460","0.0-1.0-741.0","0","0","76201","","null","","","null","82","NaN","","","","","","","","","","","","","","",""
"","S2","","html-keyboard-response","530","576713","0.0-1.0-742.0","0","0","76201","","null","","","null","82","","NaN","","","","","","","","","","","","","",""
"","response","","html-keyboard-response","531","576760","0.0-1.0-743.0-0.0","0","0","76201","","46","","","75","82","","","2","82","training","adjacent","FG","6","7","N.jpg","M.jpg","1","1","1","",""
"","feedback","","html-keyboard-response","532","577762","0.0-1.0-744.0-0.0","0","0","76201","","null","","","null","82","","","","","","","","","","","","","","","",""
"","ITI","","html-keyboard-response","533","578764","0.0-1.0-747.0","0","0","76201","","null","","","null","82","","","","","","","","","","","","","","","NaN",""
"","S1","","html-keyboard-response","534","579017","0.0-1.0-749.0","0","0","76201","","null","","","null","83","","","","","","","","","","","","","","","",""
"","ISI","","html-keyboard-response","535","580019","0.0-1.0-750.0","0","0","76201","","null","","","null","83","NaN","","","","","","","","","","","","","","",""
"","S2","","html-keyboard-response","536","580262","0.0-1.0-751.0","0","0","76201","","242","","","68","83","","d","2","83","training","adjacent","FG","6","7","N.jpg","M.jpg","0","1","0","",""
"","feedback","","html-keyboard-response","537","581264","0.0-1.0-753.0-0.0","0","0","76201","","null","","","null","83","","","","","","","","","","","","","","","",""
"","time_out","","html-keyboard-response","538","583266","0.0-1.0-755.0-0.0","0","0","76201","","null","","","null","83","","","","","","","","","","","","","","","",""
"","ITI","","html-keyboard-response","539","584268","0.0-1.0-756.0","0","0","76201","","null","","","null","83","","","","","","","","","","","","","","","NaN",""
"","S1","","html-keyboard-response","540","584521","0.0-1.0-758.0","0","0","76201","","null","","","null","84","","","","","","","","","","","","","","","",""
"","ISI","","html-keyboard-response","541","585523","0.0-1.0-759.0","0","0","76201","","null","","","null","84","NaN","","","","","","","","","","","","","","",""
"","S2","","html-keyboard-response","542","585777","0.0-1.0-760.0","0","0","76201","","null","","","null","84","","NaN","","","","","","","","","","","","","",""
"","response","","html-keyboard-response","543","586064","0.0-1.0-761.0-0.0","0","0","76201","","285","","","75","84","","","2","84","training","adjacent","FE","6","5","N.jpg","L.jpg","1","0","0","",""
"","feedback","","html-keyboard-response","544","587068","0.0-1.0-762.0-0.0","0","0","76201","","null","","","null","84","","","","","","","","","","","","","","","",""
"","time_out","","html-keyboard-response","545","589070","0.0-1.0-764.0-0.0","0","0","76201","","null","","","null","84","","","","","","","","","","","","","","","",""
"","ITI","","html-keyboard-response","546","590072","0.0-1.0-765.0","0","0","76201","","null","","","null","84","","","","","","","","","","","","","","","NaN",""
"","S1","","html-keyboard-response","547","590324","0.0-1.0-767.0","0","0","76201","","null","","","null","85","","","","","","","","","","","","","","","",""
"","ISI","","html-keyboard-response","548","591327","0.0-1.0-768.0","0","0","76201","","null","","","null","85","NaN","","","","","","","","","","","","","","",""
"","S2","","html-keyboard-response","549","591580","0.0-1.0-769.0","0","0","76201","","null","","","null","85","","NaN","","","","","","","","","","","","","",""
"","response","","html-keyboard-response","550","591673","0.0-1.0-770.0-0.0","0","0","76201","","92","","","68","85","","","2","85","training","adjacent","GF","7","6","M.jpg","N.jpg","0","0","1","",""
"","feedback","","html-keyboard-response","551","592676","0.0-1.0-771.0-0.0","0","0","76201","","null","","","null","85","","","","","","","","","","","","","","","",""
"","ITI","","html-keyboard-response","552","593677","0.0-1.0-774.0","0","0","76201","","null","","","null","85","","","","","","","","","","","","","","","NaN",""
"","S1","","html-keyboard-response","553","593930","0.0-1.0-776.0","0","0","76201","","null","","","null","86","","","","","","","","","","","","","","","",""
"","ISI","","html-keyboard-response","554","594933","0.0-1.0-777.0","0","0","76201","","null","","","null","86","NaN","","","","","","","","","","","","","","",""
"","S2","","html-keyboard-response","555","595169","0.0-1.0-778.0","0","0","76201","","233","","","75","86","","k","2","86","training","adjacent","GF","7","6","M.jpg","N.jpg","1","0","0","",""
"","feedback","","html-keyboard-response","556","596172","0.0-1.0-780.0-0.0","0","0","76201","","null","","","null","86","","","","","","","","","","","","","","","",""
"","time_out","","html-keyboard-response","557","598176","0.0-1.0-782.0-0.0","0","0","76201","","null","","","null","86","","","","","","","","","","","","","","","",""
"","ITI","","html-keyboard-response","558","599179","0.0-1.0-783.0","0","0","76201","","null","","","null","86","","","","","","","","","","","","","","","NaN",""
"","S1","","html-keyboard-response","559","599432","0.0-1.0-785.0","0","0","76201","","null","","","null","87","","","","","","","","","","","","","","","",""
"","ISI","","html-keyboard-response","560","600434","0.0-1.0-786.0","0","0","76201","","null","","","null","87","NaN","","","","","","","","","","","","","","",""
"","S2","","html-keyboard-response","561","600665","0.0-1.0-787.0","0","0","76201","","229","","","75","87","","k","2","87","training","adjacent","BA","2","1","P.jpg","O.jpg","1","0","0","",""
"","feedback","","html-keyboard-response","562","601669","0.0-1.0-789.0-0.0","0","0","76201","","null","","","null","87","","","","","","","","","","","","","","","",""
"","time_out","","html-keyboard-response","563","603672","0.0-1.0-791.0-0.0","0","0","76201","","null","","","null","87","","","","","","","","","","","","","","","",""
"","ITI","","html-keyboard-response","564","604674","0.0-1.0-792.0","0","0","76201","","null","","","null","87","","","","","","","","","","","","","","","NaN",""
"","S1","","html-keyboard-response","565","604927","0.0-1.0-794.0","0","0","76201","","null","","","null","88","","","","","","","","","","","","","","","",""
"","ISI","","html-keyboard-response","566","605930","0.0-1.0-795.0","0","0","76201","","null","","","null","88","NaN","","","","","","","","","","","","","","",""
"","S2","","html-keyboard-response","567","606182","0.0-1.0-796.0","0","0","76201","","null","","","null","88","","NaN","","","","","","","","","","","","","",""
"","response","","html-keyboard-response","568","606409","0.0-1.0-797.0-0.0","0","0","76201","","224","","","68","88","","","2","88","training","adjacent","ED","5","4","L.jpg","R.jpg","0","0","1","",""
"","feedback","","html-keyboard-response","569","607412","0.0-1.0-798.0-0.0","0","0","76201","","null","","","null","88","","","","","","","","","","","","","","","",""
"","ITI","","html-keyboard-response","570","608416","0.0-1.0-801.0","0","0","76201","","null","","","null","88","","","","","","","","","","","","","","","NaN",""
"","S1","","html-keyboard-response","571","608668","0.0-1.0-803.0","0","0","76201","","null","","","null","89","","","","","","","","","","","","","","","",""
"","ISI","","html-keyboard-response","572","609671","0.0-1.0-804.0","0","0","76201","","null","","","null","89","NaN","","","","","","","","","","","","","","",""
"","S2","","html-keyboard-response","573","609889","0.0-1.0-805.0","0","0","76201","","216","","","75","89","","k","2","89","training","adjacent","AB","1","2","O.jpg","P.jpg","1","1","1","",""
"","feedback","","html-keyboard-response","574","610892","0.0-1.0-807.0-0.0","0","0","76201","","null","","","null","89","","","","","","","","","","","","","","","",""
"","ITI","","html-keyboard-response","575","611894","0.0-1.0-810.0","0","0","76201","","null","","","null","89","","","","","","","","","","","","","","","NaN",""
"","S1","","html-keyboard-response","576","612148","0.0-1.0-812.0","0","0","76201","","null","","","null","90","","","","","","","","","","","","","","","",""
"","ISI","","html-keyboard-response","577","613150","0.0-1.0-813.0","0","0","76201","","null","","","null","90","NaN","","","","","","","","","","","","","","",""
"","S2","","html-keyboard-response","578","613403","0.0-1.0-814.0","0","0","76201","","null","","","null","90","","NaN","","","","","","","","","","","","","",""
"","response","","html-keyboard-response","579","613585","0.0-1.0-815.0-0.0","0","0","76201","","180","","","68","90","","","2","90","training","adjacent","CB","3","2","Q.jpg","P.jpg","0","0","1","",""
"","feedback","","html-keyboard-response","580","614588","0.0-1.0-816.0-0.0","0","0","76201","","null","","","null","90","","","","","","","","","","","","","","","",""
"","ITI","","html-keyboard-response","581","615591","0.0-1.0-819.0","0","0","76201","","null","","","null","90","","","","","","","","","","","","","","","NaN",""
