"success","ttype","start_time","trial_type","trial_index","time_elapsed","internal_node_id","warning","missed_checkup","PID","view_history","rt","responses","repeat_instructions","key_press","index","keypress_isi","keypress_S2","block","trial_num","phase","group_type","pair_type","S1_stim","S2_stim","S1_img","S2_img","S1_chosen","S1_higher","accuracy","keypress_iti","total_bonus_tally"
"true","full_screen","d07282022hr1720","fullscreen","0","6192","0.0-0.0","0","0","82299","","","","","","","","","","","","","","","","","","","","","",""
"","instructions","","instructions","1","71709","0.0-1.0-0.0-0.0","0","0","82299","[{""page_index"":0,""viewing_time"":35454},{""page_index"":1,""viewing_time"":14080},{""page_index"":2,""viewing_time"":11730},{""page_index"":3,""viewing_time"":4250}]","65515","","","","","","","","","","","","","","","","","","","",""
"","comprehension_check","","survey-multi-choice","2","95168","0.0-1.0-0.0-1.0","0","0","82299","","23454","{""Q0"":""True"",""Q1"":""True"",""Q2"":""When you see the prompt 'MAKE A CHOICE' after the second image was presented"",""Q3"":""Green mark"",""Q4"":""either D or K""}","0","","","","","","","","","","","","","","","","","",""
"","start_exp","","html-keyboard-response","3","128878","0.0-1.0-1.0","0","0","82299","","33706","","","32","","","","","","","","","","","","","","","","",""
"","S1","","html-keyboard-response","4","129130","0.0-1.0-2.0","0","0","82299","","null","","","null","0","","","","","","","","","","","","","","","",""
"","ISI","","html-keyboard-response","5","131132","0.0-1.0-3.0","0","0","82299","","1755","","","75","0","k","","","","","","","","","","","","","","",""
"","S2","","html-keyboard-response","6","131385","0.0-1.0-4.0","0","0","82299","","null","","","null","0","","NaN","","","","","","","","","","","","","",""
"","response","","html-keyboard-response","7","132449","0.0-1.0-5.0","0","0","82299","","1063","","","75","0","","","1","0","training","adjacent","FG","6","7","N.jpg","R.jpg","1","1","1","",""
"","feedback","","html-keyboard-response","8","133451","0.0-1.0-6.0-0.0","0","0","82299","","null","","","null","0","","","","","","","","","","","","","","","",""
"","ITI","","html-keyboard-response","9","134453","0.0-1.0-9.0","0","0","82299","","null","","","null","0","","","","","","","","","","","","","","","NaN",""
"","S1","","html-keyboard-response","10","134705","0.0-1.0-11.0","0","0","82299","","null","","","null","1","","","","","","","","","","","","","","","",""
"","ISI","","html-keyboard-response","11","136707","0.0-1.0-12.0","0","0","82299","","1281","","","75","1","k","","","","","","","","","","","","","","",""
"","S2","","html-keyboard-response","12","136958","0.0-1.0-13.0","0","0","82299","","null","","","null","1","","NaN","","","","","","","","","","","","","",""
"","response","","html-keyboard-response","13","138267","0.0-1.0-14.0","0","0","82299","","1307","","","75","1","","","1","1","training","adjacent","BC","2","3","M.jpg","Q.jpg","1","1","1","",""
"","feedback","","html-keyboard-response","14","139270","0.0-1.0-15.0-0.0","0","0","82299","","null","","","null","1","","","","","","","","","","","","","","","",""
"","ITI","","html-keyboard-response","15","140271","0.0-1.0-18.0","0","0","82299","","null","","","null","1","","","","","","","","","","","","","","","NaN",""
"","S1","","html-keyboard-response","16","140524","0.0-1.0-20.0","0","0","82299","","null","","","null","2","","","","","","","","","","","","","","","",""
"","ISI","","html-keyboard-response","17","142529","0.0-1.0-21.0","0","0","82299","","null","","","null","2","NaN","","","","","","","","","","","","","","",""
"","S2","","html-keyboard-response","18","142783","0.0-1.0-22.0","0","0","82299","","null","","","null","2","","NaN","","","","","","","","","","","","","",""
"","response","","html-keyboard-response","19","142897","0.0-1.0-23.0","0","0","82299","","112","","","68","2","","","1","2","training","adjacent","ED","5","4","O.jpg","L.jpg","0","0","1","",""
"","feedback","","html-keyboard-response","20","143899","0.0-1.0-24.0-0.0","0","0","82299","","null","","","null","2","","","","","","","","","","","","","","","",""
"","ITI","","html-keyboard-response","21","144900","0.0-1.0-27.0","0","0","82299","","737","","","68","2","","","","","","","","","","","","","","","d",""
"","S1","","html-keyboard-response","22","145154","0.0-1.0-29.0","0","0","82299","","null","","","null","3","","","","","","","","","","","","","","","",""
"","ISI","","html-keyboard-response","23","147157","0.0-1.0-30.0","0","0","82299","","null","","","null","3","NaN","","","","","","","","","","","","","","",""
"","S2","","html-keyboard-response","24","147410","0.0-1.0-31.0","0","0","82299","","null","","","null","3","","NaN","","","","","","","","","","","","","",""
"","response","","html-keyboard-response","25","148379","0.0-1.0-32.0","0","0","82299","","967","","","75","3","","","1","3","training","adjacent","GF","7","6","R.jpg","N.jpg","1","0","0","",""
"","feedback","","html-keyboard-response","26","149382","0.0-1.0-33.0-0.0","0","0","82299","","null","","","null","3","","","","","","","","","","","","","","","",""
"","time_out","","html-keyboard-response","27","151384","0.0-1.0-35.0-0.0","0","0","82299","","null","","","null","3","","","","","","","","","","","","","","","",""
"","ITI","","html-keyboard-response","28","152386","0.0-1.0-36.0","0","0","82299","","null","","","null","3","","","","","","","","","","","","","","","NaN",""
"","S1","","html-keyboard-response","29","152638","0.0-1.0-38.0","0","0","82299","","null","","","null","4","","","","","","","","","","","","","","","",""
"","ISI","","html-keyboard-response","30","154640","0.0-1.0-39.0","0","0","82299","","838","","","68","4","d","","","","","","","","","","","","","","",""
"","S2","","html-keyboard-response","31","154892","0.0-1.0-40.0","0","0","82299","","null","","","null","4","","NaN","","","","","","","","","","","","","",""
"","response","","html-keyboard-response","32","155417","0.0-1.0-41.0","0","0","82299","","524","","","68","4","","","1","4","training","adjacent","FG","6","7","N.jpg","R.jpg","0","1","0","",""
"","feedback","","html-keyboard-response","33","156420","0.0-1.0-42.0-0.0","0","0","82299","","null","","","null","4","","","","","","","","","","","","","","","",""
"","time_out","","html-keyboard-response","34","158421","0.0-1.0-44.0-0.0","0","0","82299","","null","","","null","4","","","","","","","","","","","","","","","",""
"","ITI","","html-keyboard-response","35","159424","0.0-1.0-45.0","0","0","82299","","null","","","null","4","","","","","","","","","","","","","","","NaN",""
"","S1","","html-keyboard-response","36","159676","0.0-1.0-47.0","0","0","82299","","null","","","null","5","","","","","","","","","","","","","","","",""
"","ISI","","html-keyboard-response","37","161679","0.0-1.0-48.0","0","0","82299","","1970","","","75","5","k","","","","","","","","","","","","","","",""
"","S2","","html-keyboard-response","38","161931","0.0-1.0-49.0","0","0","82299","","null","","","null","5","","NaN","","","","","","","","","","","","","",""
"","response","","html-keyboard-response","39","163227","0.0-1.0-50.0","0","0","82299","","1294","","","75","5","","","1","5","training","adjacent","EF","5","6","O.jpg","N.jpg","1","1","1","",""
"","feedback","","html-keyboard-response","40","164229","0.0-1.0-51.0-0.0","0","0","82299","","null","","","null","5","","","","","","","","","","","","","","","",""
"","ITI","","html-keyboard-response","41","165232","0.0-1.0-54.0","0","0","82299","","null","","","null","5","","","","","","","","","","","","","","","NaN",""
"","S1","","html-keyboard-response","42","165484","0.0-1.0-56.0","0","0","82299","","null","","","null","6","","","","","","","","","","","","","","","",""
"","ISI","","html-keyboard-response","43","167486","0.0-1.0-57.0","0","0","82299","","null","","","null","6","NaN","","","","","","","","","","","","","","",""
"","S2","","html-keyboard-response","44","167739","0.0-1.0-58.0","0","0","82299","","null","","","null","6","","NaN","","","","","","","","","","","","","",""
"","response","","html-keyboard-response","45","167827","0.0-1.0-59.0","0","0","82299","","87","","","75","6","","","1","6","training","adjacent","BA","2","1","M.jpg","P.jpg","1","0","0","",""
"","feedback","","html-keyboard-response","46","168830","0.0-1.0-60.0-0.0","0","0","82299","","null","","","null","6","","","","","","","","","","","","","","","",""
"","time_out","","html-keyboard-response","47","170832","0.0-1.0-62.0-0.0","0","0","82299","","null","","","null","6","","","","","","","","","","","","","","","",""
"","ITI","","html-keyboard-response","48","171836","0.0-1.0-63.0","0","0","82299","","null","","","null","6","","","","","","","","","","","","","","","NaN",""
"","S1","","html-keyboard-response","49","172088","0.0-1.0-65.0","0","0","82299","","null","","","null","7","","","","","","","","","","","","","","","",""
"","ISI","","html-keyboard-response","50","174090","0.0-1.0-66.0","0","0","82299","","1297","","","68","7","d","","","","","","","","","","","","","","",""
"","S2","","html-keyboard-response","51","174342","0.0-1.0-67.0","0","0","82299","","null","","","null","7","","NaN","","","","","","","","","","","","","",""
"","response","","html-keyboard-response","52","174857","0.0-1.0-68.0","0","0","82299","","513","","","68","7","","","1","7","training","adjacent","BC","2","3","M.jpg","Q.jpg","0","1","0","",""
"","feedback","","html-keyboard-response","53","175859","0.0-1.0-69.0-0.0","0","0","82299","","null","","","null","7","","","","","","","","","","","","","","","",""
"","time_out","","html-keyboard-response","54","177861","0.0-1.0-71.0-0.0","0","0","82299","","null","","","null","7","","","","","","","","","","","","","","","",""
"","ITI","","html-keyboard-response","55","178863","0.0-1.0-72.0","0","0","82299","","null","","","null","7","","","","","","","","","","","","","","","NaN",""
"","S1","","html-keyboard-response","56","179116","0.0-1.0-74.0","0","0","82299","","null","","","null","8","","","","","","","","","","","","","","","",""
"","ISI","","html-keyboard-response","57","181118","0.0-1.0-75.0","0","0","82299","","850","","","75","8","k","","","","","","","","","","","","","","",""
"","S2","","html-keyboard-response","58","181374","0.0-1.0-76.0","0","0","82299","","null","","","null","8","","NaN","","","","","","","","","","","","","",""
"","response","","html-keyboard-response","59","182487","0.0-1.0-77.0","0","0","82299","","1112","","","75","8","","","1","8","training","adjacent","ED","5","4","O.jpg","L.jpg","1","0","0","",""
"","feedback","","html-keyboard-response","60","183489","0.0-1.0-78.0-0.0","0","0","82299","","null","","","null","8","","","","","","","","","","","","","","","",""
"","time_out","","html-keyboard-response","61","185492","0.0-1.0-80.0-0.0","0","0","82299","","null","","","null","8","","","","","","","","","","","","","","","",""
"","ITI","","html-keyboard-response","62","186494","0.0-1.0-81.0","0","0","82299","","null","","","null","8","","","","","","","","","","","","","","","NaN",""
"","S1","","html-keyboard-response","63","186746","0.0-1.0-83.0","0","0","82299","","null","","","null","9","","","","","","","","","","","","","","","",""
"","ISI","","html-keyboard-response","64","188749","0.0-1.0-84.0","0","0","82299","","null","","","null","9","NaN","","","","","","","","","","","","","","",""
"","S2","","html-keyboard-response","65","189003","0.0-1.0-85.0","0","0","82299","","null","","","null","9","","NaN","","","","","","","","","","","","","",""
"","response","","html-keyboard-response","66","189387","0.0-1.0-86.0","0","0","82299","","383","","","68","9","","","1","9","training","adjacent","BC","2","3","M.jpg","Q.jpg","0","1","0","",""
"","feedback","","html-keyboard-response","67","190390","0.0-1.0-87.0-0.0","0","0","82299","","null","","","null","9","","","","","","","","","","","","","","","",""
"","time_out","","html-keyboard-response","68","192392","0.0-1.0-89.0-0.0","0","0","82299","","null","","","null","9","","","","","","","","","","","","","","","",""
"","ITI","","html-keyboard-response","69","193395","0.0-1.0-90.0","0","0","82299","","null","","","null","9","","","","","","","","","","","","","","","NaN",""
"","S1","","html-keyboard-response","70","193647","0.0-1.0-92.0","0","0","82299","","null","","","null","10","","","","","","","","","","","","","","","",""
"","ISI","","html-keyboard-response","71","195649","0.0-1.0-93.0","0","0","82299","","null","","","null","10","NaN","","","","","","","","","","","","","","",""
"","S2","","html-keyboard-response","72","195902","0.0-1.0-94.0","0","0","82299","","null","","","null","10","","NaN","","","","","","","","","","","","","",""
"","response","","html-keyboard-response","73","196148","0.0-1.0-95.0","0","0","82299","","246","","","68","10","","","1","10","training","adjacent","CB","3","2","Q.jpg","M.jpg","0","0","1","",""
"","feedback","","html-keyboard-response","74","197151","0.0-1.0-96.0-0.0","0","0","82299","","null","","","null","10","","","","","","","","","","","","","","","",""
"","ITI","","html-keyboard-response","75","198156","0.0-1.0-99.0","0","0","82299","","null","","","null","10","","","","","","","","","","","","","","","NaN",""
"","S1","","html-keyboard-response","76","198408","0.0-1.0-101.0","0","0","82299","","null","","","null","11","","","","","","","","","","","","","","","",""
"","ISI","","html-keyboard-response","77","200410","0.0-1.0-102.0","0","0","82299","","1048","","","75","11","k","","","","","","","","","","","","","","",""
"","S2","","html-keyboard-response","78","200662","0.0-1.0-103.0","0","0","82299","","null","","","null","11","","NaN","","","","","","","","","","","","","",""
"","response","","html-keyboard-response","79","201387","0.0-1.0-104.0","0","0","82299","","724","","","75","11","","","1","11","training","adjacent","CD","3","4","Q.jpg","L.jpg","1","1","1","",""
"","feedback","","html-keyboard-response","80","202389","0.0-1.0-105.0-0.0","0","0","82299","","null","","","null","11","","","","","","","","","","","","","","","",""
"","ITI","","html-keyboard-response","81","203393","0.0-1.0-108.0","0","0","82299","","null","","","null","11","","","","","","","","","","","","","","","NaN",""
"","S1","","html-keyboard-response","82","203646","0.0-1.0-110.0","0","0","82299","","null","","","null","12","","","","","","","","","","","","","","","",""
"","ISI","","html-keyboard-response","83","205648","0.0-1.0-111.0","0","0","82299","","null","","","null","12","NaN","","","","","","","","","","","","","","",""
"","S2","","html-keyboard-response","84","205901","0.0-1.0-112.0","0","0","82299","","null","","","null","12","","NaN","","","","","","","","","","","","","",""
"","response","","html-keyboard-response","85","206927","0.0-1.0-113.0","0","0","82299","","1026","","","68","12","","","1","12","training","adjacent","AB","1","2","P.jpg","M.jpg","0","1","0","",""
"","feedback","","html-keyboard-response","86","207930","0.0-1.0-114.0-0.0","0","0","82299","","null","","","null","12","","","","","","","","","","","","","","","",""
"","time_out","","html-keyboard-response","87","209932","0.0-1.0-116.0-0.0","0","0","82299","","null","","","null","12","","","","","","","","","","","","","","","",""
"","ITI","","html-keyboard-response","88","210935","0.0-1.0-117.0","0","0","82299","","null","","","null","12","","","","","","","","","","","","","","","NaN",""
"","S1","","html-keyboard-response","89","211188","0.0-1.0-119.0","0","0","82299","","null","","","null","13","","","","","","","","","","","","","","","",""
"","ISI","","html-keyboard-response","90","213190","0.0-1.0-120.0","0","0","82299","","null","","","null","13","NaN","","","","","","","","","","","","","","",""
"","S2","","html-keyboard-response","91","213442","0.0-1.0-121.0","0","0","82299","","null","","","null","13","","NaN","","","","","","","","","","","","","",""
"","response","","html-keyboard-response","92","215444","0.0-1.0-122.0","0","0","82299","","null","","","null","13","","","1","13","training","adjacent","AB","1","2","P.jpg","M.jpg","NaN","1","0","",""
"","too_slow_prompt","","html-keyboard-response","93","216446","0.0-1.0-124.0-0.0","1","0","82299","","null","","","null","","","","","","","","","","","","","","","","",""
"","time_out","","html-keyboard-response","94","218448","0.0-1.0-125.0-0.0","0","0","82299","","null","","","null","13","","","","","","","","","","","","","","","",""
"","ITI","","html-keyboard-response","95","219451","0.0-1.0-126.0","0","0","82299","","null","","","null","13","","","","","","","","","","","","","","","NaN",""
"","S1","","html-keyboard-response","96","219703","0.0-1.0-128.0","0","0","82299","","null","","","null","14","","","","","","","","","","","","","","","",""
"","ISI","","html-keyboard-response","97","221705","0.0-1.0-129.0","0","0","82299","","null","","","null","14","NaN","","","","","","","","","","","","","","",""
"","S2","","html-keyboard-response","98","221958","0.0-1.0-130.0","0","0","82299","","null","","","null","14","","NaN","","","","","","","","","","","","","",""
"","response","","html-keyboard-response","99","223960","0.0-1.0-131.0","0","0","82299","","null","","","null","14","","","1","14","training","adjacent","BC","2","3","M.jpg","Q.jpg","NaN","1","0","",""
"","too_slow_prompt","","html-keyboard-response","100","224964","0.0-1.0-133.0-0.0","1","0","82299","","null","","","null","","","","","","","","","","","","","","","","",""
"","time_out","","html-keyboard-response","101","226967","0.0-1.0-134.0-0.0","0","0","82299","","null","","","null","14","","","","","","","","","","","","","","","",""
"","ITI","","html-keyboard-response","102","227969","0.0-1.0-135.0","0","0","82299","","null","","","null","14","","","","","","","","","","","","","","","NaN",""
"","S1","","html-keyboard-response","103","228222","0.0-1.0-137.0","0","0","82299","","null","","","null","15","","","","","","","","","","","","","","","",""
"","ISI","","html-keyboard-response","104","230223","0.0-1.0-138.0","0","0","82299","","null","","","null","15","NaN","","","","","","","","","","","","","","",""
"","S2","","html-keyboard-response","105","230476","0.0-1.0-139.0","0","0","82299","","null","","","null","15","","NaN","","","","","","","","","","","","","",""
"","response","","html-keyboard-response","106","232478","0.0-1.0-140.0","0","0","82299","","null","","","null","15","","","1","15","training","adjacent","DE","4","5","L.jpg","O.jpg","NaN","1","0","",""
"","too_slow_prompt","","html-keyboard-response","107","233481","0.0-1.0-142.0-0.0","1","0","82299","","null","","","null","","","","","","","","","","","","","","","","",""
"","time_out","","html-keyboard-response","108","235483","0.0-1.0-143.0-0.0","0","0","82299","","null","","","null","15","","","","","","","","","","","","","","","",""
"","ITI","","html-keyboard-response","109","236487","0.0-1.0-144.0","0","0","82299","","null","","","null","15","","","","","","","","","","","","","","","NaN",""
"","S1","","html-keyboard-response","110","236740","0.0-1.0-146.0","0","0","82299","","null","","","null","16","","","","","","","","","","","","","","","",""
"","ISI","","html-keyboard-response","111","238743","0.0-1.0-147.0","0","0","82299","","null","","","null","16","NaN","","","","","","","","","","","","","","",""
"","S2","","html-keyboard-response","112","238995","0.0-1.0-148.0","0","0","82299","","null","","","null","16","","NaN","","","","","","","","","","","","","",""
"","response","","html-keyboard-response","113","240998","0.0-1.0-149.0","0","0","82299","","null","","","null","16","","","1","16","training","adjacent","FE","6","5","N.jpg","O.jpg","NaN","0","0","",""
"","too_slow_prompt","","html-keyboard-response","114","242000","0.0-1.0-151.0-0.0","1","0","82299","","null","","","null","","","","","","","","","","","","","","","","",""
"","time_out","","html-keyboard-response","115","244002","0.0-1.0-152.0-0.0","0","0","82299","","null","","","null","16","","","","","","","","","","","","","","","",""
"","ITI","","html-keyboard-response","116","245004","0.0-1.0-153.0","0","0","82299","","null","","","null","16","","","","","","","","","","","","","","","NaN",""
"","S1","","html-keyboard-response","117","245257","0.0-1.0-155.0","0","0","82299","","null","","","null","17","","","","","","","","","","","","","","","",""
"","ISI","","html-keyboard-response","118","247258","0.0-1.0-156.0","0","0","82299","","null","","","null","17","NaN","","","","","","","","","","","","","","",""
"","S2","","html-keyboard-response","119","247511","0.0-1.0-157.0","0","0","82299","","null","","","null","17","","NaN","","","","","","","","","","","","","",""
"","response","","html-keyboard-response","120","249514","0.0-1.0-158.0","0","0","82299","","null","","","null","17","","","1","17","training","adjacent","EF","5","6","O.jpg","N.jpg","NaN","1","0","",""
"","too_slow_prompt","","html-keyboard-response","121","250517","0.0-1.0-160.0-0.0","1","0","82299","","null","","","null","","","","","","","","","","","","","","","","",""
"","time_out","","html-keyboard-response","122","252524","0.0-1.0-161.0-0.0","0","0","82299","","null","","","null","17","","","","","","","","","","","","","","","",""
"","ITI","","html-keyboard-response","123","253526","0.0-1.0-162.0","0","0","82299","","null","","","null","17","","","","","","","","","","","","","","","NaN",""
"","S1","","html-keyboard-response","124","253778","0.0-1.0-164.0","0","0","82299","","null","","","null","18","","","","","","","","","","","","","","","",""
"","ISI","","html-keyboard-response","125","255781","0.0-1.0-165.0","0","0","82299","","null","","","null","18","NaN","","","","","","","","","","","","","","",""
"","S2","","html-keyboard-response","126","256033","0.0-1.0-166.0","0","0","82299","","null","","","null","18","","NaN","","","","","","","","","","","","","",""
"","response","","html-keyboard-response","127","258036","0.0-1.0-167.0","0","0","82299","","null","","","null","18","","","1","18","training","adjacent","DC","4","3","L.jpg","Q.jpg","NaN","0","0","",""
"","too_slow_prompt","","html-keyboard-response","128","259038","0.0-1.0-169.0-0.0","1","0","82299","","null","","","null","","","","","","","","","","","","","","","","",""
"","time_out","","html-keyboard-response","129","261041","0.0-1.0-170.0-0.0","0","0","82299","","null","","","null","18","","","","","","","","","","","","","","","",""
"","ITI","","html-keyboard-response","130","262043","0.0-1.0-171.0","0","0","82299","","null","","","null","18","","","","","","","","","","","","","","","NaN",""
"","S1","","html-keyboard-response","131","262295","0.0-1.0-173.0","0","0","82299","","null","","","null","19","","","","","","","","","","","","","","","",""
"","ISI","","html-keyboard-response","132","264297","0.0-1.0-174.0","0","0","82299","","null","","","null","19","NaN","","","","","","","","","","","","","","",""
"","S2","","html-keyboard-response","133","264549","0.0-1.0-175.0","0","0","82299","","null","","","null","19","","NaN","","","","","","","","","","","","","",""
"","response","","html-keyboard-response","134","266551","0.0-1.0-176.0","0","0","82299","","null","","","null","19","","","1","19","training","adjacent","GF","7","6","R.jpg","N.jpg","NaN","0","0","",""
"","too_slow_prompt","","html-keyboard-response","135","267553","0.0-1.0-178.0-0.0","1","0","82299","","null","","","null","","","","","","","","","","","","","","","","",""
"","time_out","","html-keyboard-response","136","269588","0.0-1.0-179.0-0.0","0","0","82299","","null","","","null","19","","","","","","","","","","","","","","","",""
"","ITI","","html-keyboard-response","137","270589","0.0-1.0-180.0","0","0","82299","","null","","","null","19","","","","","","","","","","","","","","","NaN",""
"","S1","","html-keyboard-response","138","270843","0.0-1.0-182.0","0","0","82299","","null","","","null","20","","","","","","","","","","","","","","","",""
"","ISI","","html-keyboard-response","139","272846","0.0-1.0-183.0","0","0","82299","","null","","","null","20","NaN","","","","","","","","","","","","","","",""
"","S2","","html-keyboard-response","140","273098","0.0-1.0-184.0","0","0","82299","","null","","","null","20","","NaN","","","","","","","","","","","","","",""
"","response","","html-keyboard-response","141","275100","0.0-1.0-185.0","0","0","82299","","null","","","null","20","","","1","20","training","adjacent","DE","4","5","L.jpg","O.jpg","NaN","1","0","",""
"","too_slow_prompt","","html-keyboard-response","142","276104","0.0-1.0-187.0-0.0","1","0","82299","","null","","","null","","","","","","","","","","","","","","","","",""
"","time_out","","html-keyboard-response","143","278105","0.0-1.0-188.0-0.0","0","0","82299","","null","","","null","20","","","","","","","","","","","","","","","",""
"","ITI","","html-keyboard-response","144","279108","0.0-1.0-189.0","0","0","82299","","null","","","null","20","","","","","","","","","","","","","","","NaN",""
"","S1","","html-keyboard-response","145","279360","0.0-1.0-191.0","0","0","82299","","null","","","null","21","","","","","","","","","","","","","","","",""
"","ISI","","html-keyboard-response","146","281363","0.0-1.0-192.0","0","0","82299","","null","","","null","21","NaN","","","","","","","","","","","","","","",""
"","S2","","html-keyboard-response","147","281617","0.0-1.0-193.0","0","0","82299","","null","","","null","21","","NaN","","","","","","","","","","","","","",""
"","response","","html-keyboard-response","148","282528","0.0-1.0-194.0","0","0","82299","","910","","","75","21","","","1","21","training","adjacent","DC","4","3","L.jpg","Q.jpg","1","0","0","",""
"","feedback","","html-keyboard-response","149","283530","0.0-1.0-195.0-0.0","0","0","82299","","null","","","null","21","","","","","","","","","","","","","","","",""
"","time_out","","html-keyboard-response","150","285533","0.0-1.0-197.0-0.0","0","0","82299","","null","","","null","21","","","","","","","","","","","","","","","",""
"","ITI","","html-keyboard-response","151","286538","0.0-1.0-198.0","0","0","82299","","572","","","75","21","","","","","","","","","","","","","","","k",""
"","S1","","html-keyboard-response","152","286790","0.0-1.0-200.0","0","0","82299","","null","","","null","22","","","","","","","","","","","","","","","",""
"","ISI","","html-keyboard-response","153","288792","0.0-1.0-201.0","0","0","82299","","296","","","75","22","k","","","","","","","","","","","","","","",""
"","S2","","html-keyboard-response","154","289045","0.0-1.0-202.0","0","0","82299","","null","","","null","22","","NaN","","","","","","","","","","","","","",""
"","response","","html-keyboard-response","155","289388","0.0-1.0-203.0","0","0","82299","","342","","","75","22","","","1","22","training","adjacent","BA","2","1","M.jpg","P.jpg","1","0","0","",""
"","feedback","","html-keyboard-response","156","290390","0.0-1.0-204.0-0.0","0","0","82299","","null","","","null","22","","","","","","","","","","","","","","","",""
"","time_out","","html-keyboard-response","157","292392","0.0-1.0-206.0-0.0","0","0","82299","","null","","","null","22","","","","","","","","","","","","","","","",""
"","ITI","","html-keyboard-response","158","293394","0.0-1.0-207.0","0","0","82299","","53","","","68","22","","","","","","","","","","","","","","","d",""
"","S1","","html-keyboard-response","159","293647","0.0-1.0-209.0","0","0","82299","","null","","","null","23","","","","","","","","","","","","","","","",""
"","ISI","","html-keyboard-response","160","295648","0.0-1.0-210.0","0","0","82299","","53","","","68","23","d","","","","","","","","","","","","","","",""
"","S2","","html-keyboard-response","161","295901","0.0-1.0-211.0","0","0","82299","","null","","","null","23","","NaN","","","","","","","","","","","","","",""
"","response","","html-keyboard-response","162","296040","0.0-1.0-212.0","0","0","82299","","137","","","68","23","","","1","23","training","adjacent","DE","4","5","L.jpg","O.jpg","0","1","0","",""
"","feedback","","html-keyboard-response","163","297043","0.0-1.0-213.0-0.0","0","0","82299","","null","","","null","23","","","","","","","","","","","","","","","",""
"","time_out","","html-keyboard-response","164","299045","0.0-1.0-215.0-0.0","0","0","82299","","null","","","null","23","","","","","","","","","","","","","","","",""
"","ITI","","html-keyboard-response","165","300047","0.0-1.0-216.0","0","0","82299","","155","","","68","23","","","","","","","","","","","","","","","d",""
"","S1","","html-keyboard-response","166","300299","0.0-1.0-218.0","0","0","82299","","null","","","null","24","","","","","","","","","","","","","","","",""
"","ISI","","html-keyboard-response","167","302302","0.0-1.0-219.0","0","0","82299","","null","","","null","24","NaN","","","","","","","","","","","","","","",""
"","S2","","html-keyboard-response","168","302554","0.0-1.0-220.0","0","0","82299","","null","","","null","24","","NaN","","","","","","","","","","","","","",""
"","response","","html-keyboard-response","169","303241","0.0-1.0-221.0","0","0","82299","","685","","","75","24","","","1","24","training","adjacent","AB","1","2","P.jpg","M.jpg","1","1","1","",""
"","feedback","","html-keyboard-response","170","304243","0.0-1.0-222.0-0.0","0","0","82299","","null","","","null","24","","","","","","","","","","","","","","","",""
"","ITI","","html-keyboard-response","171","305246","0.0-1.0-225.0","0","0","82299","","null","","","null","24","","","","","","","","","","","","","","","NaN",""
"","S1","","html-keyboard-response","172","305498","0.0-1.0-227.0","0","0","82299","","null","","","null","25","","","","","","","","","","","","","","","",""
"","ISI","","html-keyboard-response","173","307500","0.0-1.0-228.0","0","0","82299","","null","","","null","25","NaN","","","","","","","","","","","","","","",""
"","S2","","html-keyboard-response","174","307754","0.0-1.0-229.0","0","0","82299","","null","","","null","25","","NaN","","","","","","","","","","","","","",""
"","response","","html-keyboard-response","175","308282","0.0-1.0-230.0","0","0","82299","","527","","","75","25","","","1","25","training","adjacent","EF","5","6","O.jpg","N.jpg","1","1","1","",""
"","feedback","","html-keyboard-response","176","309285","0.0-1.0-231.0-0.0","0","0","82299","","null","","","null","25","","","","","","","","","","","","","","","",""
"","ITI","","html-keyboard-response","177","310287","0.0-1.0-234.0","0","0","82299","","null","","","null","25","","","","","","","","","","","","","","","NaN",""
"","S1","","html-keyboard-response","178","310539","0.0-1.0-236.0","0","0","82299","","null","","","null","26","","","","","","","","","","","","","","","",""
"","ISI","","html-keyboard-response","179","312542","0.0-1.0-237.0","0","0","82299","","662","","","75","26","k","","","","","","","","","","","","","","",""
"","S2","","html-keyboard-response","180","312794","0.0-1.0-238.0","0","0","82299","","null","","","null","26","","NaN","","","","","","","","","","","","","",""
"","response","","html-keyboard-response","181","313581","0.0-1.0-239.0","0","0","82299","","786","","","75","26","","","1","26","training","adjacent","CB","3","2","Q.jpg","M.jpg","1","0","0","",""
"","feedback","","html-keyboard-response","182","314582","0.0-1.0-240.0-0.0","0","0","82299","","null","","","null","26","","","","","","","","","","","","","","","",""
"","time_out","","html-keyboard-response","183","316584","0.0-1.0-242.0-0.0","0","0","82299","","null","","","null","26","","","","","","","","","","","","","","","",""
"","ITI","","html-keyboard-response","184","317586","0.0-1.0-243.0","0","0","82299","","null","","","null","26","","","","","","","","","","","","","","","NaN",""
"","S1","","html-keyboard-response","185","317838","0.0-1.0-245.0","0","0","82299","","null","","","null","27","","","","","","","","","","","","","","","",""
"","ISI","","html-keyboard-response","186","319840","0.0-1.0-246.0","0","0","82299","","447","","","68","27","d","","","","","","","","","","","","","","",""
"","S2","","html-keyboard-response","187","320093","0.0-1.0-247.0","0","0","82299","","null","","","null","27","","NaN","","","","","","","","","","","","","",""
"","response","","html-keyboard-response","188","320641","0.0-1.0-248.0","0","0","82299","","547","","","75","27","","","1","27","training","adjacent","CB","3","2","Q.jpg","M.jpg","1","0","0","",""
"","feedback","","html-keyboard-response","189","321644","0.0-1.0-249.0-0.0","0","0","82299","","null","","","null","27","","","","","","","","","","","","","","","",""
"","time_out","","html-keyboard-response","190","323646","0.0-1.0-251.0-0.0","0","0","82299","","null","","","null","27","","","","","","","","","","","","","","","",""
"","ITI","","html-keyboard-response","191","324650","0.0-1.0-252.0","0","0","82299","","null","","","null","27","","","","","","","","","","","","","","","NaN",""
"","S1","","html-keyboard-response","192","324902","0.0-1.0-254.0","0","0","82299","","null","","","null","28","","","","","","","","","","","","","","","",""
"","ISI","","html-keyboard-response","193","326904","0.0-1.0-255.0","0","0","82299","","30","","","68","28","d","","","","","","","","","","","","","","",""
"","S2","","html-keyboard-response","194","327156","0.0-1.0-256.0","0","0","82299","","null","","","null","28","","NaN","","","","","","","","","","","","","",""
"","response","","html-keyboard-response","195","327543","0.0-1.0-257.0","0","0","82299","","386","","","68","28","","","1","28","training","adjacent","CD","3","4","Q.jpg","L.jpg","0","1","0","",""
"","feedback","","html-keyboard-response","196","328545","0.0-1.0-258.0-0.0","0","0","82299","","null","","","null","28","","","","","","","","","","","","","","","",""
"","time_out","","html-keyboard-response","197","330547","0.0-1.0-260.0-0.0","0","0","82299","","null","","","null","28","","","","","","","","","","","","","","","",""
"","ITI","","html-keyboard-response","198","331550","0.0-1.0-261.0","0","0","82299","","857","","","75","28","","","","","","","","","","","","","","","k",""
"","S1","","html-keyboard-response","199","331802","0.0-1.0-263.0","0","0","82299","","null","","","null","29","","","","","","","","","","","","","","","",""
"","ISI","","html-keyboard-response","200","333804","0.0-1.0-264.0","0","0","82299","","379","","","75","29","k","","","","","","","","","","","","","","",""
"","S2","","html-keyboard-response","201","334056","0.0-1.0-265.0","0","0","82299","","null","","","null","29","","NaN","","","","","","","","","","","","","",""
"","response","","html-keyboard-response","202","334603","0.0-1.0-266.0","0","0","82299","","545","","","75","29","","","1","29","training","adjacent","FG","6","7","N.jpg","R.jpg","1","1","1","",""
"","feedback","","html-keyboard-response","203","335606","0.0-1.0-267.0-0.0","0","0","82299","","null","","","null","29","","","","","","","","","","","","","","","",""
"","ITI","","html-keyboard-response","204","336609","0.0-1.0-270.0","0","0","82299","","null","","","null","29","","","","","","","","","","","","","","","NaN",""
"","S1","","html-keyboard-response","205","336862","0.0-1.0-272.0","0","0","82299","","null","","","null","30","","","","","","","","","","","","","","","",""
"","ISI","","html-keyboard-response","206","338863","0.0-1.0-273.0","0","0","82299","","488","","","68","30","d","","","","","","","","","","","","","","",""
"","S2","","html-keyboard-response","207","339115","0.0-1.0-274.0","0","0","82299","","null","","","null","30","","NaN","","","","","","","","","","","","","",""
"","response","","html-keyboard-response","208","340273","0.0-1.0-275.0","0","0","82299","","1156","","","75","30","","","1","30","training","adjacent","ED","5","4","O.jpg","L.jpg","1","0","0","",""
"","feedback","","html-keyboard-response","209","341276","0.0-1.0-276.0-0.0","0","0","82299","","null","","","null","30","","","","","","","","","","","","","","","",""
"","time_out","","html-keyboard-response","210","343278","0.0-1.0-278.0-0.0","0","0","82299","","null","","","null","30","","","","","","","","","","","","","","","",""
"","ITI","","html-keyboard-response","211","344282","0.0-1.0-279.0","0","0","82299","","null","","","null","30","","","","","","","","","","","","","","","NaN",""
"","S1","","html-keyboard-response","212","344542","0.0-1.0-281.0","0","0","82299","","null","","","null","31","","","","","","","","","","","","","","","",""
"","ISI","","html-keyboard-response","213","346545","0.0-1.0-282.0","0","0","82299","","388","","","75","31","k","","","","","","","","","","","","","","",""
"","S2","","html-keyboard-response","214","346800","0.0-1.0-283.0","0","0","82299","","null","","","null","31","","NaN","","","","","","","","","","","","","",""
"","response","","html-keyboard-response","215","347701","0.0-1.0-284.0","0","0","82299","","898","","","75","31","","","1","31","training","adjacent","CD","3","4","Q.jpg","L.jpg","1","1","1","",""
"","feedback","","html-keyboard-response","216","348703","0.0-1.0-285.0-0.0","0","0","82299","","null","","","null","31","","","","","","","","","","","","","","","",""
"","ITI","","html-keyboard-response","217","349706","0.0-1.0-288.0","0","0","82299","","null","","","null","31","","","","","","","","","","","","","","","NaN",""
"","S1","","html-keyboard-response","218","349959","0.0-1.0-290.0","0","0","82299","","null","","","null","32","","","","","","","","","","","","","","","",""
"","ISI","","html-keyboard-response","219","351962","0.0-1.0-291.0","0","0","82299","","886","","","75","32","k","","","","","","","","","","","","","","",""
"","S2","","html-keyboard-response","220","352214","0.0-1.0-292.0","0","0","82299","","null","","","null","32","","NaN","","","","","","","","","","","","","",""
"","response","","html-keyboard-response","221","352812","0.0-1.0-293.0","0","0","82299","","596","","","75","32","","","1","32","training","adjacent","BA","2","1","M.jpg","P.jpg","1","0","0","",""
"","feedback","","html-keyboard-response","222","353814","0.0-1.0-294.0-0.0","0","0","82299","","null","","","null","32","","","","","","","","","","","","","","","",""
"","time_out","","html-keyboard-response","223","355818","0.0-1.0-296.0-0.0","0","0","82299","","null","","","null","32","","","","","","","","","","","","","","","",""
"","ITI","","html-keyboard-response","224","356821","0.0-1.0-297.0","0","0","82299","","693","","","75","32","","","","","","","","","","","","","","","k",""
"","S1","","html-keyboard-response","225","357074","0.0-1.0-299.0","0","0","82299","","null","","","null","33","","","","","","","","","","","","","","","",""
"","ISI","","html-keyboard-response","226","359075","0.0-1.0-300.0","0","0","82299","","885","","","75","33","k","","","","","","","","","","","","","","",""
"","S2","","html-keyboard-response","227","359327","0.0-1.0-301.0","0","0","82299","","null","","","null","33","","NaN","","","","","","","","","","","","","",""
"","response","","html-keyboard-response","228","359540","0.0-1.0-302.0","0","0","82299","","211","","","75","33","","","1","33","training","adjacent","CB","3","2","Q.jpg","M.jpg","1","0","0","",""
"","feedback","","html-keyboard-response","229","360543","0.0-1.0-303.0-0.0","0","0","82299","","null","","","null","33","","","","","","","","","","","","","","","",""
"","time_out","","html-keyboard-response","230","362546","0.0-1.0-305.0-0.0","0","0","82299","","null","","","null","33","","","","","","","","","","","","","","","",""
"","ITI","","html-keyboard-response","231","363548","0.0-1.0-306.0","0","0","82299","","null","","","null","33","","","","","","","","","","","","","","","NaN",""
"","S1","","html-keyboard-response","232","363800","0.0-1.0-308.0","0","0","82299","","null","","","null","34","","","","","","","","","","","","","","","",""
"","ISI","","html-keyboard-response","233","365802","0.0-1.0-309.0","0","0","82299","","41","","","68","34","d","","","","","","","","","","","","","","",""
"","S2","","html-keyboard-response","234","366054","0.0-1.0-310.0","0","0","82299","","null","","","null","34","","NaN","","","","","","","","","","","","","",""
"","response","","html-keyboard-response","235","366760","0.0-1.0-311.0","0","0","82299","","704","","","68","34","","","1","34","training","adjacent","DC","4","3","L.jpg","Q.jpg","0","0","1","",""
"","feedback","","html-keyboard-response","236","367763","0.0-1.0-312.0-0.0","0","0","82299","","null","","","null","34","","","","","","","","","","","","","","","",""
"","ITI","","html-keyboard-response","237","368766","0.0-1.0-315.0","0","0","82299","","null","","","null","34","","","","","","","","","","","","","","","NaN",""
"","S1","","html-keyboard-response","238","369018","0.0-1.0-317.0","0","0","82299","","null","","","null","35","","","","","","","","","","","","","","","",""
"","ISI","","html-keyboard-response","239","371020","0.0-1.0-318.0","0","0","82299","","null","","","null","35","NaN","","","","","","","","","","","","","","",""
"","S2","","html-keyboard-response","240","371273","0.0-1.0-319.0","0","0","82299","","210","","","75","35","","k","","","","","","","","","","","","","",""
"","response","","html-keyboard-response","241","372083","0.0-1.0-320.0","0","0","82299","","808","","","75","35","","","1","35","training","adjacent","BA","2","1","M.jpg","P.jpg","1","0","0","",""
"","feedback","","html-keyboard-response","242","373085","0.0-1.0-321.0-0.0","0","0","82299","","null","","","null","35","","","","","","","","","","","","","","","",""
"","time_out","","html-keyboard-response","243","375087","0.0-1.0-323.0-0.0","0","0","82299","","null","","","null","35","","","","","","","","","","","","","","","",""
"","ITI","","html-keyboard-response","244","376089","0.0-1.0-324.0","0","0","82299","","null","","","null","35","","","","","","","","","","","","","","","NaN",""
"","S1","","html-keyboard-response","245","376344","0.0-1.0-326.0","0","0","82299","","null","","","null","36","","","","","","","","","","","","","","","",""
"","ISI","","html-keyboard-response","246","378346","0.0-1.0-327.0","0","0","82299","","339","","","68","36","d","","","","","","","","","","","","","","",""
"","S2","","html-keyboard-response","247","378599","0.0-1.0-328.0","0","0","82299","","null","","","null","36","","NaN","","","","","","","","","","","","","",""
"","response","","html-keyboard-response","248","378894","0.0-1.0-329.0","0","0","82299","","293","","","68","36","","","1","36","training","adjacent","FE","6","5","N.jpg","O.jpg","0","0","1","",""
"","feedback","","html-keyboard-response","249","379896","0.0-1.0-330.0-0.0","0","0","82299","","null","","","null","36","","","","","","","","","","","","","","","",""
"","ITI","","html-keyboard-response","250","380899","0.0-1.0-333.0","0","0","82299","","null","","","null","36","","","","","","","","","","","","","","","NaN",""
"","S1","","html-keyboard-response","251","381151","0.0-1.0-335.0","0","0","82299","","null","","","null","37","","","","","","","","","","","","","","","",""
"","ISI","","html-keyboard-response","252","383154","0.0-1.0-336.0","0","0","82299","","609","","","75","37","k","","","","","","","","","","","","","","",""
"","S2","","html-keyboard-response","253","383407","0.0-1.0-337.0","0","0","82299","","null","","","null","37","","NaN","","","","","","","","","","","","","",""
"","response","","html-keyboard-response","254","384333","0.0-1.0-338.0","0","0","82299","","924","","","75","37","","","1","37","training","adjacent","FE","6","5","N.jpg","O.jpg","1","0","0","",""
"","feedback","","html-keyboard-response","255","385336","0.0-1.0-339.0-0.0","0","0","82299","","null","","","null","37","","","","","","","","","","","","","","","",""
"","time_out","","html-keyboard-response","256","387339","0.0-1.0-341.0-0.0","0","0","82299","","null","","","null","37","","","","","","","","","","","","","","","",""
"","ITI","","html-keyboard-response","257","388341","0.0-1.0-342.0","0","0","82299","","513","","","68","37","","","","","","","","","","","","","","","d",""
"","S1","","html-keyboard-response","258","388593","0.0-1.0-344.0","0","0","82299","","null","","","null","38","","","","","","","","","","","","","","","",""
"","ISI","","html-keyboard-response","259","390594","0.0-1.0-345.0","0","0","82299","","146","","","68","38","d","","","","","","","","","","","","","","",""
"","S2","","html-keyboard-response","260","390846","0.0-1.0-346.0","0","0","82299","","null","","","null","38","","NaN","","","","","","","","","","","","","",""
"","response","","html-keyboard-response","261","391899","0.0-1.0-347.0","0","0","82299","","1052","","","68","38","","","1","38","training","adjacent","GF","7","6","R.jpg","N.jpg","0","0","1","",""
"","feedback","","html-keyboard-response","262","392902","0.0-1.0-348.0-0.0","0","0","82299","","null","","","null","38","","","","","","","","","","","","","","","",""
"","ITI","","html-keyboard-response","263","393904","0.0-1.0-351.0","0","0","82299","","null","","","null","38","","","","","","","","","","","","","","","NaN",""
"","S1","","html-keyboard-response","264","394156","0.0-1.0-353.0","0","0","82299","","null","","","null","39","","","","","","","","","","","","","","","",""
"","ISI","","html-keyboard-response","265","396159","0.0-1.0-354.0","0","0","82299","","233","","","68","39","d","","","","","","","","","","","","","","",""
"","S2","","html-keyboard-response","266","396411","0.0-1.0-355.0","0","0","82299","","238","","","68","39","","d","","","","","","","","","","","","","",""
"","response","","html-keyboard-response","267","397239","0.0-1.0-356.0","0","0","82299","","823","","","75","39","","","1","39","training","adjacent","AB","1","2","P.jpg","M.jpg","1","1","1","",""
"","feedback","","html-keyboard-response","268","398242","0.0-1.0-357.0-0.0","0","0","82299","","null","","","null","39","","","","","","","","","","","","","","","",""
"","ITI","","html-keyboard-response","269","399244","0.0-1.0-360.0","0","0","82299","","null","","","null","39","","","","","","","","","","","","","","","NaN",""
"","block_over","","html-keyboard-response","270","409462","0.0-1.0-361.0-0.0","0","0","82299","","10216","","","32","39","","","","","","","","","","","","","","","",""
"","S1","","html-keyboard-response","271","409715","0.0-1.0-362.0","0","0","82299","","null","","","null","40","","","","","","","","","","","","","","","",""
"","ISI","","html-keyboard-response","272","411717","0.0-1.0-363.0","0","0","82299","","1884","","","68","40","d","","","","","","","","","","","","","","",""
"","S2","","html-keyboard-response","273","411970","0.0-1.0-364.0","0","0","82299","","null","","","null","40","","NaN","","","","","","","","","","","","","",""
"","response","","html-keyboard-response","274","412879","0.0-1.0-365.0","0","0","82299","","908","","","75","40","","","2","40","training","adjacent","CB","3","2","Q.jpg","M.jpg","1","0","0","",""
"","feedback","","html-keyboard-response","275","413881","0.0-1.0-366.0-0.0","0","0","82299","","null","","","null","40","","","","","","","","","","","","","","","",""
"","time_out","","html-keyboard-response","276","415884","0.0-1.0-368.0-0.0","0","0","82299","","null","","","null","40","","","","","","","","","","","","","","","",""
"","ITI","","html-keyboard-response","277","416886","0.0-1.0-369.0","0","0","82299","","null","","","null","40","","","","","","","","","","","","","","","NaN",""
"","S1","","html-keyboard-response","278","417138","0.0-1.0-371.0","0","0","82299","","null","","","null","41","","","","","","","","","","","","","","","",""
"","ISI","","html-keyboard-response","279","419141","0.0-1.0-372.0","0","0","82299","","860","","","75","41","k","","","","","","","","","","","","","","",""
"","S2","","html-keyboard-response","280","419394","0.0-1.0-373.0","0","0","82299","","null","","","null","41","","NaN","","","","","","","","","","","","","",""
"","response","","html-keyboard-response","281","419975","0.0-1.0-374.0","0","0","82299","","579","","","68","41","","","2","41","training","adjacent","CD","3","4","Q.jpg","L.jpg","0","1","0","",""
"","feedback","","html-keyboard-response","282","420978","0.0-1.0-375.0-0.0","0","0","82299","","null","","","null","41","","","","","","","","","","","","","","","",""
"","time_out","","html-keyboard-response","283","422979","0.0-1.0-377.0-0.0","0","0","82299","","null","","","null","41","","","","","","","","","","","","","","","",""
"","ITI","","html-keyboard-response","284","423982","0.0-1.0-378.0","0","0","82299","","null","","","null","41","","","","","","","","","","","","","","","NaN",""
"","S1","","html-keyboard-response","285","424234","0.0-1.0-380.0","0","0","82299","","null","","","null","42","","","","","","","","","","","","","","","",""
"","ISI","","html-keyboard-response","286","426235","0.0-1.0-381.0","0","0","82299","","418","","","75","42","k","","","","","","","","","","","","","","",""
"","S2","","html-keyboard-response","287","426488","0.0-1.0-382.0","0","0","82299","","62","","","75","42","","k","","","","","","","","","","","","","",""
"","response","","html-keyboard-response","288","427459","0.0-1.0-383.0","0","0","82299","","969","","","75","42","","","2","42","training","adjacent","BC","2","3","M.jpg","Q.jpg","1","1","1","",""
"","feedback","","html-keyboard-response","289","428463","0.0-1.0-384.0-0.0","0","0","82299","","null","","","null","42","","","","","","","","","","","","","","","",""
"","ITI","","html-keyboard-response","290","429466","0.0-1.0-387.0","0","0","82299","","null","","","null","42","","","","","","","","","","","","","","","NaN",""
"","S1","","html-keyboard-response","291","429719","0.0-1.0-389.0","0","0","82299","","null","","","null","43","","","","","","","","","","","","","","","",""
"","ISI","","html-keyboard-response","292","431721","0.0-1.0-390.0","0","0","82299","","242","","","75","43","k","","","","","","","","","","","","","","",""
"","S2","","html-keyboard-response","293","431973","0.0-1.0-391.0","0","0","82299","","159","","","68","43","","d","","","","","","","","","","","","","",""
"","response","","html-keyboard-response","294","432966","0.0-1.0-392.0","0","0","82299","","991","","","75","43","","","2","43","training","adjacent","FG","6","7","N.jpg","R.jpg","1","1","1","",""
"","feedback","","html-keyboard-response","295","433968","0.0-1.0-393.0-0.0","0","0","82299","","null","","","null","43","","","","","","","","","","","","","","","",""
"","ITI","","html-keyboard-response","296","434971","0.0-1.0-396.0","0","0","82299","","571","","","68","43","","","","","","","","","","","","","","","d",""
"","S1","","html-keyboard-response","297","435223","0.0-1.0-398.0","0","0","82299","","null","","","null","44","","","","","","","","","","","","","","","",""
"","ISI","","html-keyboard-response","298","437226","0.0-1.0-399.0","0","0","82299","","668","","","75","44","k","","","","","","","","","","","","","","",""
"","S2","","html-keyboard-response","299","437478","0.0-1.0-400.0","0","0","82299","","null","","","null","44","","NaN","","","","","","","","","","","","","",""
"","response","","html-keyboard-response","300","438221","0.0-1.0-401.0","0","0","82299","","742","","","75","44","","","2","44","training","adjacent","FE","6","5","N.jpg","O.jpg","1","0","0","",""
"","feedback","","html-keyboard-response","301","439224","0.0-1.0-402.0-0.0","0","0","82299","","null","","","null","44","","","","","","","","","","","","","","","",""
"","time_out","","html-keyboard-response","302","441227","0.0-1.0-404.0-0.0","0","0","82299","","null","","","null","44","","","","","","","","","","","","","","","",""
"","ITI","","html-keyboard-response","303","442229","0.0-1.0-405.0","0","0","82299","","734","","","68","44","","","","","","","","","","","","","","","d",""
"","S1","","html-keyboard-response","304","442482","0.0-1.0-407.0","0","0","82299","","null","","","null","45","","","","","","","","","","","","","","","",""
"","ISI","","html-keyboard-response","305","444484","0.0-1.0-408.0","0","0","82299","","779","","","75","45","k","","","","","","","","","","","","","","",""
"","S2","","html-keyboard-response","306","444737","0.0-1.0-409.0","0","0","82299","","null","","","null","45","","NaN","","","","","","","","","","","","","",""
"","response","","html-keyboard-response","307","445262","0.0-1.0-410.0","0","0","82299","","524","","","75","45","","","2","45","training","adjacent","DE","4","5","L.jpg","O.jpg","1","1","1","",""
"","feedback","","html-keyboard-response","308","446264","0.0-1.0-411.0-0.0","0","0","82299","","null","","","null","45","","","","","","","","","","","","","","","",""
"","ITI","","html-keyboard-response","309","447267","0.0-1.0-414.0","0","0","82299","","null","","","null","45","","","","","","","","","","","","","","","NaN",""
"","S1","","html-keyboard-response","310","447521","0.0-1.0-416.0","0","0","82299","","null","","","null","46","","","","","","","","","","","","","","","",""
"","ISI","","html-keyboard-response","311","449523","0.0-1.0-417.0","0","0","82299","","null","","","null","46","NaN","","","","","","","","","","","","","","",""
"","S2","","html-keyboard-response","312","449776","0.0-1.0-418.0","0","0","82299","","null","","","null","46","","NaN","","","","","","","","","","","","","",""
"","response","","html-keyboard-response","313","450302","0.0-1.0-419.0","0","0","82299","","525","","","75","46","","","2","46","training","adjacent","GF","7","6","R.jpg","N.jpg","1","0","0","",""
"","feedback","","html-keyboard-response","314","451304","0.0-1.0-420.0-0.0","0","0","82299","","null","","","null","46","","","","","","","","","","","","","","","",""
"","time_out","","html-keyboard-response","315","453307","0.0-1.0-422.0-0.0","0","0","82299","","null","","","null","46","","","","","","","","","","","","","","","",""
"","ITI","","html-keyboard-response","316","454310","0.0-1.0-423.0","0","0","82299","","874","","","75","46","","","","","","","","","","","","","","","k",""
"","S1","","html-keyboard-response","317","454562","0.0-1.0-425.0","0","0","82299","","null","","","null","47","","","","","","","","","","","","","","","",""
"","ISI","","html-keyboard-response","318","456564","0.0-1.0-426.0","0","0","82299","","918","","","68","47","d","","","","","","","","","","","","","","",""
"","S2","","html-keyboard-response","319","456816","0.0-1.0-427.0","0","0","82299","","null","","","null","47","","NaN","","","","","","","","","","","","","",""
"","response","","html-keyboard-response","320","457942","0.0-1.0-428.0","0","0","82299","","1124","","","68","47","","","2","47","training","adjacent","ED","5","4","O.jpg","L.jpg","0","0","1","",""
"","feedback","","html-keyboard-response","321","458945","0.0-1.0-429.0-0.0","0","0","82299","","null","","","null","47","","","","","","","","","","","","","","","",""
"","ITI","","html-keyboard-response","322","459947","0.0-1.0-432.0","0","0","82299","","null","","","null","47","","","","","","","","","","","","","","","NaN",""
"","S1","","html-keyboard-response","323","460199","0.0-1.0-434.0","0","0","82299","","null","","","null","48","","","","","","","","","","","","","","","",""
"","ISI","","html-keyboard-response","324","462201","0.0-1.0-435.0","0","0","82299","","732","","","75","48","k","","","","","","","","","","","","","","",""
"","S2","","html-keyboard-response","325","462453","0.0-1.0-436.0","0","0","82299","","null","","","null","48","","NaN","","","","","","","","","","","","","",""
"","response","","html-keyboard-response","326","462496","0.0-1.0-437.0","0","0","82299","","41","","","75","48","","","2","48","training","adjacent","DE","4","5","L.jpg","O.jpg","1","1","1","",""
"","feedback","","html-keyboard-response","327","463499","0.0-1.0-438.0-0.0","0","0","82299","","null","","","null","48","","","","","","","","","","","","","","","",""
"","ITI","","html-keyboard-response","328","464501","0.0-1.0-441.0","0","0","82299","","null","","","null","48","","","","","","","","","","","","","","","NaN",""
"","S1","","html-keyboard-response","329","464753","0.0-1.0-443.0","0","0","82299","","null","","","null","49","","","","","","","","","","","","","","","",""
"","ISI","","html-keyboard-response","330","466756","0.0-1.0-444.0","0","0","82299","","587","","","75","49","k","","","","","","","","","","","","","","",""
"","S2","","html-keyboard-response","331","467008","0.0-1.0-445.0","0","0","82299","","null","","","null","49","","NaN","","","","","","","","","","","","","",""
"","response","","html-keyboard-response","332","467502","0.0-1.0-446.0","0","0","82299","","493","","","75","49","","","2","49","training","adjacent","ED","5","4","O.jpg","L.jpg","1","0","0","",""
"","feedback","","html-keyboard-response","333","468507","0.0-1.0-447.0-0.0","0","0","82299","","null","","","null","49","","","","","","","","","","","","","","","",""
"","time_out","","html-keyboard-response","334","470511","0.0-1.0-449.0-0.0","0","0","82299","","null","","","null","49","","","","","","","","","","","","","","","",""
"","ITI","","html-keyboard-response","335","471513","0.0-1.0-450.0","0","0","82299","","null","","","null","49","","","","","","","","","","","","","","","NaN",""
"","S1","","html-keyboard-response","336","471765","0.0-1.0-452.0","0","0","82299","","null","","","null","50","","","","","","","","","","","","","","","",""
"","ISI","","html-keyboard-response","337","473767","0.0-1.0-453.0","0","0","82299","","1535","","","68","50","d","","","","","","","","","","","","","","",""
"","S2","","html-keyboard-response","338","474020","0.0-1.0-454.0","0","0","82299","","null","","","null","50","","NaN","","","","","","","","","","","","","",""
"","response","","html-keyboard-response","339","474422","0.0-1.0-455.0","0","0","82299","","401","","","68","50","","","2","50","training","adjacent","BC","2","3","M.jpg","Q.jpg","0","1","0","",""
"","feedback","","html-keyboard-response","340","475424","0.0-1.0-456.0-0.0","0","0","82299","","null","","","null","50","","","","","","","","","","","","","","","",""
"","time_out","","html-keyboard-response","341","477426","0.0-1.0-458.0-0.0","0","0","82299","","null","","","null","50","","","","","","","","","","","","","","","",""
"","ITI","","html-keyboard-response","342","478429","0.0-1.0-459.0","0","0","82299","","375","","","75","50","","","","","","","","","","","","","","","k",""
"","S1","","html-keyboard-response","343","478681","0.0-1.0-461.0","0","0","82299","","null","","","null","51","","","","","","","","","","","","","","","",""
"","ISI","","html-keyboard-response","344","480683","0.0-1.0-462.0","0","0","82299","","488","","","68","51","d","","","","","","","","","","","","","","",""
"","S2","","html-keyboard-response","345","480936","0.0-1.0-463.0","0","0","82299","","17","","","75","51","","k","","","","","","","","","","","","","",""
"","response","","html-keyboard-response","346","481582","0.0-1.0-464.0","0","0","82299","","644","","","75","51","","","2","51","training","adjacent","EF","5","6","O.jpg","N.jpg","1","1","1","",""
"","feedback","","html-keyboard-response","347","482585","0.0-1.0-465.0-0.0","0","0","82299","","null","","","null","51","","","","","","","","","","","","","","","",""
"","ITI","","html-keyboard-response","348","483587","0.0-1.0-468.0","0","0","82299","","null","","","null","51","","","","","","","","","","","","","","","NaN",""
"","S1","","html-keyboard-response","349","483840","0.0-1.0-470.0","0","0","82299","","null","","","null","52","","","","","","","","","","","","","","","",""
"","ISI","","html-keyboard-response","350","485842","0.0-1.0-471.0","0","0","82299","","301","","","75","52","k","","","","","","","","","","","","","","",""
"","S2","","html-keyboard-response","351","486094","0.0-1.0-472.0","0","0","82299","","null","","","null","52","","NaN","","","","","","","","","","","","","",""
"","response","","html-keyboard-response","352","486352","0.0-1.0-473.0","0","0","82299","","257","","","75","52","","","2","52","training","adjacent","CD","3","4","Q.jpg","L.jpg","1","1","1","",""
"","feedback","","html-keyboard-response","353","487355","0.0-1.0-474.0-0.0","0","0","82299","","null","","","null","52","","","","","","","","","","","","","","","",""
"","ITI","","html-keyboard-response","354","488358","0.0-1.0-477.0","0","0","82299","","null","","","null","52","","","","","","","","","","","","","","","NaN",""
"","S1","","html-keyboard-response","355","488611","0.0-1.0-479.0","0","0","82299","","null","","","null","53","","","","","","","","","","","","","","","",""
"","ISI","","html-keyboard-response","356","490613","0.0-1.0-480.0","0","0","82299","","911","","","68","53","d","","","","","","","","","","","","","","",""
"","S2","","html-keyboard-response","357","490864","0.0-1.0-481.0","0","0","82299","","null","","","null","53","","NaN","","","","","","","","","","","","","",""
"","response","","html-keyboard-response","358","491863","0.0-1.0-482.0","0","0","82299","","997","","","68","53","","","2","53","training","adjacent","BA","2","1","M.jpg","P.jpg","0","0","1","",""
"","feedback","","html-keyboard-response","359","492865","0.0-1.0-483.0-0.0","0","0","82299","","null","","","null","53","","","","","","","","","","","","","","","",""
"","ITI","","html-keyboard-response","360","493868","0.0-1.0-486.0","0","0","82299","","null","","","null","53","","","","","","","","","","","","","","","NaN",""
"","S1","","html-keyboard-response","361","494120","0.0-1.0-488.0","0","0","82299","","null","","","null","54","","","","","","","","","","","","","","","",""
"","ISI","","html-keyboard-response","362","496123","0.0-1.0-489.0","0","0","82299","","821","","","75","54","k","","","","","","","","","","","","","","",""
"","S2","","html-keyboard-response","363","496375","0.0-1.0-490.0","0","0","82299","","199","","","68","54","","d","","","","","","","","","","","","","",""
"","response","","html-keyboard-response","364","497383","0.0-1.0-491.0","0","0","82299","","1007","","","68","54","","","2","54","training","adjacent","BA","2","1","M.jpg","P.jpg","0","0","1","",""
"","feedback","","html-keyboard-response","365","498385","0.0-1.0-492.0-0.0","0","0","82299","","null","","","null","54","","","","","","","","","","","","","","","",""
"","ITI","","html-keyboard-response","366","499390","0.0-1.0-495.0","0","0","82299","","null","","","null","54","","","","","","","","","","","","","","","NaN",""
"","S1","","html-keyboard-response","367","499643","0.0-1.0-497.0","0","0","82299","","null","","","null","55","","","","","","","","","","","","","","","",""
"","ISI","","html-keyboard-response","368","501645","0.0-1.0-498.0","0","0","82299","","529","","","75","55","k","","","","","","","","","","","","","","",""
"","S2","","html-keyboard-response","369","501897","0.0-1.0-499.0","0","0","82299","","null","","","null","55","","NaN","","","","","","","","","","","","","",""
"","response","","html-keyboard-response","370","502203","0.0-1.0-500.0","0","0","82299","","304","","","75","55","","","2","55","training","adjacent","CD","3","4","Q.jpg","L.jpg","1","1","1","",""
"","feedback","","html-keyboard-response","371","503206","0.0-1.0-501.0-0.0","0","0","82299","","null","","","null","55","","","","","","","","","","","","","","","",""
"","ITI","","html-keyboard-response","372","504209","0.0-1.0-504.0","0","0","82299","","null","","","null","55","","","","","","","","","","","","","","","NaN",""
"","S1","","html-keyboard-response","373","504461","0.0-1.0-506.0","0","0","82299","","null","","","null","56","","","","","","","","","","","","","","","",""
"","ISI","","html-keyboard-response","374","506463","0.0-1.0-507.0","0","0","82299","","561","","","75","56","k","","","","","","","","","","","","","","",""
"","S2","","html-keyboard-response","375","506715","0.0-1.0-508.0","0","0","82299","","null","","","null","56","","NaN","","","","","","","","","","","","","",""
"","response","","html-keyboard-response","376","507433","0.0-1.0-509.0","0","0","82299","","716","","","75","56","","","2","56","training","adjacent","GF","7","6","R.jpg","N.jpg","1","0","0","",""
"","feedback","","html-keyboard-response","377","508436","0.0-1.0-510.0-0.0","0","0","82299","","null","","","null","56","","","","","","","","","","","","","","","",""
"","time_out","","html-keyboard-response","378","510438","0.0-1.0-512.0-0.0","0","0","82299","","null","","","null","56","","","","","","","","","","","","","","","",""
"","ITI","","html-keyboard-response","379","511438","0.0-1.0-513.0","0","0","82299","","null","","","null","56","","","","","","","","","","","","","","","NaN",""
"","S1","","html-keyboard-response","380","511691","0.0-1.0-515.0","0","0","82299","","null","","","null","57","","","","","","","","","","","","","","","",""
"","ISI","","html-keyboard-response","381","513694","0.0-1.0-516.0","0","0","82299","","769","","","68","57","d","","","","","","","","","","","","","","",""
"","S2","","html-keyboard-response","382","513945","0.0-1.0-517.0","0","0","82299","","null","","","null","57","","NaN","","","","","","","","","","","","","",""
"","response","","html-keyboard-response","383","514394","0.0-1.0-518.0","0","0","82299","","447","","","68","57","","","2","57","training","adjacent","CB","3","2","Q.jpg","M.jpg","0","0","1","",""
"","feedback","","html-keyboard-response","384","515397","0.0-1.0-519.0-0.0","0","0","82299","","null","","","null","57","","","","","","","","","","","","","","","",""
"","ITI","","html-keyboard-response","385","516399","0.0-1.0-522.0","0","0","82299","","null","","","null","57","","","","","","","","","","","","","","","NaN",""
"","S1","","html-keyboard-response","386","516651","0.0-1.0-524.0","0","0","82299","","null","","","null","58","","","","","","","","","","","","","","","",""
"","ISI","","html-keyboard-response","387","518653","0.0-1.0-525.0","0","0","82299","","34","","","75","58","k","","","","","","","","","","","","","","",""
"","S2","","html-keyboard-response","388","518905","0.0-1.0-526.0","0","0","82299","","null","","","null","58","","NaN","","","","","","","","","","","","","",""
"","response","","html-keyboard-response","389","519421","0.0-1.0-527.0","0","0","82299","","514","","","75","58","","","2","58","training","adjacent","DE","4","5","L.jpg","O.jpg","1","1","1","",""
"","feedback","","html-keyboard-response","390","520423","0.0-1.0-528.0-0.0","0","0","82299","","null","","","null","58","","","","","","","","","","","","","","","",""
"","ITI","","html-keyboard-response","391","521425","0.0-1.0-531.0","0","0","82299","","null","","","null","58","","","","","","","","","","","","","","","NaN",""
"","S1","","html-keyboard-response","392","521678","0.0-1.0-533.0","0","0","82299","","null","","","null","59","","","","","","","","","","","","","","","",""
"","ISI","","html-keyboard-response","393","523680","0.0-1.0-534.0","0","0","82299","","1242","","","75","59","k","","","","","","","","","","","","","","",""
"","S2","","html-keyboard-response","394","523933","0.0-1.0-535.0","0","0","82299","","null","","","null","59","","NaN","","","","","","","","","","","","","",""
"","response","","html-keyboard-response","395","524663","0.0-1.0-536.0","0","0","82299","","729","","","68","59","","","2","59","training","adjacent","AB","1","2","P.jpg","M.jpg","0","1","0","",""
"","feedback","","html-keyboard-response","396","525666","0.0-1.0-537.0-0.0","0","0","82299","","null","","","null","59","","","","","","","","","","","","","","","",""
"","time_out","","html-keyboard-response","397","527668","0.0-1.0-539.0-0.0","0","0","82299","","null","","","null","59","","","","","","","","","","","","","","","",""
"","ITI","","html-keyboard-response","398","528671","0.0-1.0-540.0","0","0","82299","","null","","","null","59","","","","","","","","","","","","","","","NaN",""
"","S1","","html-keyboard-response","399","528923","0.0-1.0-542.0","0","0","82299","","null","","","null","60","","","","","","","","","","","","","","","",""
"","ISI","","html-keyboard-response","400","530925","0.0-1.0-543.0","0","0","82299","","156","","","75","60","k","","","","","","","","","","","","","","",""
"","S2","","html-keyboard-response","401","531177","0.0-1.0-544.0","0","0","82299","","null","","","null","60","","NaN","","","","","","","","","","","","","",""
"","response","","html-keyboard-response","402","532442","0.0-1.0-545.0","0","0","82299","","1262","","","68","60","","","2","60","training","adjacent","FG","6","7","N.jpg","R.jpg","0","1","0","",""
"","feedback","","html-keyboard-response","403","533444","0.0-1.0-546.0-0.0","0","0","82299","","null","","","null","60","","","","","","","","","","","","","","","",""
"","time_out","","html-keyboard-response","404","535448","0.0-1.0-548.0-0.0","0","0","82299","","null","","","null","60","","","","","","","","","","","","","","","",""
"","ITI","","html-keyboard-response","405","536450","0.0-1.0-549.0","0","0","82299","","823","","","75","60","","","","","","","","","","","","","","","k",""
"","S1","","html-keyboard-response","406","536702","0.0-1.0-551.0","0","0","82299","","null","","","null","61","","","","","","","","","","","","","","","",""
"","ISI","","html-keyboard-response","407","538704","0.0-1.0-552.0","0","0","82299","","557","","","75","61","k","","","","","","","","","","","","","","",""
"","S2","","html-keyboard-response","408","538956","0.0-1.0-553.0","0","0","82299","","null","","","null","61","","NaN","","","","","","","","","","","","","",""
"","response","","html-keyboard-response","409","539082","0.0-1.0-554.0","0","0","82299","","124","","","75","61","","","2","61","training","adjacent","FE","6","5","N.jpg","O.jpg","1","0","0","",""
"","feedback","","html-keyboard-response","410","540084","0.0-1.0-555.0-0.0","0","0","82299","","null","","","null","61","","","","","","","","","","","","","","","",""
"","time_out","","html-keyboard-response","411","542086","0.0-1.0-557.0-0.0","0","0","82299","","null","","","null","61","","","","","","","","","","","","","","","",""
"","ITI","","html-keyboard-response","412","543089","0.0-1.0-558.0","0","0","82299","","74","","","68","61","","","","","","","","","","","","","","","d",""
"","S1","","html-keyboard-response","413","543341","0.0-1.0-560.0","0","0","82299","","null","","","null","62","","","","","","","","","","","","","","","",""
"","ISI","","html-keyboard-response","414","545344","0.0-1.0-561.0","0","0","82299","","72","","","68","62","d","","","","","","","","","","","","","","",""
"","S2","","html-keyboard-response","415","545595","0.0-1.0-562.0","0","0","82299","","221","","","68","62","","d","","","","","","","","","","","","","",""
"","response","","html-keyboard-response","416","546461","0.0-1.0-563.0","0","0","82299","","864","","","75","62","","","2","62","training","adjacent","AB","1","2","P.jpg","M.jpg","1","1","1","",""
"","feedback","","html-keyboard-response","417","547464","0.0-1.0-564.0-0.0","0","0","82299","","null","","","null","62","","","","","","","","","","","","","","","",""
"","ITI","","html-keyboard-response","418","548467","0.0-1.0-567.0","0","0","82299","","976","","","75","62","","","","","","","","","","","","","","","k",""
"","S1","","html-keyboard-response","419","548719","0.0-1.0-569.0","0","0","82299","","null","","","null","63","","","","","","","","","","","","","","","",""
"","ISI","","html-keyboard-response","420","550722","0.0-1.0-570.0","0","0","82299","","661","","","75","63","k","","","","","","","","","","","","","","",""
"","S2","","html-keyboard-response","421","550974","0.0-1.0-571.0","0","0","82299","","null","","","null","63","","NaN","","","","","","","","","","","","","",""
"","response","","html-keyboard-response","422","551702","0.0-1.0-572.0","0","0","82299","","726","","","68","63","","","2","63","training","adjacent","FE","6","5","N.jpg","O.jpg","0","0","1","",""
"","feedback","","html-keyboard-response","423","552705","0.0-1.0-573.0-0.0","0","0","82299","","null","","","null","63","","","","","","","","","","","","","","","",""
"","ITI","","html-keyboard-response","424","553707","0.0-1.0-576.0","0","0","82299","","null","","","null","63","","","","","","","","","","","","","","","NaN",""
"","S1","","html-keyboard-response","425","553959","0.0-1.0-578.0","0","0","82299","","null","","","null","64","","","","","","","","","","","","","","","",""
"","ISI","","html-keyboard-response","426","555961","0.0-1.0-579.0","0","0","82299","","442","","","68","64","d","","","","","","","","","","","","","","",""
"","S2","","html-keyboard-response","427","556213","0.0-1.0-580.0","0","0","82299","","null","","","null","64","","NaN","","","","","","","","","","","","","",""
"","response","","html-keyboard-response","428","556782","0.0-1.0-581.0","0","0","82299","","567","","","68","64","","","2","64","training","adjacent","DC","4","3","L.jpg","Q.jpg","0","0","1","",""
"","feedback","","html-keyboard-response","429","557783","0.0-1.0-582.0-0.0","0","0","82299","","null","","","null","64","","","","","","","","","","","","","","","",""
"","ITI","","html-keyboard-response","430","558786","0.0-1.0-585.0","0","0","82299","","null","","","null","64","","","","","","","","","","","","","","","NaN",""
"","S1","","html-keyboard-response","431","559038","0.0-1.0-587.0","0","0","82299","","null","","","null","65","","","","","","","","","","","","","","","",""
"","ISI","","html-keyboard-response","432","561040","0.0-1.0-588.0","0","0","82299","","1983","","","68","65","d","","","","","","","","","","","","","","",""
"","S2","","html-keyboard-response","433","561294","0.0-1.0-589.0","0","0","82299","","null","","","null","65","","NaN","","","","","","","","","","","","","",""
"","response","","html-keyboard-response","434","561322","0.0-1.0-590.0","0","0","82299","","27","","","68","65","","","2","65","training","adjacent","ED","5","4","O.jpg","L.jpg","0","0","1","",""
"","feedback","","html-keyboard-response","435","562324","0.0-1.0-591.0-0.0","0","0","82299","","null","","","null","65","","","","","","","","","","","","","","","",""
"","ITI","","html-keyboard-response","436","563327","0.0-1.0-594.0","0","0","82299","","null","","","null","65","","","","","","","","","","","","","","","NaN",""
"","S1","","html-keyboard-response","437","563580","0.0-1.0-596.0","0","0","82299","","null","","","null","66","","","","","","","","","","","","","","","",""
"","ISI","","html-keyboard-response","438","565583","0.0-1.0-597.0","0","0","82299","","880","","","75","66","k","","","","","","","","","","","","","","",""
"","S2","","html-keyboard-response","439","565835","0.0-1.0-598.0","0","0","82299","","null","","","null","66","","NaN","","","","","","","","","","","","","",""
"","response","","html-keyboard-response","440","566302","0.0-1.0-599.0","0","0","82299","","466","","","75","66","","","2","66","training","adjacent","CD","3","4","Q.jpg","L.jpg","1","1","1","",""
"","feedback","","html-keyboard-response","441","567304","0.0-1.0-600.0-0.0","0","0","82299","","null","","","null","66","","","","","","","","","","","","","","","",""
"","ITI","","html-keyboard-response","442","568306","0.0-1.0-603.0","0","0","82299","","null","","","null","66","","","","","","","","","","","","","","","NaN",""
"","S1","","html-keyboard-response","443","568560","0.0-1.0-605.0","0","0","82299","","null","","","null","67","","","","","","","","","","","","","","","",""
"","ISI","","html-keyboard-response","444","570563","0.0-1.0-606.0","0","0","82299","","1681","","","68","67","d","","","","","","","","","","","","","","",""
"","S2","","html-keyboard-response","445","570818","0.0-1.0-607.0","0","0","82299","","null","","","null","67","","NaN","","","","","","","","","","","","","",""
"","response","","html-keyboard-response","446","571681","0.0-1.0-608.0","0","0","82299","","861","","","68","67","","","2","67","training","adjacent","BA","2","1","M.jpg","P.jpg","0","0","1","",""
"","feedback","","html-keyboard-response","447","572684","0.0-1.0-609.0-0.0","0","0","82299","","null","","","null","67","","","","","","","","","","","","","","","",""
"","ITI","","html-keyboard-response","448","573687","0.0-1.0-612.0","0","0","82299","","null","","","null","67","","","","","","","","","","","","","","","NaN",""
"","S1","","html-keyboard-response","449","573940","0.0-1.0-614.0","0","0","82299","","null","","","null","68","","","","","","","","","","","","","","","",""
"","ISI","","html-keyboard-response","450","575942","0.0-1.0-615.0","0","0","82299","","419","","","68","68","d","","","","","","","","","","","","","","",""
"","S2","","html-keyboard-response","451","576195","0.0-1.0-616.0","0","0","82299","","null","","","null","68","","NaN","","","","","","","","","","","","","",""
"","response","","html-keyboard-response","452","577201","0.0-1.0-617.0","0","0","82299","","1004","","","68","68","","","2","68","training","adjacent","BC","2","3","M.jpg","Q.jpg","0","1","0","",""
"","feedback","","html-keyboard-response","453","578204","0.0-1.0-618.0-0.0","0","0","82299","","null","","","null","68","","","","","","","","","","","","","","","",""
"","time_out","","html-keyboard-response","454","580207","0.0-1.0-620.0-0.0","0","0","82299","","null","","","null","68","","","","","","","","","","","","","","","",""
"","ITI","","html-keyboard-response","455","581209","0.0-1.0-621.0","0","0","82299","","752","","","75","68","","","","","","","","","","","","","","","k",""
"","S1","","html-keyboard-response","456","581462","0.0-1.0-623.0","0","0","82299","","null","","","null","69","","","","","","","","","","","","","","","",""
"","ISI","","html-keyboard-response","457","583465","0.0-1.0-624.0","0","0","82299","","567","","","75","69","k","","","","","","","","","","","","","","",""
"","S2","","html-keyboard-response","458","583718","0.0-1.0-625.0","0","0","82299","","null","","","null","69","","NaN","","","","","","","","","","","","","",""
"","response","","html-keyboard-response","459","584521","0.0-1.0-626.0","0","0","82299","","802","","","68","69","","","2","69","training","adjacent","EF","5","6","O.jpg","N.jpg","0","1","0","",""
"","feedback","","html-keyboard-response","460","585523","0.0-1.0-627.0-0.0","0","0","82299","","null","","","null","69","","","","","","","","","","","","","","","",""
"","time_out","","html-keyboard-response","461","587525","0.0-1.0-629.0-0.0","0","0","82299","","null","","","null","69","","","","","","","","","","","","","","","",""
"","ITI","","html-keyboard-response","462","588527","0.0-1.0-630.0","0","0","82299","","null","","","null","69","","","","","","","","","","","","","","","NaN",""
"","S1","","html-keyboard-response","463","588779","0.0-1.0-632.0","0","0","82299","","null","","","null","70","","","","","","","","","","","","","","","",""
"","ISI","","html-keyboard-response","464","590781","0.0-1.0-633.0","0","0","82299","","661","","","75","70","k","","","","","","","","","","","","","","",""
"","S2","","html-keyboard-response","465","591034","0.0-1.0-634.0","0","0","82299","","null","","","null","70","","NaN","","","","","","","","","","","","","",""
"","response","","html-keyboard-response","466","591149","0.0-1.0-635.0","0","0","82299","","113","","","75","70","","","2","70","training","adjacent","CB","3","2","Q.jpg","M.jpg","1","0","0","",""
"","feedback","","html-keyboard-response","467","592151","0.0-1.0-636.0-0.0","0","0","82299","","null","","","null","70","","","","","","","","","","","","","","","",""
"","time_out","","html-keyboard-response","468","594153","0.0-1.0-638.0-0.0","0","0","82299","","null","","","null","70","","","","","","","","","","","","","","","",""
"","ITI","","html-keyboard-response","469","595155","0.0-1.0-639.0","0","0","82299","","566","","","68","70","","","","","","","","","","","","","","","d",""
"","S1","","html-keyboard-response","470","595407","0.0-1.0-641.0","0","0","82299","","null","","","null","71","","","","","","","","","","","","","","","",""
"","ISI","","html-keyboard-response","471","597410","0.0-1.0-642.0","0","0","82299","","832","","","68","71","d","","","","","","","","","","","","","","",""
"","S2","","html-keyboard-response","472","597663","0.0-1.0-643.0","0","0","82299","","null","","","null","71","","NaN","","","","","","","","","","","","","",""
"","response","","html-keyboard-response","473","598201","0.0-1.0-644.0","0","0","82299","","536","","","75","71","","","2","71","training","adjacent","DC","4","3","L.jpg","Q.jpg","1","0","0","",""
"","feedback","","html-keyboard-response","474","599204","0.0-1.0-645.0-0.0","0","0","82299","","null","","","null","71","","","","","","","","","","","","","","","",""
"","time_out","","html-keyboard-response","475","601207","0.0-1.0-647.0-0.0","0","0","82299","","null","","","null","71","","","","","","","","","","","","","","","",""
"","ITI","","html-keyboard-response","476","602209","0.0-1.0-648.0","0","0","82299","","null","","","null","71","","","","","","","","","","","","","","","NaN",""
"","S1","","html-keyboard-response","477","602462","0.0-1.0-650.0","0","0","82299","","null","","","null","72","","","","","","","","","","","","","","","",""
"","ISI","","html-keyboard-response","478","604464","0.0-1.0-651.0","0","0","82299","","818","","","68","72","d","","","","","","","","","","","","","","",""
"","S2","","html-keyboard-response","479","604717","0.0-1.0-652.0","0","0","82299","","null","","","null","72","","NaN","","","","","","","","","","","","","",""
"","response","","html-keyboard-response","480","605602","0.0-1.0-653.0","0","0","82299","","884","","","68","72","","","2","72","training","adjacent","DE","4","5","L.jpg","O.jpg","0","1","0","",""
"","feedback","","html-keyboard-response","481","606605","0.0-1.0-654.0-0.0","0","0","82299","","null","","","null","72","","","","","","","","","","","","","","","",""
"","time_out","","html-keyboard-response","482","608608","0.0-1.0-656.0-0.0","0","0","82299","","null","","","null","72","","","","","","","","","","","","","","","",""
"","ITI","","html-keyboard-response","483","609610","0.0-1.0-657.0","0","0","82299","","null","","","null","72","","","","","","","","","","","","","","","NaN",""
"","S1","","html-keyboard-response","484","609863","0.0-1.0-659.0","0","0","82299","","null","","","null","73","","","","","","","","","","","","","","","",""
"","ISI","","html-keyboard-response","485","611866","0.0-1.0-660.0","0","0","82299","","818","","","75","73","k","","","","","","","","","","","","","","",""
"","S2","","html-keyboard-response","486","612119","0.0-1.0-661.0","0","0","82299","","null","","","null","73","","NaN","","","","","","","","","","","","","",""
"","response","","html-keyboard-response","487","612742","0.0-1.0-662.0","0","0","82299","","621","","","75","73","","","2","73","training","adjacent","FG","6","7","N.jpg","R.jpg","1","1","1","",""
"","feedback","","html-keyboard-response","488","613744","0.0-1.0-663.0-0.0","0","0","82299","","null","","","null","73","","","","","","","","","","","","","","","",""
"","ITI","","html-keyboard-response","489","614746","0.0-1.0-666.0","0","0","82299","","null","","","null","73","","","","","","","","","","","","","","","NaN",""
"","S1","","html-keyboard-response","490","614999","0.0-1.0-668.0","0","0","82299","","null","","","null","74","","","","","","","","","","","","","","","",""
"","ISI","","html-keyboard-response","491","617001","0.0-1.0-669.0","0","0","82299","","null","","","null","74","NaN","","","","","","","","","","","","","","",""
"","S2","","html-keyboard-response","492","617254","0.0-1.0-670.0","0","0","82299","","null","","","null","74","","NaN","","","","","","","","","","","","","",""
"","response","","html-keyboard-response","493","618142","0.0-1.0-671.0","0","0","82299","","887","","","75","74","","","2","74","training","adjacent","EF","5","6","O.jpg","N.jpg","1","1","1","",""
"","feedback","","html-keyboard-response","494","619145","0.0-1.0-672.0-0.0","0","0","82299","","null","","","null","74","","","","","","","","","","","","","","","",""
"","ITI","","html-keyboard-response","495","620149","0.0-1.0-675.0","0","0","82299","","null","","","null","74","","","","","","","","","","","","","","","NaN",""
"","S1","","html-keyboard-response","496","620401","0.0-1.0-677.0","0","0","82299","","null","","","null","75","","","","","","","","","","","","","","","",""
"","ISI","","html-keyboard-response","497","622403","0.0-1.0-678.0","0","0","82299","","null","","","null","75","NaN","","","","","","","","","","","","","","",""
"","S2","","html-keyboard-response","498","622655","0.0-1.0-679.0","0","0","82299","","17","","","75","75","","k","","","","","","","","","","","","","",""
"","response","","html-keyboard-response","499","623442","0.0-1.0-680.0","0","0","82299","","785","","","75","75","","","2","75","training","adjacent","DC","4","3","L.jpg","Q.jpg","1","0","0","",""
"","feedback","","html-keyboard-response","500","624446","0.0-1.0-681.0-0.0","0","0","82299","","null","","","null","75","","","","","","","","","","","","","","","",""
"","time_out","","html-keyboard-response","501","626449","0.0-1.0-683.0-0.0","0","0","82299","","null","","","null","75","","","","","","","","","","","","","","","",""
"","ITI","","html-keyboard-response","502","627451","0.0-1.0-684.0","0","0","82299","","32","","","68","75","","","","","","","","","","","","","","","d",""
"","S1","","html-keyboard-response","503","627703","0.0-1.0-686.0","0","0","82299","","null","","","null","76","","","","","","","","","","","","","","","",""
"","ISI","","html-keyboard-response","504","629706","0.0-1.0-687.0","0","0","82299","","397","","","68","76","d","","","","","","","","","","","","","","",""
"","S2","","html-keyboard-response","505","629958","0.0-1.0-688.0","0","0","82299","","null","","","null","76","","NaN","","","","","","","","","","","","","",""
"","response","","html-keyboard-response","506","630752","0.0-1.0-689.0","0","0","82299","","793","","","75","76","","","2","76","training","adjacent","AB","1","2","P.jpg","M.jpg","1","1","1","",""
"","feedback","","html-keyboard-response","507","631753","0.0-1.0-690.0-0.0","0","0","82299","","null","","","null","76","","","","","","","","","","","","","","","",""
"","ITI","","html-keyboard-response","508","632755","0.0-1.0-693.0","0","0","82299","","687","","","68","76","","","","","","","","","","","","","","","d",""
"","S1","","html-keyboard-response","509","633007","0.0-1.0-695.0","0","0","82299","","null","","","null","77","","","","","","","","","","","","","","","",""
"","ISI","","html-keyboard-response","510","635009","0.0-1.0-696.0","0","0","82299","","932","","","68","77","d","","","","","","","","","","","","","","",""
"","S2","","html-keyboard-response","511","635262","0.0-1.0-697.0","0","0","82299","","null","","","null","77","","NaN","","","","","","","","","","","","","",""
"","response","","html-keyboard-response","512","635701","0.0-1.0-698.0","0","0","82299","","437","","","68","77","","","2","77","training","adjacent","ED","5","4","O.jpg","L.jpg","0","0","1","",""
"","feedback","","html-keyboard-response","513","636703","0.0-1.0-699.0-0.0","0","0","82299","","null","","","null","77","","","","","","","","","","","","","","","",""
"","ITI","","html-keyboard-response","514","637705","0.0-1.0-702.0","0","0","82299","","null","","","null","77","","","","","","","","","","","","","","","NaN",""
"","S1","","html-keyboard-response","515","637958","0.0-1.0-704.0","0","0","82299","","null","","","null","78","","","","","","","","","","","","","","","",""
"","ISI","","html-keyboard-response","516","639960","0.0-1.0-705.0","0","0","82299","","272","","","68","78","d","","","","","","","","","","","","","","",""
"","S2","","html-keyboard-response","517","640214","0.0-1.0-706.0","0","0","82299","","null","","","null","78","","NaN","","","","","","","","","","","","","",""
"","response","","html-keyboard-response","518","640381","0.0-1.0-707.0","0","0","82299","","166","","","68","78","","","2","78","training","adjacent","DC","4","3","L.jpg","Q.jpg","0","0","1","",""
"","feedback","","html-keyboard-response","519","641384","0.0-1.0-708.0-0.0","0","0","82299","","null","","","null","78","","","","","","","","","","","","","","","",""
"","ITI","","html-keyboard-response","520","642386","0.0-1.0-711.0","0","0","82299","","566","","","75","78","","","","","","","","","","","","","","","k",""
"","S1","","html-keyboard-response","521","642638","0.0-1.0-713.0","0","0","82299","","null","","","null","79","","","","","","","","","","","","","","","",""
"","ISI","","html-keyboard-response","522","644640","0.0-1.0-714.0","0","0","82299","","622","","","68","79","d","","","","","","","","","","","","","","",""
"","S2","","html-keyboard-response","523","644892","0.0-1.0-715.0","0","0","82299","","null","","","null","79","","NaN","","","","","","","","","","","","","",""
"","response","","html-keyboard-response","524","645502","0.0-1.0-716.0","0","0","82299","","607","","","75","79","","","2","79","training","adjacent","GF","7","6","R.jpg","N.jpg","1","0","0","",""
"","feedback","","html-keyboard-response","525","646503","0.0-1.0-717.0-0.0","0","0","82299","","null","","","null","79","","","","","","","","","","","","","","","",""
"","time_out","","html-keyboard-response","526","648506","0.0-1.0-719.0-0.0","0","0","82299","","null","","","null","79","","","","","","","","","","","","","","","",""
"","ITI","","html-keyboard-response","527","649509","0.0-1.0-720.0","0","0","82299","","374","","","75","79","","","","","","","","","","","","","","","k",""
"","block_over","","html-keyboard-response","528","655841","0.0-1.0-721.0-0.0","0","0","82299","","6330","","","32","79","","","","","","","","","","","","","","","",""
"","S1","","html-keyboard-response","529","656095","0.0-1.0-722.0","0","0","82299","","null","","","null","80","","","","","","","","","","","","","","","",""
"","ISI","","html-keyboard-response","530","658097","0.0-1.0-723.0","0","0","82299","","816","","","68","80","d","","","","","","","","","","","","","","",""
"","S2","","html-keyboard-response","531","658350","0.0-1.0-724.0","0","0","82299","","null","","","null","80","","NaN","","","","","","","","","","","","","",""
"","response","","html-keyboard-response","532","659461","0.0-1.0-725.0","0","0","82299","","1109","","","75","80","","","3","80","training","adjacent","BA","2","1","M.jpg","P.jpg","1","0","0","",""
"","feedback","","html-keyboard-response","533","660464","0.0-1.0-726.0-0.0","0","0","82299","","null","","","null","80","","","","","","","","","","","","","","","",""
"","time_out","","html-keyboard-response","534","662467","0.0-1.0-728.0-0.0","0","0","82299","","null","","","null","80","","","","","","","","","","","","","","","",""
"","ITI","","html-keyboard-response","535","663470","0.0-1.0-729.0","0","0","82299","","null","","","null","80","","","","","","","","","","","","","","","NaN",""
"","S1","","html-keyboard-response","536","663725","0.0-1.0-731.0","0","0","82299","","null","","","null","81","","","","","","","","","","","","","","","",""
"","ISI","","html-keyboard-response","537","665728","0.0-1.0-732.0","0","0","82299","","null","","","null","81","NaN","","","","","","","","","","","","","","",""
"","S2","","html-keyboard-response","538","665980","0.0-1.0-733.0","0","0","82299","","null","","","null","81","","NaN","","","","","","","","","","","","","",""
"","response","","html-keyboard-response","539","666942","0.0-1.0-734.0","0","0","82299","","960","","","75","81","","","3","81","training","adjacent","AB","1","2","P.jpg","M.jpg","1","1","1","",""
"","feedback","","html-keyboard-response","540","667945","0.0-1.0-735.0-0.0","0","0","82299","","null","","","null","81","","","","","","","","","","","","","","","",""
"","ITI","","html-keyboard-response","541","668950","0.0-1.0-738.0","0","0","82299","","null","","","null","81","","","","","","","","","","","","","","","NaN",""
"","S1","","html-keyboard-response","542","669204","0.0-1.0-740.0","0","0","82299","","null","","","null","82","","","","","","","","","","","","","","","",""
"","ISI","","html-keyboard-response","543","671206","0.0-1.0-741.0","0","0","82299","","null","","","null","82","NaN","","","","","","","","","","","","","","",""
"","S2","","html-keyboard-response","544","671459","0.0-1.0-742.0","0","0","82299","","null","","","null","82","","NaN","","","","","","","","","","","","","",""
"","response","","html-keyboard-response","545","672282","0.0-1.0-743.0","0","0","82299","","821","","","75","82","","","3","82","training","adjacent","FG","6","7","N.jpg","R.jpg","1","1","1","",""
"","feedback","","html-keyboard-response","546","673287","0.0-1.0-744.0-0.0","0","0","82299","","null","","","null","82","","","","","","","","","","","","","","","",""
"","ITI","","html-keyboard-response","547","674290","0.0-1.0-747.0","0","0","82299","","null","","","null","82","","","","","","","","","","","","","","","NaN",""
"","S1","","html-keyboard-response","548","674542","0.0-1.0-749.0","0","0","82299","","null","","","null","83","","","","","","","","","","","","","","","",""
"","ISI","","html-keyboard-response","549","676544","0.0-1.0-750.0","0","0","82299","","null","","","null","83","NaN","","","","","","","","","","","","","","",""
"","S2","","html-keyboard-response","550","676797","0.0-1.0-751.0","0","0","82299","","null","","","null","83","","NaN","","","","","","","","","","","","","",""
"","response","","html-keyboard-response","551","677612","0.0-1.0-752.0","0","0","82299","","814","","","75","83","","","3","83","training","adjacent","CD","3","4","Q.jpg","L.jpg","1","1","1","",""
"","feedback","","html-keyboard-response","552","678615","0.0-1.0-753.0-0.0","0","0","82299","","null","","","null","83","","","","","","","","","","","","","","","",""
"","ITI","","html-keyboard-response","553","679617","0.0-1.0-756.0","0","0","82299","","null","","","null","83","","","","","","","","","","","","","","","NaN",""
"","S1","","html-keyboard-response","554","679870","0.0-1.0-758.0","0","0","82299","","null","","","null","84","","","","","","","","","","","","","","","",""
"","ISI","","html-keyboard-response","555","681873","0.0-1.0-759.0","0","0","82299","","1150","","","75","84","k","","","","","","","","","","","","","","",""
"","S2","","html-keyboard-response","556","682126","0.0-1.0-760.0","0","0","82299","","null","","","null","84","","NaN","","","","","","","","","","","","","",""
"","response","","html-keyboard-response","557","682222","0.0-1.0-761.0","0","0","82299","","94","","","75","84","","","3","84","training","adjacent","EF","5","6","O.jpg","N.jpg","1","1","1","",""
"","feedback","","html-keyboard-response","558","683225","0.0-1.0-762.0-0.0","0","0","82299","","null","","","null","84","","","","","","","","","","","","","","","",""
"","ITI","","html-keyboard-response","559","684227","0.0-1.0-765.0","0","0","82299","","696","","","75","84","","","","","","","","","","","","","","","k",""
"","S1","","html-keyboard-response","560","684479","0.0-1.0-767.0","0","0","82299","","null","","","null","85","","","","","","","","","","","","","","","",""
"","ISI","","html-keyboard-response","561","686481","0.0-1.0-768.0","0","0","82299","","981","","","75","85","k","","","","","","","","","","","","","","",""
"","S2","","html-keyboard-response","562","686734","0.0-1.0-769.0","0","0","82299","","null","","","null","85","","NaN","","","","","","","","","","","","","",""
"","response","","html-keyboard-response","563","686822","0.0-1.0-770.0","0","0","82299","","87","","","75","85","","","3","85","training","adjacent","CD","3","4","Q.jpg","L.jpg","1","1","1","",""
"","feedback","","html-keyboard-response","564","687824","0.0-1.0-771.0-0.0","0","0","82299","","null","","","null","85","","","","","","","","","","","","","","","",""
"","ITI","","html-keyboard-response","565","688827","0.0-1.0-774.0","0","0","82299","","null","","","null","85","","","","","","","","","","","","","","","NaN",""
"","S1","","html-keyboard-response","566","689080","0.0-1.0-776.0","0","0","82299","","null","","","null","86","","","","","","","","","","","","","","","",""
"","ISI","","html-keyboard-response","567","691082","0.0-1.0-777.0","0","0","82299","","null","","","null","86","NaN","","","","","","","","","","","","","","",""
"","S2","","html-keyboard-response","568","691334","0.0-1.0-778.0","0","0","82299","","null","","","null","86","","NaN","","","","","","","","","","","","","",""
"","response","","html-keyboard-response","569","692902","0.0-1.0-779.0","0","0","82299","","1566","","","68","86","","","3","86","training","adjacent","DC","4","3","L.jpg","Q.jpg","0","0","1","",""
"","feedback","","html-keyboard-response","570","693906","0.0-1.0-780.0-0.0","0","0","82299","","null","","","null","86","","","","","","","","","","","","","","","",""
"","ITI","","html-keyboard-response","571","694907","0.0-1.0-783.0","0","0","82299","","null","","","null","86","","","","","","","","","","","","","","","NaN",""
"","S1","","html-keyboard-response","572","695160","0.0-1.0-785.0","0","0","82299","","null","","","null","87","","","","","","","","","","","","","","","",""
"","ISI","","html-keyboard-response","573","697164","0.0-1.0-786.0","0","0","82299","","840","","","75","87","k","","","","","","","","","","","","","","",""
"","S2","","html-keyboard-response","574","697416","0.0-1.0-787.0","0","0","82299","","null","","","null","87","","NaN","","","","","","","","","","","","","",""
"","response","","html-keyboard-response","575","697602","0.0-1.0-788.0","0","0","82299","","183","","","75","87","","","3","87","training","adjacent","EF","5","6","O.jpg","N.jpg","1","1","1","",""
"","feedback","","html-keyboard-response","576","698605","0.0-1.0-789.0-0.0","0","0","82299","","null","","","null","87","","","","","","","","","","","","","","","",""
"","ITI","","html-keyboard-response","577","699608","0.0-1.0-792.0","0","0","82299","","null","","","null","87","","","","","","","","","","","","","","","NaN",""
"","S1","","html-keyboard-response","578","699860","0.0-1.0-794.0","0","0","82299","","null","","","null","88","","","","","","","","","","","","","","","",""
"","ISI","","html-keyboard-response","579","701863","0.0-1.0-795.0","0","0","82299","","1571","","","75","88","k","","","","","","","","","","","","","","",""
"","S2","","html-keyboard-response","580","702115","0.0-1.0-796.0","0","0","82299","","null","","","null","88","","NaN","","","","","","","","","","","","","",""
"","response","","html-keyboard-response","581","702882","0.0-1.0-797.0","0","0","82299","","765","","","75","88","","","3","88","training","adjacent","BA","2","1","M.jpg","P.jpg","1","0","0","",""
"","feedback","","html-keyboard-response","582","703885","0.0-1.0-798.0-0.0","0","0","82299","","null","","","null","88","","","","","","","","","","","","","","","",""
"","time_out","","html-keyboard-response","583","705888","0.0-1.0-800.0-0.0","0","0","82299","","null","","","null","88","","","","","","","","","","","","","","","",""
"","ITI","","html-keyboard-response","584","706890","0.0-1.0-801.0","0","0","82299","","null","","","null","88","","","","","","","","","","","","","","","NaN",""
"","S1","","html-keyboard-response","585","707143","0.0-1.0-803.0","0","0","82299","","null","","","null","89","","","","","","","","","","","","","","","",""
"","ISI","","html-keyboard-response","586","709148","0.0-1.0-804.0","0","0","82299","","449","","","75","89","k","","","","","","","","","","","","","","",""
"","S2","","html-keyboard-response","587","709401","0.0-1.0-805.0","0","0","82299","","null","","","null","89","","NaN","","","","","","","","","","","","","",""
