"success","ttype","start_time","trial_type","trial_index","time_elapsed","internal_node_id","warning","missed_checkup","PID","view_history","rt","responses","repeat_instructions","key_press","index","keypress_isi","keypress_S2","block","trial_num","phase","group_type","pair_type","S1_stim","S2_stim","S1_img","S2_img","S1_chosen","S1_higher","accuracy","keypress_iti","total_bonus_tally"
"true","full_screen","d03032023hr2111","fullscreen","0","5332","0.0-0.0","0","0","72289","","","","","","","","","","","","","","","","","","","","","",""
"","instructions","","instructions","1","54553","0.0-1.0-0.0-0.0","0","0","72289","[{""page_index"":0,""viewing_time"":1831},{""page_index"":1,""viewing_time"":36045},{""page_index"":2,""viewing_time"":2998},{""page_index"":3,""viewing_time"":8337}]","49212","","","","","","","","","","","","","","","","","","","",""
"","comprehension_check","","survey-multi-choice","2","62718","0.0-1.0-0.0-1.0","0","0","72289","","8142","{""Q0"":""True"",""Q1"":""D"",""Q2"":""Once the second image appears and while the screen 'MAKE A CHOICE' is shown"",""Q3"":""Green mark"",""Q4"":""either D or K""}","1","","","","","","","","","","","","","","","","","",""
"","missed_instruction_checkup","","html-keyboard-response","3","65364","0.0-1.0-0.0-2.0-0.0","0","1","72289","","2637","","","32","","","","","","","","","","","","","","","","",""
"","instructions","","instructions","4","69751","0.0-1.0-0.1-0.1","0","0","72289","[{""page_index"":0,""viewing_time"":1804},{""page_index"":1,""viewing_time"":287},{""page_index"":2,""viewing_time"":783},{""page_index"":3,""viewing_time"":1502}]","4377","","","","","","","","","","","","","","","","","","","",""
"","comprehension_check","","survey-multi-choice","5","76525","0.0-1.0-0.1-1.1","0","0","72289","","6753","{""Q0"":""True"",""Q1"":""D"",""Q2"":""Once the second image appears and while the screen 'MAKE A CHOICE' is shown"",""Q3"":""Green mark"",""Q4"":""either D or K""}","1","","","","","","","","","","","","","","","","","",""
"","missed_instruction_checkup","","html-keyboard-response","6","78285","0.0-1.0-0.1-2.1-0.1","0","1","72289","","1755","","","32","","","","","","","","","","","","","","","","",""
"","instructions","","instructions","7","139323","0.0-1.0-0.2-0.2","0","0","72289","[{""page_index"":0,""viewing_time"":4839},{""page_index"":1,""viewing_time"":48990},{""page_index"":2,""viewing_time"":4848},{""page_index"":3,""viewing_time"":2351}]","61029","","","","","","","","","","","","","","","","","","","",""
"","comprehension_check","","survey-multi-choice","8","149161","0.0-1.0-0.2-1.2","0","0","72289","","9817","{""Q0"":""True"",""Q1"":""K"",""Q2"":""Once the second image appears and while the screen 'MAKE A CHOICE' is shown"",""Q3"":""Green mark"",""Q4"":""either D or K""}","0","","","","","","","","","","","","","","","","","",""
"","start_exp","","html-keyboard-response","9","150622","0.0-1.0-1.0","0","0","72289","","1451","","","32","","","","","","","","","","","","","","","","",""
"","S1","","html-keyboard-response","10","150881","0.0-1.0-2.0","0","0","72289","","null","","","null","0","","","","","","","","","","","","","","","",""
"","ISI","","html-keyboard-response","11","151386","0.0-1.0-3.0","0","0","72289","","null","","","null","0","NaN","","","","","","","","","","","","","","",""
"","S2","","html-keyboard-response","12","151645","0.0-1.0-4.0","0","0","72289","","null","","","null","0","","NaN","","","","","","","","","","","","","",""
"","response","","html-keyboard-response","13","153399","0.0-1.0-5.0-0.0","0","0","72289","","null","","","null","0","","","1","0","training","adjacent","BA","2","1","R.jpg","Q.jpg","NaN","0","0","",""
"","too_slow_prompt","","html-keyboard-response","14","154487","0.0-1.0-7.0-0.0","1","0","72289","","null","","","null","","","","","","","","","","","","","","","","",""
"","time_out","","html-keyboard-response","15","156496","0.0-1.0-8.0-0.0","0","0","72289","","null","","","null","0","","","","","","","","","","","","","","","",""
"","ITI","","html-keyboard-response","16","157501","0.0-1.0-9.0","0","0","72289","","null","","","null","0","","","","","","","","","","","","","","","NaN",""
"","S1","","html-keyboard-response","17","157760","0.0-1.0-11.0","0","0","72289","","null","","","null","1","","","","","","","","","","","","","","","",""
"","ISI","","html-keyboard-response","18","158285","0.0-1.0-12.0","0","0","72289","","null","","","null","1","NaN","","","","","","","","","","","","","","",""
"","S2","","html-keyboard-response","19","158539","0.0-1.0-13.0","0","0","72289","","null","","","null","1","","NaN","","","","","","","","","","","","","",""
"","response","","html-keyboard-response","20","160294","0.0-1.0-14.0-0.0","0","0","72289","","null","","","null","1","","","1","1","training","adjacent","FG","6","7","O.jpg","L.jpg","NaN","1","0","",""
"","too_slow_prompt","","html-keyboard-response","21","161307","0.0-1.0-16.0-0.0","1","0","72289","","null","","","null","","","","","","","","","","","","","","","","",""
"","time_out","","html-keyboard-response","22","164528","0.0-1.0-17.0-0.0","0","0","72289","","null","","","null","1","","","","","","","","","","","","","","","",""
"","ITI","","html-keyboard-response","23","165547","0.0-1.0-18.0","0","0","72289","","null","","","null","1","","","","","","","","","","","","","","","NaN",""
"","S1","","html-keyboard-response","24","165802","0.0-1.0-20.0","0","0","72289","","null","","","null","2","","","","","","","","","","","","","","","",""
"","ISI","","html-keyboard-response","25","166306","0.0-1.0-21.0","0","0","72289","","null","","","null","2","NaN","","","","","","","","","","","","","","",""
"","S2","","html-keyboard-response","26","166563","0.0-1.0-22.0","0","0","72289","","null","","","null","2","","NaN","","","","","","","","","","","","","",""
"","response","","html-keyboard-response","27","168323","0.0-1.0-23.0-0.0","0","0","72289","","null","","","null","2","","","1","2","training","adjacent","GF","7","6","L.jpg","O.jpg","NaN","0","0","",""
"","too_slow_prompt","","html-keyboard-response","28","169331","0.0-1.0-25.0-0.0","1","0","72289","","null","","","null","","","","","","","","","","","","","","","","",""
"","time_out","","html-keyboard-response","29","171347","0.0-1.0-26.0-0.0","0","0","72289","","null","","","null","2","","","","","","","","","","","","","","","",""
"","ITI","","html-keyboard-response","30","172356","0.0-1.0-27.0","0","0","72289","","null","","","null","2","","","","","","","","","","","","","","","NaN",""
"","S1","","html-keyboard-response","31","172612","0.0-1.0-29.0","0","0","72289","","null","","","null","3","","","","","","","","","","","","","","","",""
"","ISI","","html-keyboard-response","32","173115","0.0-1.0-30.0","0","0","72289","","null","","","null","3","NaN","","","","","","","","","","","","","","",""
"","S2","","html-keyboard-response","33","173374","0.0-1.0-31.0","0","0","72289","","null","","","null","3","","NaN","","","","","","","","","","","","","",""
"","response","","html-keyboard-response","34","174082","0.0-1.0-32.0-0.0","0","0","72289","","703","","","75","3","","","1","3","training","adjacent","BC","2","3","R.jpg","M.jpg","1","1","1","",""
"","feedback","","html-keyboard-response","35","175089","0.0-1.0-33.0-0.0","0","0","72289","","null","","","null","3","","","","","","","","","","","","","","","",""
"","ITI","","html-keyboard-response","36","176095","0.0-1.0-36.0","0","0","72289","","null","","","null","3","","","","","","","","","","","","","","","NaN",""
"","S1","","html-keyboard-response","37","176366","0.0-1.0-38.0","0","0","72289","","null","","","null","4","","","","","","","","","","","","","","","",""
"","ISI","","html-keyboard-response","38","176872","0.0-1.0-39.0","0","0","72289","","378","","","68","4","d","","","","","","","","","","","","","","",""
"","S2","","html-keyboard-response","39","177130","0.0-1.0-40.0","0","0","72289","","null","","","null","4","","NaN","","","","","","","","","","","","","",""
"","response","","html-keyboard-response","40","178261","0.0-1.0-41.0-0.0","0","0","72289","","1124","","","75","4","","","1","4","training","adjacent","CB","3","2","M.jpg","R.jpg","1","0","0","",""
"","feedback","","html-keyboard-response","41","179267","0.0-1.0-42.0-0.0","0","0","72289","","null","","","null","4","","","","","","","","","","","","","","","",""
"","time_out","","html-keyboard-response","42","181276","0.0-1.0-44.0-0.0","0","0","72289","","null","","","null","4","","","","","","","","","","","","","","","",""
"","ITI","","html-keyboard-response","43","182283","0.0-1.0-45.0","0","0","72289","","null","","","null","4","","","","","","","","","","","","","","","NaN",""
"","S1","","html-keyboard-response","44","182538","0.0-1.0-47.0","0","0","72289","","null","","","null","5","","","","","","","","","","","","","","","",""
"","ISI","","html-keyboard-response","45","183043","0.0-1.0-48.0","0","0","72289","","null","","","null","5","NaN","","","","","","","","","","","","","","",""
"","S2","","html-keyboard-response","46","183296","0.0-1.0-49.0","0","0","72289","","null","","","null","5","","NaN","","","","","","","","","","","","","",""
"","response","","html-keyboard-response","47","183480","0.0-1.0-50.0-0.0","0","0","72289","","181","","","75","5","","","1","5","training","adjacent","AB","1","2","Q.jpg","R.jpg","1","1","1","",""
"","feedback","","html-keyboard-response","48","184487","0.0-1.0-51.0-0.0","0","0","72289","","null","","","null","5","","","","","","","","","","","","","","","",""
"","ITI","","html-keyboard-response","49","185491","0.0-1.0-54.0","0","0","72289","","null","","","null","5","","","","","","","","","","","","","","","NaN",""
"","S1","","html-keyboard-response","50","185747","0.0-1.0-56.0","0","0","72289","","null","","","null","6","","","","","","","","","","","","","","","",""
"","ISI","","html-keyboard-response","51","186254","0.0-1.0-57.0","0","0","72289","","null","","","null","6","NaN","","","","","","","","","","","","","","",""
"","S2","","html-keyboard-response","52","186509","0.0-1.0-58.0","0","0","72289","","null","","","null","6","","NaN","","","","","","","","","","","","","",""
"","response","","html-keyboard-response","53","188287","0.0-1.0-59.0-0.0","0","0","72289","","null","","","null","6","","","1","6","training","adjacent","CB","3","2","M.jpg","R.jpg","NaN","0","0","",""
"","too_slow_prompt","","html-keyboard-response","54","189294","0.0-1.0-61.0-0.0","1","0","72289","","null","","","null","","","","","","","","","","","","","","","","",""
"","time_out","","html-keyboard-response","55","191307","0.0-1.0-62.0-0.0","0","0","72289","","null","","","null","6","","","","","","","","","","","","","","","",""
"","ITI","","html-keyboard-response","56","192322","0.0-1.0-63.0","0","0","72289","","null","","","null","6","","","","","","","","","","","","","","","NaN",""
"","S1","","html-keyboard-response","57","192579","0.0-1.0-65.0","0","0","72289","","null","","","null","7","","","","","","","","","","","","","","","",""
"","ISI","","html-keyboard-response","58","193086","0.0-1.0-66.0","0","0","72289","","null","","","null","7","NaN","","","","","","","","","","","","","","",""
"","S2","","html-keyboard-response","59","193343","0.0-1.0-67.0","0","0","72289","","null","","","null","7","","NaN","","","","","","","","","","","","","",""
"","response","","html-keyboard-response","60","195101","0.0-1.0-68.0-0.0","0","0","72289","","null","","","null","7","","","1","7","training","adjacent","DC","4","3","P.jpg","M.jpg","NaN","0","0","",""
"","too_slow_prompt","","html-keyboard-response","61","196108","0.0-1.0-70.0-0.0","1","0","72289","","null","","","null","","","","","","","","","","","","","","","","",""
"","time_out","","html-keyboard-response","62","198113","0.0-1.0-71.0-0.0","0","0","72289","","null","","","null","7","","","","","","","","","","","","","","","",""
"","ITI","","html-keyboard-response","63","199117","0.0-1.0-72.0","0","0","72289","","null","","","null","7","","","","","","","","","","","","","","","NaN",""
"","S1","","html-keyboard-response","64","199376","0.0-1.0-74.0","0","0","72289","","null","","","null","8","","","","","","","","","","","","","","","",""
"","ISI","","html-keyboard-response","65","199884","0.0-1.0-75.0","0","0","72289","","263","","","76","8","l","","","","","","","","","","","","","","",""
"","S2","","html-keyboard-response","66","200148","0.0-1.0-76.0","0","0","72289","","null","","","null","8","","NaN","","","","","","","","","","","","","",""
"","response","","html-keyboard-response","67","201908","0.0-1.0-77.0-0.0","0","0","72289","","null","","","null","8","","","1","8","training","adjacent","FE","6","5","O.jpg","N.jpg","NaN","0","0","",""
"","too_slow_prompt","","html-keyboard-response","68","202929","0.0-1.0-79.0-0.0","1","0","72289","","null","","","null","","","","","","","","","","","","","","","","",""
"","time_out","","html-keyboard-response","69","204938","0.0-1.0-80.0-0.0","0","0","72289","","null","","","null","8","","","","","","","","","","","","","","","",""
"","ITI","","html-keyboard-response","70","205966","0.0-1.0-81.0","0","0","72289","","null","","","null","8","","","","","","","","","","","","","","","NaN",""
"","S1","","html-keyboard-response","71","206406","0.0-1.0-83.0","0","0","72289","","null","","","null","9","","","","","","","","","","","","","","","",""
"","ISI","","html-keyboard-response","72","206911","0.0-1.0-84.0","0","0","72289","","19","","","75","9","k","","","","","","","","","","","","","","",""
"","S2","","html-keyboard-response","73","207165","0.0-1.0-85.0","0","0","72289","","null","","","null","9","","NaN","","","","","","","","","","","","","",""
"","response","","html-keyboard-response","74","208288","0.0-1.0-86.0-0.0","0","0","72289","","1119","","","68","9","","","1","9","training","adjacent","BA","2","1","R.jpg","Q.jpg","0","0","1","",""
"","feedback","","html-keyboard-response","75","209294","0.0-1.0-87.0-0.0","0","0","72289","","null","","","null","9","","","","","","","","","","","","","","","",""
"","ITI","","html-keyboard-response","76","210301","0.0-1.0-90.0","0","0","72289","","null","","","null","9","","","","","","","","","","","","","","","NaN",""
"","S1","","html-keyboard-response","77","210556","0.0-1.0-92.0","0","0","72289","","null","","","null","10","","","","","","","","","","","","","","","",""
"","ISI","","html-keyboard-response","78","211063","0.0-1.0-93.0","0","0","72289","","null","","","null","10","NaN","","","","","","","","","","","","","","",""
"","S2","","html-keyboard-response","79","211319","0.0-1.0-94.0","0","0","72289","","null","","","null","10","","NaN","","","","","","","","","","","","","",""
"","response","","html-keyboard-response","80","213076","0.0-1.0-95.0-0.0","0","0","72289","","null","","","null","10","","","1","10","training","adjacent","DE","4","5","P.jpg","N.jpg","NaN","1","0","",""
"","too_slow_prompt","","html-keyboard-response","81","214085","0.0-1.0-97.0-0.0","1","0","72289","","null","","","null","","","","","","","","","","","","","","","","",""
"","time_out","","html-keyboard-response","82","216091","0.0-1.0-98.0-0.0","0","0","72289","","null","","","null","10","","","","","","","","","","","","","","","",""
"","ITI","","html-keyboard-response","83","217099","0.0-1.0-99.0","0","0","72289","","null","","","null","10","","","","","","","","","","","","","","","NaN",""
"","S1","","html-keyboard-response","84","217354","0.0-1.0-101.0","0","0","72289","","null","","","null","11","","","","","","","","","","","","","","","",""
"","ISI","","html-keyboard-response","85","217860","0.0-1.0-102.0","0","0","72289","","null","","","null","11","NaN","","","","","","","","","","","","","","",""
"","S2","","html-keyboard-response","86","218116","0.0-1.0-103.0","0","0","72289","","null","","","null","11","","NaN","","","","","","","","","","","","","",""
"","response","","html-keyboard-response","87","219873","0.0-1.0-104.0-0.0","0","0","72289","","null","","","null","11","","","1","11","training","adjacent","DE","4","5","P.jpg","N.jpg","NaN","1","0","",""
"","too_slow_prompt","","html-keyboard-response","88","220885","0.0-1.0-106.0-0.0","1","0","72289","","null","","","null","","","","","","","","","","","","","","","","",""
"","time_out","","html-keyboard-response","89","222892","0.0-1.0-107.0-0.0","0","0","72289","","null","","","null","11","","","","","","","","","","","","","","","",""
"","ITI","","html-keyboard-response","90","223900","0.0-1.0-108.0","0","0","72289","","null","","","null","11","","","","","","","","","","","","","","","NaN",""
"","S1","","html-keyboard-response","91","224163","0.0-1.0-110.0","0","0","72289","","null","","","null","12","","","","","","","","","","","","","","","",""
"","ISI","","html-keyboard-response","92","224667","0.0-1.0-111.0","0","0","72289","","null","","","null","12","NaN","","","","","","","","","","","","","","",""
"","S2","","html-keyboard-response","93","224923","0.0-1.0-112.0","0","0","72289","","null","","","null","12","","NaN","","","","","","","","","","","","","",""
"","response","","html-keyboard-response","94","226678","0.0-1.0-113.0-0.0","0","0","72289","","null","","","null","12","","","1","12","training","adjacent","GF","7","6","L.jpg","O.jpg","NaN","0","0","",""
"","too_slow_prompt","","html-keyboard-response","95","227683","0.0-1.0-115.0-0.0","1","0","72289","","null","","","null","","","","","","","","","","","","","","","","",""
"","time_out","","html-keyboard-response","96","229691","0.0-1.0-116.0-0.0","0","0","72289","","null","","","null","12","","","","","","","","","","","","","","","",""
"","ITI","","html-keyboard-response","97","230700","0.0-1.0-117.0","0","0","72289","","23","","","75","12","","","","","","","","","","","","","","","k",""
"","S1","","html-keyboard-response","98","230956","0.0-1.0-119.0","0","0","72289","","null","","","null","13","","","","","","","","","","","","","","","",""
"","ISI","","html-keyboard-response","99","231468","0.0-1.0-120.0","0","0","72289","","null","","","null","13","NaN","","","","","","","","","","","","","","",""
"","S2","","html-keyboard-response","100","231725","0.0-1.0-121.0","0","0","72289","","null","","","null","13","","NaN","","","","","","","","","","","","","",""
"","response","","html-keyboard-response","101","231840","0.0-1.0-122.0-0.0","0","0","72289","","110","","","75","13","","","1","13","training","adjacent","ED","5","4","N.jpg","P.jpg","1","0","0","",""
"","feedback","","html-keyboard-response","102","232850","0.0-1.0-123.0-0.0","0","0","72289","","null","","","null","13","","","","","","","","","","","","","","","",""
"","time_out","","html-keyboard-response","103","234857","0.0-1.0-125.0-0.0","0","0","72289","","null","","","null","13","","","","","","","","","","","","","","","",""
"","ITI","","html-keyboard-response","104","235861","0.0-1.0-126.0","0","0","72289","","null","","","null","13","","","","","","","","","","","","","","","NaN",""
"","S1","","html-keyboard-response","105","236120","0.0-1.0-128.0","0","0","72289","","null","","","null","14","","","","","","","","","","","","","","","",""
"","ISI","","html-keyboard-response","106","236626","0.0-1.0-129.0","0","0","72289","","null","","","null","14","NaN","","","","","","","","","","","","","","",""
"","S2","","html-keyboard-response","107","236769","0.0-1.0-130.0","0","0","72289","","138","","","68","14","","d","1","14","training","adjacent","DC","4","3","P.jpg","M.jpg","0","0","1","",""
"","feedback","","html-keyboard-response","108","237773","0.0-1.0-132.0-0.0","0","0","72289","","null","","","null","14","","","","","","","","","","","","","","","",""
"","ITI","","html-keyboard-response","109","238777","0.0-1.0-135.0","0","0","72289","","80","","","75","14","","","","","","","","","","","","","","","k",""
"","S1","","html-keyboard-response","110","239032","0.0-1.0-137.0","0","0","72289","","null","","","null","15","","","","","","","","","","","","","","","",""
"","ISI","","html-keyboard-response","111","239536","0.0-1.0-138.0","0","0","72289","","null","","","null","15","NaN","","","","","","","","","","","","","","",""
"","S2","","html-keyboard-response","112","239581","0.0-1.0-139.0","0","0","72289","","40","","","75","15","","k","1","15","training","adjacent","CD","3","4","M.jpg","P.jpg","1","1","1","",""
"","feedback","","html-keyboard-response","113","240591","0.0-1.0-141.0-0.0","0","0","72289","","null","","","null","15","","","","","","","","","","","","","","","",""
"","ITI","","html-keyboard-response","114","241596","0.0-1.0-144.0","0","0","72289","","254","","","75","15","","","","","","","","","","","","","","","k",""
"","S1","","html-keyboard-response","115","241851","0.0-1.0-146.0","0","0","72289","","null","","","null","16","","","","","","","","","","","","","","","",""
"","ISI","","html-keyboard-response","116","242358","0.0-1.0-147.0","0","0","72289","","12","","","75","16","k","","","","","","","","","","","","","","",""
"","S2","","html-keyboard-response","117","242420","0.0-1.0-148.0","0","0","72289","","56","","","68","16","","d","1","16","training","adjacent","FE","6","5","O.jpg","N.jpg","0","0","1","",""
"","feedback","","html-keyboard-response","118","243427","0.0-1.0-150.0-0.0","0","0","72289","","null","","","null","16","","","","","","","","","","","","","","","",""
"","ITI","","html-keyboard-response","119","244440","0.0-1.0-153.0","0","0","72289","","649","","","68","16","","","","","","","","","","","","","","","d",""
"","S1","","html-keyboard-response","120","244694","0.0-1.0-155.0","0","0","72289","","null","","","null","17","","","","","","","","","","","","","","","",""
"","ISI","","html-keyboard-response","121","245199","0.0-1.0-156.0","0","0","72289","","108","","","75","17","k","","","","","","","","","","","","","","",""
"","S2","","html-keyboard-response","122","245219","0.0-1.0-157.0","0","0","72289","","15","","","68","17","","d","1","17","training","adjacent","BA","2","1","R.jpg","Q.jpg","0","0","1","",""
"","feedback","","html-keyboard-response","123","246307","0.0-1.0-159.0-0.0","0","0","72289","","null","","","null","17","","","","","","","","","","","","","","","",""
"","ITI","","html-keyboard-response","124","247312","0.0-1.0-162.0","0","0","72289","","78","","","75","17","","","","","","","","","","","","","","","k",""
"","S1","","html-keyboard-response","125","247568","0.0-1.0-164.0","0","0","72289","","null","","","null","18","","","","","","","","","","","","","","","",""
"","ISI","","html-keyboard-response","126","248073","0.0-1.0-165.0","0","0","72289","","37","","","75","18","k","","","","","","","","","","","","","","",""
"","S2","","html-keyboard-response","127","248326","0.0-1.0-166.0","0","0","72289","","null","","","null","18","","NaN","","","","","","","","","","","","","",""
"","response","","html-keyboard-response","128","248429","0.0-1.0-167.0-0.0","0","0","72289","","100","","","68","18","","","1","18","training","adjacent","EF","5","6","N.jpg","O.jpg","0","1","0","",""
"","feedback","","html-keyboard-response","129","249435","0.0-1.0-168.0-0.0","0","0","72289","","null","","","null","18","","","","","","","","","","","","","","","",""
"","time_out","","html-keyboard-response","130","251442","0.0-1.0-170.0-0.0","0","0","72289","","null","","","null","18","","","","","","","","","","","","","","","",""
"","ITI","","html-keyboard-response","131","252446","0.0-1.0-171.0","0","0","72289","","793","","","68","18","","","","","","","","","","","","","","","d",""
"","S1","","html-keyboard-response","132","252700","0.0-1.0-173.0","0","0","72289","","null","","","null","19","","","","","","","","","","","","","","","",""
"","ISI","","html-keyboard-response","133","253207","0.0-1.0-174.0","0","0","72289","","null","","","null","19","NaN","","","","","","","","","","","","","","",""
"","S2","","html-keyboard-response","134","253463","0.0-1.0-175.0","0","0","72289","","null","","","null","19","","NaN","","","","","","","","","","","","","",""
"","response","","html-keyboard-response","135","255223","0.0-1.0-176.0-0.0","0","0","72289","","null","","","null","19","","","1","19","training","adjacent","CB","3","2","M.jpg","R.jpg","NaN","0","0","",""
"","too_slow_prompt","","html-keyboard-response","136","256227","0.0-1.0-178.0-0.0","1","0","72289","","null","","","null","","","","","","","","","","","","","","","","",""
"","time_out","","html-keyboard-response","137","258238","0.0-1.0-179.0-0.0","0","0","72289","","null","","","null","19","","","","","","","","","","","","","","","",""
"","ITI","","html-keyboard-response","138","259245","0.0-1.0-180.0","0","0","72289","","null","","","null","19","","","","","","","","","","","","","","","NaN",""
"","S1","","html-keyboard-response","139","259501","0.0-1.0-182.0","0","0","72289","","null","","","null","20","","","","","","","","","","","","","","","",""
"","ISI","","html-keyboard-response","140","260004","0.0-1.0-183.0","0","0","72289","","null","","","null","20","NaN","","","","","","","","","","","","","","",""
"","S2","","html-keyboard-response","141","260260","0.0-1.0-184.0","0","0","72289","","null","","","null","20","","NaN","","","","","","","","","","","","","",""
"","response","","html-keyboard-response","142","262016","0.0-1.0-185.0-0.0","0","0","72289","","null","","","null","20","","","1","20","training","adjacent","ED","5","4","N.jpg","P.jpg","NaN","0","0","",""
"","too_slow_prompt","","html-keyboard-response","143","263023","0.0-1.0-187.0-0.0","1","0","72289","","null","","","null","","","","","","","","","","","","","","","","",""
"","time_out","","html-keyboard-response","144","265030","0.0-1.0-188.0-0.0","0","0","72289","","null","","","null","20","","","","","","","","","","","","","","","",""
"","ITI","","html-keyboard-response","145","266040","0.0-1.0-189.0","0","0","72289","","null","","","null","20","","","","","","","","","","","","","","","NaN",""
"","S1","","html-keyboard-response","146","266296","0.0-1.0-191.0","0","0","72289","","null","","","null","21","","","","","","","","","","","","","","","",""
"","ISI","","html-keyboard-response","147","266801","0.0-1.0-192.0","0","0","72289","","null","","","null","21","NaN","","","","","","","","","","","","","","",""
"","S2","","html-keyboard-response","148","267057","0.0-1.0-193.0","0","0","72289","","null","","","null","21","","NaN","","","","","","","","","","","","","",""
"","response","","html-keyboard-response","149","268815","0.0-1.0-194.0-0.0","0","0","72289","","null","","","null","21","","","1","21","training","adjacent","BC","2","3","R.jpg","M.jpg","NaN","1","0","",""
"","too_slow_prompt","","html-keyboard-response","150","269823","0.0-1.0-196.0-0.0","1","0","72289","","null","","","null","","","","","","","","","","","","","","","","",""
"","time_out","","html-keyboard-response","151","271829","0.0-1.0-197.0-0.0","0","0","72289","","null","","","null","21","","","","","","","","","","","","","","","",""
"","ITI","","html-keyboard-response","152","272833","0.0-1.0-198.0","0","0","72289","","null","","","null","21","","","","","","","","","","","","","","","NaN",""
"","S1","","html-keyboard-response","153","273090","0.0-1.0-200.0","0","0","72289","","null","","","null","22","","","","","","","","","","","","","","","",""
"","ISI","","html-keyboard-response","154","273596","0.0-1.0-201.0","0","0","72289","","null","","","null","22","NaN","","","","","","","","","","","","","","",""
"","S2","","html-keyboard-response","155","273854","0.0-1.0-202.0","0","0","72289","","null","","","null","22","","NaN","","","","","","","","","","","","","",""
"","response","","html-keyboard-response","156","275613","0.0-1.0-203.0-0.0","0","0","72289","","null","","","null","22","","","1","22","training","adjacent","DE","4","5","P.jpg","N.jpg","NaN","1","0","",""
"","too_slow_prompt","","html-keyboard-response","157","276620","0.0-1.0-205.0-0.0","1","0","72289","","null","","","null","","","","","","","","","","","","","","","","",""
"","time_out","","html-keyboard-response","158","278629","0.0-1.0-206.0-0.0","0","0","72289","","null","","","null","22","","","","","","","","","","","","","","","",""
"","ITI","","html-keyboard-response","159","279634","0.0-1.0-207.0","0","0","72289","","null","","","null","22","","","","","","","","","","","","","","","NaN",""
"","S1","","html-keyboard-response","160","279891","0.0-1.0-209.0","0","0","72289","","null","","","null","23","","","","","","","","","","","","","","","",""
"","ISI","","html-keyboard-response","161","280396","0.0-1.0-210.0","0","0","72289","","null","","","null","23","NaN","","","","","","","","","","","","","","",""
"","S2","","html-keyboard-response","162","280651","0.0-1.0-211.0","0","0","72289","","null","","","null","23","","NaN","","","","","","","","","","","","","",""
"","response","","html-keyboard-response","163","282409","0.0-1.0-212.0-0.0","0","0","72289","","null","","","null","23","","","1","23","training","adjacent","AB","1","2","Q.jpg","R.jpg","NaN","1","0","",""
"","too_slow_prompt","","html-keyboard-response","164","283416","0.0-1.0-214.0-0.0","1","0","72289","","null","","","null","","","","","","","","","","","","","","","","",""
"","time_out","","html-keyboard-response","165","285430","0.0-1.0-215.0-0.0","0","0","72289","","null","","","null","23","","","","","","","","","","","","","","","",""
"","ITI","","html-keyboard-response","166","286435","0.0-1.0-216.0","0","0","72289","","959","","","75","23","","","","","","","","","","","","","","","k",""
"","S1","","html-keyboard-response","167","286692","0.0-1.0-218.0","0","0","72289","","null","","","null","24","","","","","","","","","","","","","","","",""
"","ISI","","html-keyboard-response","168","287198","0.0-1.0-219.0","0","0","72289","","253","","","75","24","k","","","","","","","","","","","","","","",""
"","S2","","html-keyboard-response","169","287241","0.0-1.0-220.0","0","0","72289","","35","","","68","24","","d","1","24","training","adjacent","GF","7","6","L.jpg","O.jpg","0","0","1","",""
"","feedback","","html-keyboard-response","170","288256","0.0-1.0-222.0-0.0","0","0","72289","","null","","","null","24","","","","","","","","","","","","","","","",""
"","ITI","","html-keyboard-response","171","289260","0.0-1.0-225.0","0","0","72289","","299","","","75","24","","","","","","","","","","","","","","","k",""
"","S1","","html-keyboard-response","172","289513","0.0-1.0-227.0","0","0","72289","","null","","","null","25","","","","","","","","","","","","","","","",""
"","ISI","","html-keyboard-response","173","290019","0.0-1.0-228.0","0","0","72289","","421","","","68","25","d","","","","","","","","","","","","","","",""
"","S2","","html-keyboard-response","174","290274","0.0-1.0-229.0","0","0","72289","","null","","","null","25","","NaN","","","","","","","","","","","","","",""
"","response","","html-keyboard-response","175","290400","0.0-1.0-230.0-0.0","0","0","72289","","120","","","75","25","","","1","25","training","adjacent","CD","3","4","M.jpg","P.jpg","1","1","1","",""
"","feedback","","html-keyboard-response","176","291408","0.0-1.0-231.0-0.0","0","0","72289","","null","","","null","25","","","","","","","","","","","","","","","",""
"","ITI","","html-keyboard-response","177","292414","0.0-1.0-234.0","0","0","72289","","16","","","68","25","","","","","","","","","","","","","","","d",""
"","S1","","html-keyboard-response","178","292671","0.0-1.0-236.0","0","0","72289","","null","","","null","26","","","","","","","","","","","","","","","",""
"","ISI","","html-keyboard-response","179","293179","0.0-1.0-237.0","0","0","72289","","274","","","68","26","d","","","","","","","","","","","","","","",""
"","S2","","html-keyboard-response","180","293380","0.0-1.0-238.0","0","0","72289","","197","","","68","26","","d","1","26","training","adjacent","EF","5","6","N.jpg","O.jpg","0","1","0","",""
"","feedback","","html-keyboard-response","181","294385","0.0-1.0-240.0-0.0","0","0","72289","","null","","","null","26","","","","","","","","","","","","","","","",""
"","time_out","","html-keyboard-response","182","296389","0.0-1.0-242.0-0.0","0","0","72289","","null","","","null","26","","","","","","","","","","","","","","","",""
"","ITI","","html-keyboard-response","183","297394","0.0-1.0-243.0","0","0","72289","","156","","","68","26","","","","","","","","","","","","","","","d",""
"","S1","","html-keyboard-response","184","297649","0.0-1.0-245.0","0","0","72289","","null","","","null","27","","","","","","","","","","","","","","","",""
"","ISI","","html-keyboard-response","185","298160","0.0-1.0-246.0","0","0","72289","","378","","","75","27","k","","","","","","","","","","","","","","",""
"","S2","","html-keyboard-response","186","298350","0.0-1.0-247.0","0","0","72289","","174","","","75","27","","k","1","27","training","adjacent","CD","3","4","M.jpg","P.jpg","1","1","1","",""
"","feedback","","html-keyboard-response","187","299356","0.0-1.0-249.0-0.0","0","0","72289","","null","","","null","27","","","","","","","","","","","","","","","",""
"","ITI","","html-keyboard-response","188","300361","0.0-1.0-252.0","0","0","72289","","140","","","75","27","","","","","","","","","","","","","","","k",""
"","S1","","html-keyboard-response","189","300617","0.0-1.0-254.0","0","0","72289","","null","","","null","28","","","","","","","","","","","","","","","",""
"","ISI","","html-keyboard-response","190","301122","0.0-1.0-255.0","0","0","72289","","175","","","75","28","k","","","","","","","","","","","","","","",""
"","S2","","html-keyboard-response","191","301275","0.0-1.0-256.0","0","0","72289","","143","","","75","28","","k","1","28","training","adjacent","DC","4","3","P.jpg","M.jpg","1","0","0","",""
"","feedback","","html-keyboard-response","192","302287","0.0-1.0-258.0-0.0","0","0","72289","","null","","","null","28","","","","","","","","","","","","","","","",""
"","time_out","","html-keyboard-response","193","304295","0.0-1.0-260.0-0.0","0","0","72289","","null","","","null","28","","","","","","","","","","","","","","","",""
"","ITI","","html-keyboard-response","194","305300","0.0-1.0-261.0","0","0","72289","","149","","","68","28","","","","","","","","","","","","","","","d",""
"","S1","","html-keyboard-response","195","305556","0.0-1.0-263.0","0","0","72289","","null","","","null","29","","","","","","","","","","","","","","","",""
"","ISI","","html-keyboard-response","196","306060","0.0-1.0-264.0","0","0","72289","","60","","","68","29","d","","","","","","","","","","","","","","",""
"","S2","","html-keyboard-response","197","306314","0.0-1.0-265.0","0","0","72289","","null","","","null","29","","NaN","","","","","","","","","","","","","",""
"","response","","html-keyboard-response","198","306520","0.0-1.0-266.0-0.0","0","0","72289","","201","","","75","29","","","1","29","training","adjacent","FE","6","5","O.jpg","N.jpg","1","0","0","",""
"","feedback","","html-keyboard-response","199","307528","0.0-1.0-267.0-0.0","0","0","72289","","null","","","null","29","","","","","","","","","","","","","","","",""
"","time_out","","html-keyboard-response","200","309537","0.0-1.0-269.0-0.0","0","0","72289","","null","","","null","29","","","","","","","","","","","","","","","",""
"","ITI","","html-keyboard-response","201","310546","0.0-1.0-270.0","0","0","72289","","308","","","75","29","","","","","","","","","","","","","","","k",""
"","S1","","html-keyboard-response","202","310803","0.0-1.0-272.0","0","0","72289","","null","","","null","30","","","","","","","","","","","","","","","",""
"","ISI","","html-keyboard-response","203","311315","0.0-1.0-273.0","0","0","72289","","72","","","68","30","d","","","","","","","","","","","","","","",""
"","S2","","html-keyboard-response","204","311530","0.0-1.0-274.0","0","0","72289","","210","","","68","30","","d","1","30","training","adjacent","EF","5","6","N.jpg","O.jpg","0","1","0","",""
"","feedback","","html-keyboard-response","205","312536","0.0-1.0-276.0-0.0","0","0","72289","","null","","","null","30","","","","","","","","","","","","","","","",""
"","time_out","","html-keyboard-response","206","314539","0.0-1.0-278.0-0.0","0","0","72289","","null","","","null","30","","","","","","","","","","","","","","","",""
"","ITI","","html-keyboard-response","207","315545","0.0-1.0-279.0","0","0","72289","","398","","","68","30","","","","","","","","","","","","","","","d",""
"","S1","","html-keyboard-response","208","315800","0.0-1.0-281.0","0","0","72289","","null","","","null","31","","","","","","","","","","","","","","","",""
"","ISI","","html-keyboard-response","209","316308","0.0-1.0-282.0","0","0","72289","","363","","","68","31","d","","","","","","","","","","","","","","",""
"","S2","","html-keyboard-response","210","316562","0.0-1.0-283.0","0","0","72289","","null","","","null","31","","NaN","","","","","","","","","","","","","",""
"","response","","html-keyboard-response","211","316609","0.0-1.0-284.0-0.0","0","0","72289","","34","","","68","31","","","1","31","training","adjacent","DE","4","5","P.jpg","N.jpg","0","1","0","",""
"","feedback","","html-keyboard-response","212","317617","0.0-1.0-285.0-0.0","0","0","72289","","null","","","null","31","","","","","","","","","","","","","","","",""
"","time_out","","html-keyboard-response","213","319626","0.0-1.0-287.0-0.0","0","0","72289","","null","","","null","31","","","","","","","","","","","","","","","",""
"","ITI","","html-keyboard-response","214","320635","0.0-1.0-288.0","0","0","72289","","286","","","68","31","","","","","","","","","","","","","","","d",""
"","S1","","html-keyboard-response","215","320890","0.0-1.0-290.0","0","0","72289","","null","","","null","32","","","","","","","","","","","","","","","",""
"","ISI","","html-keyboard-response","216","321397","0.0-1.0-291.0","0","0","72289","","31","","","75","32","k","","","","","","","","","","","","","","",""
"","S2","","html-keyboard-response","217","321654","0.0-1.0-292.0","0","0","72289","","null","","","null","32","","NaN","","","","","","","","","","","","","",""
"","response","","html-keyboard-response","218","321866","0.0-1.0-293.0-0.0","0","0","72289","","208","","","68","32","","","1","32","training","adjacent","BC","2","3","R.jpg","M.jpg","0","1","0","",""
"","feedback","","html-keyboard-response","219","322872","0.0-1.0-294.0-0.0","0","0","72289","","null","","","null","32","","","","","","","","","","","","","","","",""
"","time_out","","html-keyboard-response","220","324877","0.0-1.0-296.0-0.0","0","0","72289","","null","","","null","32","","","","","","","","","","","","","","","",""
"","ITI","","html-keyboard-response","221","325886","0.0-1.0-297.0","0","0","72289","","27","","","68","32","","","","","","","","","","","","","","","d",""
"","S1","","html-keyboard-response","222","326141","0.0-1.0-299.0","0","0","72289","","null","","","null","33","","","","","","","","","","","","","","","",""
"","ISI","","html-keyboard-response","223","326647","0.0-1.0-300.0","0","0","72289","","142","","","75","33","k","","","","","","","","","","","","","","",""
"","S2","","html-keyboard-response","224","326902","0.0-1.0-301.0","0","0","72289","","null","","","null","33","","NaN","","","","","","","","","","","","","",""
"","response","","html-keyboard-response","225","326915","0.0-1.0-302.0-0.0","0","0","72289","","9","","","68","33","","","1","33","training","adjacent","ED","5","4","N.jpg","P.jpg","0","0","1","",""
"","feedback","","html-keyboard-response","226","327921","0.0-1.0-303.0-0.0","0","0","72289","","null","","","null","33","","","","","","","","","","","","","","","",""
"","ITI","","html-keyboard-response","227","328933","0.0-1.0-306.0","0","0","72289","","14","","","75","33","","","","","","","","","","","","","","","k",""
"","S1","","html-keyboard-response","228","329190","0.0-1.0-308.0","0","0","72289","","null","","","null","34","","","","","","","","","","","","","","","",""
"","ISI","","html-keyboard-response","229","329706","0.0-1.0-309.0","0","0","72289","","288","","","75","34","k","","","","","","","","","","","","","","",""
"","S2","","html-keyboard-response","230","329897","0.0-1.0-310.0","0","0","72289","","182","","","68","34","","d","1","34","training","adjacent","ED","5","4","N.jpg","P.jpg","0","0","1","",""
"","feedback","","html-keyboard-response","231","330904","0.0-1.0-312.0-0.0","0","0","72289","","null","","","null","34","","","","","","","","","","","","","","","",""
"","ITI","","html-keyboard-response","232","331910","0.0-1.0-315.0","0","0","72289","","89","","","75","34","","","","","","","","","","","","","","","k",""
"","S1","","html-keyboard-response","233","332165","0.0-1.0-317.0","0","0","72289","","null","","","null","35","","","","","","","","","","","","","","","",""
"","ISI","","html-keyboard-response","234","332669","0.0-1.0-318.0","0","0","72289","","358","","","68","35","d","","","","","","","","","","","","","","",""
"","S2","","html-keyboard-response","235","332929","0.0-1.0-319.0","0","0","72289","","null","","","null","35","","NaN","","","","","","","","","","","","","",""
"","response","","html-keyboard-response","236","333369","0.0-1.0-320.0-0.0","0","0","72289","","432","","","68","35","","","1","35","training","adjacent","CB","3","2","M.jpg","R.jpg","0","0","1","",""
"","feedback","","html-keyboard-response","237","334374","0.0-1.0-321.0-0.0","0","0","72289","","null","","","null","35","","","","","","","","","","","","","","","",""
"","ITI","","html-keyboard-response","238","335379","0.0-1.0-324.0","0","0","72289","","663","","","75","35","","","","","","","","","","","","","","","k",""
"","S1","","html-keyboard-response","239","335633","0.0-1.0-326.0","0","0","72289","","null","","","null","36","","","","","","","","","","","","","","","",""
"","ISI","","html-keyboard-response","240","336137","0.0-1.0-327.0","0","0","72289","","302","","","75","36","k","","","","","","","","","","","","","","",""
"","S2","","html-keyboard-response","241","336391","0.0-1.0-328.0","0","0","72289","","null","","","null","36","","NaN","","","","","","","","","","","","","",""
"","response","","html-keyboard-response","242","336681","0.0-1.0-329.0-0.0","0","0","72289","","285","","","68","36","","","1","36","training","adjacent","BC","2","3","R.jpg","M.jpg","0","1","0","",""
"","feedback","","html-keyboard-response","243","337690","0.0-1.0-330.0-0.0","0","0","72289","","null","","","null","36","","","","","","","","","","","","","","","",""
"","time_out","","html-keyboard-response","244","339696","0.0-1.0-332.0-0.0","0","0","72289","","null","","","null","36","","","","","","","","","","","","","","","",""
"","ITI","","html-keyboard-response","245","340708","0.0-1.0-333.0","0","0","72289","","379","","","75","36","","","","","","","","","","","","","","","k",""
"","S1","","html-keyboard-response","246","340963","0.0-1.0-335.0","0","0","72289","","null","","","null","37","","","","","","","","","","","","","","","",""
"","ISI","","html-keyboard-response","247","341468","0.0-1.0-336.0","0","0","72289","","449","","","75","37","k","","","","","","","","","","","","","","",""
"","S2","","html-keyboard-response","248","341756","0.0-1.0-337.0","0","0","72289","","null","","","null","37","","NaN","","","","","","","","","","","","","",""
"","response","","html-keyboard-response","249","342381","0.0-1.0-338.0-0.0","0","0","72289","","619","","","75","37","","","1","37","training","adjacent","DC","4","3","P.jpg","M.jpg","1","0","0","",""
"","feedback","","html-keyboard-response","250","343385","0.0-1.0-339.0-0.0","0","0","72289","","null","","","null","37","","","","","","","","","","","","","","","",""
"","time_out","","html-keyboard-response","251","345394","0.0-1.0-341.0-0.0","0","0","72289","","null","","","null","37","","","","","","","","","","","","","","","",""
"","ITI","","html-keyboard-response","252","346401","0.0-1.0-342.0","0","0","72289","","423","","","68","37","","","","","","","","","","","","","","","d",""
"","S1","","html-keyboard-response","253","346656","0.0-1.0-344.0","0","0","72289","","null","","","null","38","","","","","","","","","","","","","","","",""
"","ISI","","html-keyboard-response","254","347165","0.0-1.0-345.0","0","0","72289","","358","","","75","38","k","","","","","","","","","","","","","","",""
"","S2","","html-keyboard-response","255","347426","0.0-1.0-346.0","0","0","72289","","null","","","null","38","","NaN","","","","","","","","","","","","","",""
"","response","","html-keyboard-response","256","347816","0.0-1.0-347.0-0.0","0","0","72289","","386","","","75","38","","","1","38","training","adjacent","FG","6","7","O.jpg","L.jpg","1","1","1","",""
"","feedback","","html-keyboard-response","257","348822","0.0-1.0-348.0-0.0","0","0","72289","","null","","","null","38","","","","","","","","","","","","","","","",""
"","ITI","","html-keyboard-response","258","349829","0.0-1.0-351.0","0","0","72289","","584","","","75","38","","","","","","","","","","","","","","","k",""
"","S1","","html-keyboard-response","259","350086","0.0-1.0-353.0","0","0","72289","","null","","","null","39","","","","","","","","","","","","","","","",""
"","ISI","","html-keyboard-response","260","350596","0.0-1.0-354.0","0","0","72289","","358","","","75","39","k","","","","","","","","","","","","","","",""
"","S2","","html-keyboard-response","261","350853","0.0-1.0-355.0","0","0","72289","","null","","","null","39","","NaN","","","","","","","","","","","","","",""
"","response","","html-keyboard-response","262","350877","0.0-1.0-356.0-0.0","0","0","72289","","21","","","68","39","","","1","39","training","adjacent","FG","6","7","O.jpg","L.jpg","0","1","0","",""
"","feedback","","html-keyboard-response","263","351886","0.0-1.0-357.0-0.0","0","0","72289","","null","","","null","39","","","","","","","","","","","","","","","",""
"","time_out","","html-keyboard-response","264","353892","0.0-1.0-359.0-0.0","0","0","72289","","null","","","null","39","","","","","","","","","","","","","","","",""
"","ITI","","html-keyboard-response","265","354896","0.0-1.0-360.0","0","0","72289","","404","","","68","39","","","","","","","","","","","","","","","d",""
"","S1","","html-keyboard-response","266","355151","0.0-1.0-362.0","0","0","72289","","null","","","null","40","","","","","","","","","","","","","","","",""
"","ISI","","html-keyboard-response","267","355657","0.0-1.0-363.0","0","0","72289","","366","","","75","40","k","","","","","","","","","","","","","","",""
"","S2","","html-keyboard-response","268","355912","0.0-1.0-364.0","0","0","72289","","null","","","null","40","","NaN","","","","","","","","","","","","","",""
"","response","","html-keyboard-response","269","355988","0.0-1.0-365.0-0.0","0","0","72289","","72","","","68","40","","","1","40","training","adjacent","AB","1","2","Q.jpg","R.jpg","0","1","0","",""
"","feedback","","html-keyboard-response","270","356993","0.0-1.0-366.0-0.0","0","0","72289","","null","","","null","40","","","","","","","","","","","","","","","",""
"","time_out","","html-keyboard-response","271","359001","0.0-1.0-368.0-0.0","0","0","72289","","null","","","null","40","","","","","","","","","","","","","","","",""
"","ITI","","html-keyboard-response","272","360006","0.0-1.0-369.0","0","0","72289","","303","","","75","40","","","","","","","","","","","","","","","k",""
"","S1","","html-keyboard-response","273","360262","0.0-1.0-371.0","0","0","72289","","null","","","null","41","","","","","","","","","","","","","","","",""
"","ISI","","html-keyboard-response","274","360767","0.0-1.0-372.0","0","0","72289","","157","","","68","41","d","","","","","","","","","","","","","","",""
"","S2","","html-keyboard-response","275","360978","0.0-1.0-373.0","0","0","72289","","205","","","75","41","","k","1","41","training","adjacent","BA","2","1","R.jpg","Q.jpg","1","0","0","",""
"","feedback","","html-keyboard-response","276","361988","0.0-1.0-375.0-0.0","0","0","72289","","null","","","null","41","","","","","","","","","","","","","","","",""
"","time_out","","html-keyboard-response","277","363995","0.0-1.0-377.0-0.0","0","0","72289","","null","","","null","41","","","","","","","","","","","","","","","",""
"","ITI","","html-keyboard-response","278","365000","0.0-1.0-378.0","0","0","72289","","192","","","68","41","","","","","","","","","","","","","","","d",""
"","S1","","html-keyboard-response","279","365259","0.0-1.0-380.0","0","0","72289","","null","","","null","42","","","","","","","","","","","","","","","",""
"","ISI","","html-keyboard-response","280","365762","0.0-1.0-381.0","0","0","72289","","null","","","null","42","NaN","","","","","","","","","","","","","","",""
"","S2","","html-keyboard-response","281","365765","0.0-1.0-382.0","0","0","72289","","0","","","75","42","","k","1","42","training","adjacent","FE","6","5","O.jpg","N.jpg","1","0","0","",""
"","feedback","","html-keyboard-response","282","366772","0.0-1.0-384.0-0.0","0","0","72289","","null","","","null","42","","","","","","","","","","","","","","","",""
"","time_out","","html-keyboard-response","283","368777","0.0-1.0-386.0-0.0","0","0","72289","","null","","","null","42","","","","","","","","","","","","","","","",""
"","ITI","","html-keyboard-response","284","369785","0.0-1.0-387.0","0","0","72289","","0","","","75","42","","","","","","","","","","","","","","","k",""
"","S1","","html-keyboard-response","285","370044","0.0-1.0-389.0","0","0","72289","","null","","","null","43","","","","","","","","","","","","","","","",""
"","ISI","","html-keyboard-response","286","370549","0.0-1.0-390.0","0","0","72289","","417","","","68","43","d","","","","","","","","","","","","","","",""
"","S2","","html-keyboard-response","287","370805","0.0-1.0-391.0","0","0","72289","","null","","","null","43","","NaN","","","","","","","","","","","","","",""
"","response","","html-keyboard-response","288","371050","0.0-1.0-392.0-0.0","0","0","72289","","240","","","75","43","","","1","43","training","adjacent","FG","6","7","O.jpg","L.jpg","1","1","1","",""
"","feedback","","html-keyboard-response","289","372061","0.0-1.0-393.0-0.0","0","0","72289","","null","","","null","43","","","","","","","","","","","","","","","",""
"","ITI","","html-keyboard-response","290","373067","0.0-1.0-396.0","0","0","72289","","276","","","75","43","","","","","","","","","","","","","","","k",""
"","S1","","html-keyboard-response","291","373323","0.0-1.0-398.0","0","0","72289","","null","","","null","44","","","","","","","","","","","","","","","",""
"","ISI","","html-keyboard-response","292","373829","0.0-1.0-399.0","0","0","72289","","381","","","68","44","d","","","","","","","","","","","","","","",""
"","S2","","html-keyboard-response","293","374085","0.0-1.0-400.0","0","0","72289","","null","","","null","44","","NaN","","","","","","","","","","","","","",""
"","response","","html-keyboard-response","294","374238","0.0-1.0-401.0-0.0","0","0","72289","","150","","","75","44","","","1","44","training","adjacent","EF","5","6","N.jpg","O.jpg","1","1","1","",""
"","feedback","","html-keyboard-response","295","375243","0.0-1.0-402.0-0.0","0","0","72289","","null","","","null","44","","","","","","","","","","","","","","","",""
"","ITI","","html-keyboard-response","296","376248","0.0-1.0-405.0","0","0","72289","","162","","","68","44","","","","","","","","","","","","","","","d",""
"","S1","","html-keyboard-response","297","376504","0.0-1.0-407.0","0","0","72289","","null","","","null","45","","","","","","","","","","","","","","","",""
"","ISI","","html-keyboard-response","298","377007","0.0-1.0-408.0","0","0","72289","","351","","","68","45","d","","","","","","","","","","","","","","",""
"","S2","","html-keyboard-response","299","377210","0.0-1.0-409.0","0","0","72289","","195","","","75","45","","k","1","45","training","adjacent","AB","1","2","Q.jpg","R.jpg","1","1","1","",""
"","feedback","","html-keyboard-response","300","378216","0.0-1.0-411.0-0.0","0","0","72289","","null","","","null","45","","","","","","","","","","","","","","","",""
"","ITI","","html-keyboard-response","301","379224","0.0-1.0-414.0","0","0","72289","","31","","","75","45","","","","","","","","","","","","","","","k",""
"","S1","","html-keyboard-response","302","379479","0.0-1.0-416.0","0","0","72289","","null","","","null","46","","","","","","","","","","","","","","","",""
"","ISI","","html-keyboard-response","303","379984","0.0-1.0-417.0","0","0","72289","","267","","","68","46","d","","","","","","","","","","","","","","",""
"","S2","","html-keyboard-response","304","380207","0.0-1.0-418.0","0","0","72289","","221","","","75","46","","k","1","46","training","adjacent","CD","3","4","M.jpg","P.jpg","1","1","1","",""
"","feedback","","html-keyboard-response","305","381211","0.0-1.0-420.0-0.0","0","0","72289","","null","","","null","46","","","","","","","","","","","","","","","",""
"","ITI","","html-keyboard-response","306","382230","0.0-1.0-423.0","0","0","72289","","474","","","75","46","","","","","","","","","","","","","","","k",""
"","S1","","html-keyboard-response","307","382490","0.0-1.0-425.0","0","0","72289","","null","","","null","47","","","","","","","","","","","","","","","",""
"","ISI","","html-keyboard-response","308","382995","0.0-1.0-426.0","0","0","72289","","448","","","68","47","d","","","","","","","","","","","","","","",""
"","S2","","html-keyboard-response","309","383249","0.0-1.0-427.0","0","0","72289","","null","","","null","47","","NaN","","","","","","","","","","","","","",""
"","response","","html-keyboard-response","310","383613","0.0-1.0-428.0-0.0","0","0","72289","","358","","","75","47","","","1","47","training","adjacent","GF","7","6","L.jpg","O.jpg","1","0","0","",""
"","feedback","","html-keyboard-response","311","384621","0.0-1.0-429.0-0.0","0","0","72289","","null","","","null","47","","","","","","","","","","","","","","","",""
"","time_out","","html-keyboard-response","312","386630","0.0-1.0-431.0-0.0","0","0","72289","","null","","","null","47","","","","","","","","","","","","","","","",""
"","ITI","","html-keyboard-response","313","387643","0.0-1.0-432.0","0","0","72289","","null","","","null","47","","","","","","","","","","","","","","","NaN",""
"","block_over","","html-keyboard-response","314","395594","0.0-1.0-433.0-0.0","0","0","72289","","7941","","","32","47","","","","","","","","","","","","","","","",""
"","S1","","html-keyboard-response","315","395852","0.0-1.0-434.0","0","0","72289","","null","","","null","48","","","","","","","","","","","","","","","",""
"","ISI","","html-keyboard-response","316","396360","0.0-1.0-435.0","0","0","72289","","null","","","null","48","NaN","","","","","","","","","","","","","","",""
"","S2","","html-keyboard-response","317","396501","0.0-1.0-436.0","0","0","72289","","138","","","75","48","","k","2","48","training","adjacent","GF","7","6","L.jpg","O.jpg","1","0","0","",""
"","feedback","","html-keyboard-response","318","397504","0.0-1.0-438.0-0.0","0","0","72289","","null","","","null","48","","","","","","","","","","","","","","","",""
"","time_out","","html-keyboard-response","319","399505","0.0-1.0-440.0-0.0","0","0","72289","","null","","","null","48","","","","","","","","","","","","","","","",""
"","ITI","","html-keyboard-response","320","400510","0.0-1.0-441.0","0","0","72289","","19","","","75","48","","","","","","","","","","","","","","","k",""
"","S1","","html-keyboard-response","321","400767","0.0-1.0-443.0","0","0","72289","","null","","","null","49","","","","","","","","","","","","","","","",""
"","ISI","","html-keyboard-response","322","401273","0.0-1.0-444.0","0","0","72289","","null","","","null","49","NaN","","","","","","","","","","","","","","",""
"","S2","","html-keyboard-response","323","401369","0.0-1.0-445.0","0","0","72289","","92","","","68","49","","d","2","49","training","adjacent","BC","2","3","R.jpg","M.jpg","0","1","0","",""
"","feedback","","html-keyboard-response","324","402379","0.0-1.0-447.0-0.0","0","0","72289","","null","","","null","49","","","","","","","","","","","","","","","",""
"","time_out","","html-keyboard-response","325","404384","0.0-1.0-449.0-0.0","0","0","72289","","null","","","null","49","","","","","","","","","","","","","","","",""
"","ITI","","html-keyboard-response","326","405393","0.0-1.0-450.0","0","0","72289","","193","","","68","49","","","","","","","","","","","","","","","d",""
"","S1","","html-keyboard-response","327","405651","0.0-1.0-452.0","0","0","72289","","null","","","null","50","","","","","","","","","","","","","","","",""
"","ISI","","html-keyboard-response","328","406157","0.0-1.0-453.0","0","0","72289","","285","","","68","50","d","","","","","","","","","","","","","","",""
"","S2","","html-keyboard-response","329","406414","0.0-1.0-454.0","0","0","72289","","null","","","null","50","","NaN","","","","","","","","","","","","","",""
"","response","","html-keyboard-response","330","406585","0.0-1.0-455.0-0.0","0","0","72289","","165","","","75","50","","","2","50","training","adjacent","AB","1","2","Q.jpg","R.jpg","1","1","1","",""
"","feedback","","html-keyboard-response","331","407593","0.0-1.0-456.0-0.0","0","0","72289","","null","","","null","50","","","","","","","","","","","","","","","",""
"","ITI","","html-keyboard-response","332","408598","0.0-1.0-459.0","0","0","72289","","401","","","68","50","","","","","","","","","","","","","","","d",""
"","S1","","html-keyboard-response","333","408855","0.0-1.0-461.0","0","0","72289","","null","","","null","51","","","","","","","","","","","","","","","",""
"","ISI","","html-keyboard-response","334","409360","0.0-1.0-462.0","0","0","72289","","320","","","68","51","d","","","","","","","","","","","","","","",""
"","S2","","html-keyboard-response","335","409590","0.0-1.0-463.0","0","0","72289","","225","","","68","51","","d","2","51","training","adjacent","DC","4","3","P.jpg","M.jpg","0","0","1","",""
"","feedback","","html-keyboard-response","336","410598","0.0-1.0-465.0-0.0","0","0","72289","","null","","","null","51","","","","","","","","","","","","","","","",""
"","ITI","","html-keyboard-response","337","411604","0.0-1.0-468.0","0","0","72289","","58","","","75","51","","","","","","","","","","","","","","","k",""
"","S1","","html-keyboard-response","338","411858","0.0-1.0-470.0","0","0","72289","","null","","","null","52","","","","","","","","","","","","","","","",""
"","ISI","","html-keyboard-response","339","412361","0.0-1.0-471.0","0","0","72289","","16","","","75","52","k","","","","","","","","","","","","","","",""
"","S2","","html-keyboard-response","340","412616","0.0-1.0-472.0","0","0","72289","","null","","","null","52","","NaN","","","","","","","","","","","","","",""
"","response","","html-keyboard-response","341","412692","0.0-1.0-473.0-0.0","0","0","72289","","70","","","75","52","","","2","52","training","adjacent","CD","3","4","M.jpg","P.jpg","1","1","1","",""
"","feedback","","html-keyboard-response","342","413701","0.0-1.0-474.0-0.0","0","0","72289","","null","","","null","52","","","","","","","","","","","","","","","",""
"","ITI","","html-keyboard-response","343","414710","0.0-1.0-477.0","0","0","72289","","44","","","68","52","","","","","","","","","","","","","","","d",""
"","S1","","html-keyboard-response","344","414967","0.0-1.0-479.0","0","0","72289","","null","","","null","53","","","","","","","","","","","","","","","",""
"","ISI","","html-keyboard-response","345","415472","0.0-1.0-480.0","0","0","72289","","128","","","68","53","d","","","","","","","","","","","","","","",""
"","S2","","html-keyboard-response","346","415623","0.0-1.0-481.0","0","0","72289","","144","","","68","53","","d","2","53","training","adjacent","BA","2","1","R.jpg","Q.jpg","0","0","1","",""
"","feedback","","html-keyboard-response","347","416631","0.0-1.0-483.0-0.0","0","0","72289","","null","","","null","53","","","","","","","","","","","","","","","",""
"","ITI","","html-keyboard-response","348","417641","0.0-1.0-486.0","0","0","72289","","23","","","75","53","","","","","","","","","","","","","","","k",""
"","S1","","html-keyboard-response","349","417897","0.0-1.0-488.0","0","0","72289","","null","","","null","54","","","","","","","","","","","","","","","",""
"","ISI","","html-keyboard-response","350","418405","0.0-1.0-489.0","0","0","72289","","75","","","75","54","k","","","","","","","","","","","","","","",""
"","S2","","html-keyboard-response","351","418502","0.0-1.0-490.0","0","0","72289","","92","","","75","54","","k","2","54","training","adjacent","DC","4","3","P.jpg","M.jpg","1","0","0","",""
"","feedback","","html-keyboard-response","352","419507","0.0-1.0-492.0-0.0","0","0","72289","","null","","","null","54","","","","","","","","","","","","","","","",""
"","time_out","","html-keyboard-response","353","421513","0.0-1.0-494.0-0.0","0","0","72289","","null","","","null","54","","","","","","","","","","","","","","","",""
"","ITI","","html-keyboard-response","354","422517","0.0-1.0-495.0","0","0","72289","","111","","","75","54","","","","","","","","","","","","","","","k",""
"","S1","","html-keyboard-response","355","422776","0.0-1.0-497.0","0","0","72289","","null","","","null","55","","","","","","","","","","","","","","","",""
"","ISI","","html-keyboard-response","356","423281","0.0-1.0-498.0","0","0","72289","","279","","","75","55","k","","","","","","","","","","","","","","",""
"","S2","","html-keyboard-response","357","423539","0.0-1.0-499.0","0","0","72289","","null","","","null","55","","NaN","","","","","","","","","","","","","",""
"","response","","html-keyboard-response","358","423649","0.0-1.0-500.0-0.0","0","0","72289","","105","","","68","55","","","2","55","training","adjacent","GF","7","6","L.jpg","O.jpg","0","0","1","",""
"","feedback","","html-keyboard-response","359","424656","0.0-1.0-501.0-0.0","0","0","72289","","null","","","null","55","","","","","","","","","","","","","","","",""
"","ITI","","html-keyboard-response","360","425663","0.0-1.0-504.0","0","0","72289","","346","","","75","55","","","","","","","","","","","","","","","k",""
"","S1","","html-keyboard-response","361","425935","0.0-1.0-506.0","0","0","72289","","null","","","null","56","","","","","","","","","","","","","","","",""
"","ISI","","html-keyboard-response","362","426439","0.0-1.0-507.0","0","0","72289","","81","","","75","56","k","","","","","","","","","","","","","","",""
"","S2","","html-keyboard-response","363","426579","0.0-1.0-508.0","0","0","72289","","135","","","75","56","","k","2","56","training","adjacent","CD","3","4","M.jpg","P.jpg","1","1","1","",""
"","feedback","","html-keyboard-response","364","427587","0.0-1.0-510.0-0.0","0","0","72289","","null","","","null","56","","","","","","","","","","","","","","","",""
"","ITI","","html-keyboard-response","365","428593","0.0-1.0-513.0","0","0","72289","","36","","","75","56","","","","","","","","","","","","","","","k",""
"","S1","","html-keyboard-response","366","428848","0.0-1.0-515.0","0","0","72289","","null","","","null","57","","","","","","","","","","","","","","","",""
"","ISI","","html-keyboard-response","367","429351","0.0-1.0-516.0","0","0","72289","","247","","","75","57","k","","","","","","","","","","","","","","",""
"","S2","","html-keyboard-response","368","429430","0.0-1.0-517.0","0","0","72289","","75","","","68","57","","d","2","57","training","adjacent","AB","1","2","Q.jpg","R.jpg","0","1","0","",""
"","feedback","","html-keyboard-response","369","430439","0.0-1.0-519.0-0.0","0","0","72289","","null","","","null","57","","","","","","","","","","","","","","","",""
"","time_out","","html-keyboard-response","370","432448","0.0-1.0-521.0-0.0","0","0","72289","","null","","","null","57","","","","","","","","","","","","","","","",""
"","ITI","","html-keyboard-response","371","433455","0.0-1.0-522.0","0","0","72289","","116","","","68","57","","","","","","","","","","","","","","","d",""
"","S1","","html-keyboard-response","372","433711","0.0-1.0-524.0","0","0","72289","","null","","","null","58","","","","","","","","","","","","","","","",""
"","ISI","","html-keyboard-response","373","434216","0.0-1.0-525.0","0","0","72289","","63","","","68","58","d","","","","","","","","","","","","","","",""
"","S2","","html-keyboard-response","374","434317","0.0-1.0-526.0","0","0","72289","","99","","","68","58","","d","2","58","training","adjacent","DC","4","3","P.jpg","M.jpg","0","0","1","",""
"","feedback","","html-keyboard-response","375","435323","0.0-1.0-528.0-0.0","0","0","72289","","null","","","null","58","","","","","","","","","","","","","","","",""
"","ITI","","html-keyboard-response","376","436330","0.0-1.0-531.0","0","0","72289","","91","","","75","58","","","","","","","","","","","","","","","k",""
"","S1","","html-keyboard-response","377","436586","0.0-1.0-533.0","0","0","72289","","null","","","null","59","","","","","","","","","","","","","","","",""
"","ISI","","html-keyboard-response","378","437092","0.0-1.0-534.0","0","0","72289","","48","","","68","59","d","","","","","","","","","","","","","","",""
"","S2","","html-keyboard-response","379","437217","0.0-1.0-535.0","0","0","72289","","120","","","68","59","","d","2","59","training","adjacent","FG","6","7","O.jpg","L.jpg","0","1","0","",""
"","feedback","","html-keyboard-response","380","438224","0.0-1.0-537.0-0.0","0","0","72289","","null","","","null","59","","","","","","","","","","","","","","","",""
"","time_out","","html-keyboard-response","381","440230","0.0-1.0-539.0-0.0","0","0","72289","","null","","","null","59","","","","","","","","","","","","","","","",""
"","ITI","","html-keyboard-response","382","441235","0.0-1.0-540.0","0","0","72289","","45","","","75","59","","","","","","","","","","","","","","","k",""
"","S1","","html-keyboard-response","383","441488","0.0-1.0-542.0","0","0","72289","","null","","","null","60","","","","","","","","","","","","","","","",""
"","ISI","","html-keyboard-response","384","441993","0.0-1.0-543.0","0","0","72289","","236","","","75","60","k","","","","","","","","","","","","","","",""
"","S2","","html-keyboard-response","385","441997","0.0-1.0-544.0","0","0","72289","","1","","","75","60","","k","2","60","training","adjacent","DC","4","3","P.jpg","M.jpg","1","0","0","",""
"","feedback","","html-keyboard-response","386","443001","0.0-1.0-546.0-0.0","0","0","72289","","null","","","null","60","","","","","","","","","","","","","","","",""
"","time_out","","html-keyboard-response","387","445007","0.0-1.0-548.0-0.0","0","0","72289","","null","","","null","60","","","","","","","","","","","","","","","",""
"","ITI","","html-keyboard-response","388","446011","0.0-1.0-549.0","0","0","72289","","14","","","68","60","","","","","","","","","","","","","","","d",""
"","S1","","html-keyboard-response","389","446267","0.0-1.0-551.0","0","0","72289","","null","","","null","61","","","","","","","","","","","","","","","",""
"","ISI","","html-keyboard-response","390","446775","0.0-1.0-552.0","0","0","72289","","7","","","68","61","d","","","","","","","","","","","","","","",""
"","S2","","html-keyboard-response","391","447011","0.0-1.0-553.0","0","0","72289","","228","","","75","61","","k","2","61","training","adjacent","CD","3","4","M.jpg","P.jpg","1","1","1","",""
"","feedback","","html-keyboard-response","392","448017","0.0-1.0-555.0-0.0","0","0","72289","","null","","","null","61","","","","","","","","","","","","","","","",""
"","ITI","","html-keyboard-response","393","449027","0.0-1.0-558.0","0","0","72289","","206","","","75","61","","","","","","","","","","","","","","","k",""
"","S1","","html-keyboard-response","394","449284","0.0-1.0-560.0","0","0","72289","","null","","","null","62","","","","","","","","","","","","","","","",""
"","ISI","","html-keyboard-response","395","449790","0.0-1.0-561.0","0","0","72289","","70","","","68","62","d","","","","","","","","","","","","","","",""
"","S2","","html-keyboard-response","396","449954","0.0-1.0-562.0","0","0","72289","","156","","","75","62","","k","2","62","training","adjacent","EF","5","6","N.jpg","O.jpg","1","1","1","",""
"","feedback","","html-keyboard-response","397","450961","0.0-1.0-564.0-0.0","0","0","72289","","null","","","null","62","","","","","","","","","","","","","","","",""
"","ITI","","html-keyboard-response","398","451967","0.0-1.0-567.0","0","0","72289","","193","","","75","62","","","","","","","","","","","","","","","k",""
"","S1","","html-keyboard-response","399","452222","0.0-1.0-569.0","0","0","72289","","null","","","null","63","","","","","","","","","","","","","","","",""
"","ISI","","html-keyboard-response","400","452727","0.0-1.0-570.0","0","0","72289","","56","","","68","63","d","","","","","","","","","","","","","","",""
"","S2","","html-keyboard-response","401","452970","0.0-1.0-571.0","0","0","72289","","237","","","75","63","","k","2","63","training","adjacent","CB","3","2","M.jpg","R.jpg","1","0","0","",""
"","feedback","","html-keyboard-response","402","453990","0.0-1.0-573.0-0.0","0","0","72289","","null","","","null","63","","","","","","","","","","","","","","","",""
"","time_out","","html-keyboard-response","403","456025","0.0-1.0-575.0-0.0","0","0","72289","","null","","","null","63","","","","","","","","","","","","","","","",""
"","ITI","","html-keyboard-response","404","457030","0.0-1.0-576.0","0","0","72289","","51","","","75","63","","","","","","","","","","","","","","","k",""
"","S1","","html-keyboard-response","405","457285","0.0-1.0-578.0","0","0","72289","","null","","","null","64","","","","","","","","","","","","","","","",""
"","ISI","","html-keyboard-response","406","457797","0.0-1.0-579.0","0","0","72289","","166","","","68","64","d","","","","","","","","","","","","","","",""
"","S2","","html-keyboard-response","407","458041","0.0-1.0-580.0","0","0","72289","","237","","","75","64","","k","2","64","training","adjacent","FG","6","7","O.jpg","L.jpg","1","1","1","",""
"","feedback","","html-keyboard-response","408","459048","0.0-1.0-582.0-0.0","0","0","72289","","null","","","null","64","","","","","","","","","","","","","","","",""
"","ITI","","html-keyboard-response","409","460056","0.0-1.0-585.0","0","0","72289","","27","","","75","64","","","","","","","","","","","","","","","k",""
"","S1","","html-keyboard-response","410","460313","0.0-1.0-587.0","0","0","72289","","null","","","null","65","","","","","","","","","","","","","","","",""
"","ISI","","html-keyboard-response","411","460819","0.0-1.0-588.0","0","0","72289","","9","","","68","65","d","","","","","","","","","","","","","","",""
"","S2","","html-keyboard-response","412","461011","0.0-1.0-589.0","0","0","72289","","187","","","75","65","","k","2","65","training","adjacent","CB","3","2","M.jpg","R.jpg","1","0","0","",""
"","feedback","","html-keyboard-response","413","462019","0.0-1.0-591.0-0.0","0","0","72289","","null","","","null","65","","","","","","","","","","","","","","","",""
"","time_out","","html-keyboard-response","414","464024","0.0-1.0-593.0-0.0","0","0","72289","","null","","","null","65","","","","","","","","","","","","","","","",""
"","ITI","","html-keyboard-response","415","465029","0.0-1.0-594.0","0","0","72289","","963","","","68","65","","","","","","","","","","","","","","","d",""
"","S1","","html-keyboard-response","416","465282","0.0-1.0-596.0","0","0","72289","","null","","","null","66","","","","","","","","","","","","","","","",""
"","ISI","","html-keyboard-response","417","465788","0.0-1.0-597.0","0","0","72289","","202","","","75","66","k","","","","","","","","","","","","","","",""
"","S2","","html-keyboard-response","418","466022","0.0-1.0-598.0","0","0","72289","","228","","","68","66","","d","2","66","training","adjacent","BA","2","1","R.jpg","Q.jpg","0","0","1","",""
"","feedback","","html-keyboard-response","419","467027","0.0-1.0-600.0-0.0","0","0","72289","","null","","","null","66","","","","","","","","","","","","","","","",""
"","ITI","","html-keyboard-response","420","468042","0.0-1.0-603.0","0","0","72289","","308","","","75","66","","","","","","","","","","","","","","","k",""
"","S1","","html-keyboard-response","421","468297","0.0-1.0-605.0","0","0","72289","","null","","","null","67","","","","","","","","","","","","","","","",""
"","ISI","","html-keyboard-response","422","468804","0.0-1.0-606.0","0","0","72289","","229","","","75","67","k","","","","","","","","","","","","","","",""
"","S2","","html-keyboard-response","423","468823","0.0-1.0-607.0","0","0","72289","","15","","","75","67","","k","2","67","training","adjacent","ED","5","4","N.jpg","P.jpg","1","0","0","",""
"","feedback","","html-keyboard-response","424","469831","0.0-1.0-609.0-0.0","0","0","72289","","null","","","null","67","","","","","","","","","","","","","","","",""
"","time_out","","html-keyboard-response","425","471841","0.0-1.0-611.0-0.0","0","0","72289","","null","","","null","67","","","","","","","","","","","","","","","",""
"","ITI","","html-keyboard-response","426","472848","0.0-1.0-612.0","0","0","72289","","624","","","75","67","","","","","","","","","","","","","","","k",""
"","S1","","html-keyboard-response","427","473107","0.0-1.0-614.0","0","0","72289","","null","","","null","68","","","","","","","","","","","","","","","",""
"","ISI","","html-keyboard-response","428","473610","0.0-1.0-615.0","0","0","72289","","220","","","68","68","d","","","","","","","","","","","","","","",""
"","S2","","html-keyboard-response","429","473700","0.0-1.0-616.0","0","0","72289","","85","","","68","68","","d","2","68","training","adjacent","DE","4","5","P.jpg","N.jpg","0","1","0","",""
"","feedback","","html-keyboard-response","430","474716","0.0-1.0-618.0-0.0","0","0","72289","","null","","","null","68","","","","","","","","","","","","","","","",""
"","time_out","","html-keyboard-response","431","476726","0.0-1.0-620.0-0.0","0","0","72289","","null","","","null","68","","","","","","","","","","","","","","","",""
"","ITI","","html-keyboard-response","432","477734","0.0-1.0-621.0","0","0","72289","","117","","","75","68","","","","","","","","","","","","","","","k",""
"","S1","","html-keyboard-response","433","477992","0.0-1.0-623.0","0","0","72289","","null","","","null","69","","","","","","","","","","","","","","","",""
"","ISI","","html-keyboard-response","434","478498","0.0-1.0-624.0","0","0","72289","","null","","","null","69","NaN","","","","","","","","","","","","","","",""
"","S2","","html-keyboard-response","435","478753","0.0-1.0-625.0","0","0","72289","","null","","","null","69","","NaN","","","","","","","","","","","","","",""
"","response","","html-keyboard-response","436","478874","0.0-1.0-626.0-0.0","0","0","72289","","115","","","68","69","","","2","69","training","adjacent","DE","4","5","P.jpg","N.jpg","0","1","0","",""
"","feedback","","html-keyboard-response","437","479882","0.0-1.0-627.0-0.0","0","0","72289","","null","","","null","69","","","","","","","","","","","","","","","",""
"","time_out","","html-keyboard-response","438","481890","0.0-1.0-629.0-0.0","0","0","72289","","null","","","null","69","","","","","","","","","","","","","","","",""
"","ITI","","html-keyboard-response","439","482910","0.0-1.0-630.0","0","0","72289","","571","","","75","69","","","","","","","","","","","","","","","k",""
"","S1","","html-keyboard-response","440","483165","0.0-1.0-632.0","0","0","72289","","null","","","null","70","","","","","","","","","","","","","","","",""
"","ISI","","html-keyboard-response","441","483669","0.0-1.0-633.0","0","0","72289","","149","","","68","70","d","","","","","","","","","","","","","","",""
"","S2","","html-keyboard-response","442","483706","0.0-1.0-634.0","0","0","72289","","34","","","75","70","","k","2","70","training","adjacent","ED","5","4","N.jpg","P.jpg","1","0","0","",""
"","feedback","","html-keyboard-response","443","484720","0.0-1.0-636.0-0.0","0","0","72289","","null","","","null","70","","","","","","","","","","","","","","","",""
"","time_out","","html-keyboard-response","444","486727","0.0-1.0-638.0-0.0","0","0","72289","","null","","","null","70","","","","","","","","","","","","","","","",""
"","ITI","","html-keyboard-response","445","487734","0.0-1.0-639.0","0","0","72289","","37","","","75","70","","","","","","","","","","","","","","","k",""
"","S1","","html-keyboard-response","446","487991","0.0-1.0-641.0","0","0","72289","","null","","","null","71","","","","","","","","","","","","","","","",""
"","ISI","","html-keyboard-response","447","488495","0.0-1.0-642.0","0","0","72289","","319","","","75","71","k","","","","","","","","","","","","","","",""
"","S2","","html-keyboard-response","448","488570","0.0-1.0-643.0","0","0","72289","","68","","","75","71","","k","2","71","training","adjacent","BC","2","3","R.jpg","M.jpg","1","1","1","",""
"","feedback","","html-keyboard-response","449","489574","0.0-1.0-645.0-0.0","0","0","72289","","null","","","null","71","","","","","","","","","","","","","","","",""
"","ITI","","html-keyboard-response","450","490577","0.0-1.0-648.0","0","0","72289","","120","","","75","71","","","","","","","","","","","","","","","k",""
"","S1","","html-keyboard-response","451","490833","0.0-1.0-650.0","0","0","72289","","null","","","null","72","","","","","","","","","","","","","","","",""
"","ISI","","html-keyboard-response","452","491340","0.0-1.0-651.0","0","0","72289","","22","","","75","72","k","","","","","","","","","","","","","","",""
"","S2","","html-keyboard-response","453","491438","0.0-1.0-652.0","0","0","72289","","92","","","68","72","","d","2","72","training","adjacent","AB","1","2","Q.jpg","R.jpg","0","1","0","",""
"","feedback","","html-keyboard-response","454","492446","0.0-1.0-654.0-0.0","0","0","72289","","null","","","null","72","","","","","","","","","","","","","","","",""
"","time_out","","html-keyboard-response","455","494457","0.0-1.0-656.0-0.0","0","0","72289","","null","","","null","72","","","","","","","","","","","","","","","",""
"","ITI","","html-keyboard-response","456","495463","0.0-1.0-657.0","0","0","72289","","218","","","68","72","","","","","","","","","","","","","","","d",""
"","S1","","html-keyboard-response","457","495734","0.0-1.0-659.0","0","0","72289","","null","","","null","73","","","","","","","","","","","","","","","",""
"","ISI","","html-keyboard-response","458","496243","0.0-1.0-660.0","0","0","72289","","31","","","75","73","k","","","","","","","","","","","","","","",""
"","S2","","html-keyboard-response","459","496331","0.0-1.0-661.0","0","0","72289","","81","","","75","73","","k","2","73","training","adjacent","ED","5","4","N.jpg","P.jpg","1","0","0","",""
"","feedback","","html-keyboard-response","460","497336","0.0-1.0-663.0-0.0","0","0","72289","","null","","","null","73","","","","","","","","","","","","","","","",""
"","time_out","","html-keyboard-response","461","499356","0.0-1.0-665.0-0.0","0","0","72289","","null","","","null","73","","","","","","","","","","","","","","","",""
"","ITI","","html-keyboard-response","462","500362","0.0-1.0-666.0","0","0","72289","","60","","","75","73","","","","","","","","","","","","","","","k",""
"","S1","","html-keyboard-response","463","500620","0.0-1.0-668.0","0","0","72289","","null","","","null","74","","","","","","","","","","","","","","","",""
"","ISI","","html-keyboard-response","464","501125","0.0-1.0-669.0","0","0","72289","","65","","","75","74","k","","","","","","","","","","","","","","",""
"","S2","","html-keyboard-response","465","501141","0.0-1.0-670.0","0","0","72289","","10","","","68","74","","d","2","74","training","adjacent","BC","2","3","R.jpg","M.jpg","0","1","0","",""
"","feedback","","html-keyboard-response","466","502148","0.0-1.0-672.0-0.0","0","0","72289","","null","","","null","74","","","","","","","","","","","","","","","",""
"","time_out","","html-keyboard-response","467","504158","0.0-1.0-674.0-0.0","0","0","72289","","null","","","null","74","","","","","","","","","","","","","","","",""
"","ITI","","html-keyboard-response","468","505164","0.0-1.0-675.0","0","0","72289","","57","","","68","74","","","","","","","","","","","","","","","d",""
"","S1","","html-keyboard-response","469","505421","0.0-1.0-677.0","0","0","72289","","null","","","null","75","","","","","","","","","","","","","","","",""
"","ISI","","html-keyboard-response","470","505928","0.0-1.0-678.0","0","0","72289","","173","","","75","75","k","","","","","","","","","","","","","","",""
"","S2","","html-keyboard-response","471","505949","0.0-1.0-679.0","0","0","72289","","15","","","68","75","","d","2","75","training","adjacent","AB","1","2","Q.jpg","R.jpg","0","1","0","",""
"","feedback","","html-keyboard-response","472","506956","0.0-1.0-681.0-0.0","0","0","72289","","null","","","null","75","","","","","","","","","","","","","","","",""
"","time_out","","html-keyboard-response","473","508966","0.0-1.0-683.0-0.0","0","0","72289","","null","","","null","75","","","","","","","","","","","","","","","",""
"","ITI","","html-keyboard-response","474","509974","0.0-1.0-684.0","0","0","72289","","234","","","75","75","","","","","","","","","","","","","","","k",""
"","S1","","html-keyboard-response","475","510228","0.0-1.0-686.0","0","0","72289","","null","","","null","76","","","","","","","","","","","","","","","",""
"","ISI","","html-keyboard-response","476","510735","0.0-1.0-687.0","0","0","72289","","160","","","75","76","k","","","","","","","","","","","","","","",""
"","S2","","html-keyboard-response","477","510989","0.0-1.0-688.0","0","0","72289","","null","","","null","76","","NaN","","","","","","","","","","","","","",""
"","response","","html-keyboard-response","478","511175","0.0-1.0-689.0-0.0","0","0","72289","","182","","","68","76","","","2","76","training","adjacent","FE","6","5","O.jpg","N.jpg","0","0","1","",""
"","feedback","","html-keyboard-response","479","512181","0.0-1.0-690.0-0.0","0","0","72289","","null","","","null","76","","","","","","","","","","","","","","","",""
"","ITI","","html-keyboard-response","480","513189","0.0-1.0-693.0","0","0","72289","","37","","","68","76","","","","","","","","","","","","","","","d",""
"","S1","","html-keyboard-response","481","513448","0.0-1.0-695.0","0","0","72289","","null","","","null","77","","","","","","","","","","","","","","","",""
"","ISI","","html-keyboard-response","482","513954","0.0-1.0-696.0","0","0","72289","","null","","","null","77","NaN","","","","","","","","","","","","","","",""
"","S2","","html-keyboard-response","483","514156","0.0-1.0-697.0","0","0","72289","","189","","","75","77","","k","2","77","training","adjacent","FG","6","7","O.jpg","L.jpg","1","1","1","",""
"","feedback","","html-keyboard-response","484","515166","0.0-1.0-699.0-0.0","0","0","72289","","null","","","null","77","","","","","","","","","","","","","","","",""
"","ITI","","html-keyboard-response","485","516172","0.0-1.0-702.0","0","0","72289","","107","","","75","77","","","","","","","","","","","","","","","k",""
"","S1","","html-keyboard-response","486","516430","0.0-1.0-704.0","0","0","72289","","null","","","null","78","","","","","","","","","","","","","","","",""
"","ISI","","html-keyboard-response","487","516935","0.0-1.0-705.0","0","0","72289","","null","","","null","78","NaN","","","","","","","","","","","","","","",""
"","S2","","html-keyboard-response","488","517152","0.0-1.0-706.0","0","0","72289","","211","","","68","78","","d","2","78","training","adjacent","ED","5","4","N.jpg","P.jpg","0","0","1","",""
"","feedback","","html-keyboard-response","489","518160","0.0-1.0-708.0-0.0","0","0","72289","","null","","","null","78","","","","","","","","","","","","","","","",""
"","ITI","","html-keyboard-response","490","519165","0.0-1.0-711.0","0","0","72289","","175","","","68","78","","","","","","","","","","","","","","","d",""
"","S1","","html-keyboard-response","491","519422","0.0-1.0-713.0","0","0","72289","","null","","","null","79","","","","","","","","","","","","","","","",""
"","ISI","","html-keyboard-response","492","519928","0.0-1.0-714.0","0","0","72289","","283","","","75","79","k","","","","","","","","","","","","","","",""
"","S2","","html-keyboard-response","493","520050","0.0-1.0-715.0","0","0","72289","","116","","","75","79","","k","2","79","training","adjacent","DE","4","5","P.jpg","N.jpg","1","1","1","",""
"","feedback","","html-keyboard-response","494","521056","0.0-1.0-717.0-0.0","0","0","72289","","null","","","null","79","","","","","","","","","","","","","","","",""
"","ITI","","html-keyboard-response","495","522062","0.0-1.0-720.0","0","0","72289","","121","","","75","79","","","","","","","","","","","","","","","k",""
"","S1","","html-keyboard-response","496","522317","0.0-1.0-722.0","0","0","72289","","null","","","null","80","","","","","","","","","","","","","","","",""
"","ISI","","html-keyboard-response","497","522820","0.0-1.0-723.0","0","0","72289","","null","","","null","80","NaN","","","","","","","","","","","","","","",""
"","S2","","html-keyboard-response","498","522943","0.0-1.0-724.0","0","0","72289","","116","","","68","80","","d","2","80","training","adjacent","BA","2","1","R.jpg","Q.jpg","0","0","1","",""
"","feedback","","html-keyboard-response","499","523983","0.0-1.0-726.0-0.0","0","0","72289","","null","","","null","80","","","","","","","","","","","","","","","",""
"","ITI","","html-keyboard-response","500","524989","0.0-1.0-729.0","0","0","72289","","14","","","68","80","","","","","","","","","","","","","","","d",""
"","S1","","html-keyboard-response","501","525244","0.0-1.0-731.0","0","0","72289","","null","","","null","81","","","","","","","","","","","","","","","",""
"","ISI","","html-keyboard-response","502","525747","0.0-1.0-732.0","0","0","72289","","null","","","null","81","NaN","","","","","","","","","","","","","","",""
"","S2","","html-keyboard-response","503","525904","0.0-1.0-733.0","0","0","72289","","152","","","68","81","","d","2","81","training","adjacent","DE","4","5","P.jpg","N.jpg","0","1","0","",""
"","feedback","","html-keyboard-response","504","526914","0.0-1.0-735.0-0.0","0","0","72289","","null","","","null","81","","","","","","","","","","","","","","","",""
"","time_out","","html-keyboard-response","505","528925","0.0-1.0-737.0-0.0","0","0","72289","","null","","","null","81","","","","","","","","","","","","","","","",""
"","ITI","","html-keyboard-response","506","529931","0.0-1.0-738.0","0","0","72289","","29","","","68","81","","","","","","","","","","","","","","","d",""
"","S1","","html-keyboard-response","507","530186","0.0-1.0-740.0","0","0","72289","","null","","","null","82","","","","","","","","","","","","","","","",""
"","ISI","","html-keyboard-response","508","530690","0.0-1.0-741.0","0","0","72289","","441","","","75","82","k","","","","","","","","","","","","","","",""
"","S2","","html-keyboard-response","509","530839","0.0-1.0-742.0","0","0","72289","","144","","","68","82","","d","2","82","training","adjacent","CB","3","2","M.jpg","R.jpg","0","0","1","",""
"","feedback","","html-keyboard-response","510","531846","0.0-1.0-744.0-0.0","0","0","72289","","null","","","null","82","","","","","","","","","","","","","","","",""
"","ITI","","html-keyboard-response","511","532853","0.0-1.0-747.0","0","0","72289","","0","","","68","82","","","","","","","","","","","","","","","d",""
"","S1","","html-keyboard-response","512","533111","0.0-1.0-749.0","0","0","72289","","null","","","null","83","","","","","","","","","","","","","","","",""
"","ISI","","html-keyboard-response","513","533619","0.0-1.0-750.0","0","0","72289","","142","","","68","83","d","","","","","","","","","","","","","","",""
"","S2","","html-keyboard-response","514","533862","0.0-1.0-751.0","0","0","72289","","238","","","75","83","","k","2","83","training","adjacent","CD","3","4","M.jpg","P.jpg","1","1","1","",""
"","feedback","","html-keyboard-response","515","534872","0.0-1.0-753.0-0.0","0","0","72289","","null","","","null","83","","","","","","","","","","","","","","","",""
"","ITI","","html-keyboard-response","516","535879","0.0-1.0-756.0","0","0","72289","","3","","","75","83","","","","","","","","","","","","","","","k",""
"","S1","","html-keyboard-response","517","536135","0.0-1.0-758.0","0","0","72289","","null","","","null","84","","","","","","","","","","","","","","","",""
"","ISI","","html-keyboard-response","518","536640","0.0-1.0-759.0","0","0","72289","","351","","","75","84","k","","","","","","","","","","","","","","",""
"","S2","","html-keyboard-response","519","536935","0.0-1.0-760.0","0","0","72289","","null","","","null","84","","NaN","","","","","","","","","","","","","",""
"","response","","html-keyboard-response","520","537584","0.0-1.0-761.0-0.0","0","0","72289","","644","","","75","84","","","2","84","training","adjacent","BC","2","3","R.jpg","M.jpg","1","1","1","",""
"","feedback","","html-keyboard-response","521","538590","0.0-1.0-762.0-0.0","0","0","72289","","null","","","null","84","","","","","","","","","","","","","","","",""
"","ITI","","html-keyboard-response","522","539596","0.0-1.0-765.0","0","0","72289","","null","","","null","84","","","","","","","","","","","","","","","NaN",""
"","S1","","html-keyboard-response","523","539852","0.0-1.0-767.0","0","0","72289","","null","","","null","85","","","","","","","","","","","","","","","",""
"","ISI","","html-keyboard-response","524","540356","0.0-1.0-768.0","0","0","72289","","null","","","null","85","NaN","","","","","","","","","","","","","","",""
"","S2","","html-keyboard-response","525","540429","0.0-1.0-769.0","0","0","72289","","68","","","75","85","","k","2","85","training","adjacent","FE","6","5","O.jpg","N.jpg","1","0","0","",""
"","feedback","","html-keyboard-response","526","541436","0.0-1.0-771.0-0.0","0","0","72289","","null","","","null","85","","","","","","","","","","","","","","","",""
"","time_out","","html-keyboard-response","527","543445","0.0-1.0-773.0-0.0","0","0","72289","","null","","","null","85","","","","","","","","","","","","","","","",""
"","ITI","","html-keyboard-response","528","544454","0.0-1.0-774.0","0","0","72289","","68","","","75","85","","","","","","","","","","","","","","","k",""
"","S1","","html-keyboard-response","529","544709","0.0-1.0-776.0","0","0","72289","","null","","","null","86","","","","","","","","","","","","","","","",""
"","ISI","","html-keyboard-response","530","545217","0.0-1.0-777.0","0","0","72289","","65","","","75","86","k","","","","","","","","","","","","","","",""
"","S2","","html-keyboard-response","531","545439","0.0-1.0-778.0","0","0","72289","","218","","","68","86","","d","2","86","training","adjacent","GF","7","6","L.jpg","O.jpg","0","0","1","",""
"","feedback","","html-keyboard-response","532","546447","0.0-1.0-780.0-0.0","0","0","72289","","null","","","null","86","","","","","","","","","","","","","","","",""
"","ITI","","html-keyboard-response","533","547453","0.0-1.0-783.0","0","0","72289","","918","","","68","86","","","","","","","","","","","","","","","d",""
"","S1","","html-keyboard-response","534","547709","0.0-1.0-785.0","0","0","72289","","null","","","null","87","","","","","","","","","","","","","","","",""
"","ISI","","html-keyboard-response","535","548213","0.0-1.0-786.0","0","0","72289","","87","","","68","87","d","","","","","","","","","","","","","","",""
"","S2","","html-keyboard-response","536","548382","0.0-1.0-787.0","0","0","72289","","162","","","75","87","","k","2","87","training","adjacent","BA","2","1","R.jpg","Q.jpg","1","0","0","",""
"","feedback","","html-keyboard-response","537","549387","0.0-1.0-789.0-0.0","0","0","72289","","null","","","null","87","","","","","","","","","","","","","","","",""
"","time_out","","html-keyboard-response","538","551391","0.0-1.0-791.0-0.0","0","0","72289","","null","","","null","87","","","","","","","","","","","","","","","",""
"","ITI","","html-keyboard-response","539","552395","0.0-1.0-792.0","0","0","72289","","207","","","75","87","","","","","","","","","","","","","","","k",""
"","S1","","html-keyboard-response","540","552649","0.0-1.0-794.0","0","0","72289","","null","","","null","88","","","","","","","","","","","","","","","",""
"","ISI","","html-keyboard-response","541","553156","0.0-1.0-795.0","0","0","72289","","null","","","null","88","NaN","","","","","","","","","","","","","","",""
"","S2","","html-keyboard-response","542","553418","0.0-1.0-796.0","0","0","72289","","null","","","null","88","","NaN","","","","","","","","","","","","","",""
"","response","","html-keyboard-response","543","553659","0.0-1.0-797.0-0.0","0","0","72289","","236","","","68","88","","","2","88","training","adjacent","FG","6","7","O.jpg","L.jpg","0","1","0","",""
"","feedback","","html-keyboard-response","544","554663","0.0-1.0-798.0-0.0","0","0","72289","","null","","","null","88","","","","","","","","","","","","","","","",""
"","time_out","","html-keyboard-response","545","556671","0.0-1.0-800.0-0.0","0","0","72289","","null","","","null","88","","","","","","","","","","","","","","","",""
"","ITI","","html-keyboard-response","546","557679","0.0-1.0-801.0","0","0","72289","","3","","","75","88","","","","","","","","","","","","","","","k",""
"","S1","","html-keyboard-response","547","557935","0.0-1.0-803.0","0","0","72289","","null","","","null","89","","","","","","","","","","","","","","","",""
"","ISI","","html-keyboard-response","548","558439","0.0-1.0-804.0","0","0","72289","","92","","","75","89","k","","","","","","","","","","","","","","",""
"","S2","","html-keyboard-response","549","558696","0.0-1.0-805.0","0","0","72289","","null","","","null","89","","NaN","","","","","","","","","","","","","",""
"","response","","html-keyboard-response","550","559385","0.0-1.0-806.0-0.0","0","0","72289","","682","","","75","89","","","2","89","training","adjacent","FE","6","5","O.jpg","N.jpg","1","0","0","",""
"","feedback","","html-keyboard-response","551","560391","0.0-1.0-807.0-0.0","0","0","72289","","null","","","null","89","","","","","","","","","","","","","","","",""
"","time_out","","html-keyboard-response","552","562398","0.0-1.0-809.0-0.0","0","0","72289","","null","","","null","89","","","","","","","","","","","","","","","",""
"","ITI","","html-keyboard-response","553","563404","0.0-1.0-810.0","0","0","72289","","867","","","75","89","","","","","","","","","","","","","","","k",""
"","S1","","html-keyboard-response","554","563660","0.0-1.0-812.0","0","0","72289","","null","","","null","90","","","","","","","","","","","","","","","",""
"","ISI","","html-keyboard-response","555","564165","0.0-1.0-813.0","0","0","72289","","225","","","68","90","d","","","","","","","","","","","","","","",""
"","S2","","html-keyboard-response","556","564288","0.0-1.0-814.0","0","0","72289","","116","","","68","90","","d","2","90","training","adjacent","EF","5","6","N.jpg","O.jpg","0","1","0","",""
"","feedback","","html-keyboard-response","557","565299","0.0-1.0-816.0-0.0","0","0","72289","","null","","","null","90","","","","","","","","","","","","","","","",""
"","time_out","","html-keyboard-response","558","567305","0.0-1.0-818.0-0.0","0","0","72289","","null","","","null","90","","","","","","","","","","","","","","","",""
"","ITI","","html-keyboard-response","559","568312","0.0-1.0-819.0","0","0","72289","","10","","","68","90","","","","","","","","","","","","","","","d",""
"","S1","","html-keyboard-response","560","568569","0.0-1.0-821.0","0","0","72289","","null","","","null","91","","","","","","","","","","","","","","","",""
"","ISI","","html-keyboard-response","561","569075","0.0-1.0-822.0","0","0","72289","","null","","","null","91","NaN","","","","","","","","","","","","","","",""
"","S2","","html-keyboard-response","562","569289","0.0-1.0-823.0","0","0","72289","","209","","","75","91","","k","2","91","training","adjacent","GF","7","6","L.jpg","O.jpg","1","0","0","",""
"","feedback","","html-keyboard-response","563","570301","0.0-1.0-825.0-0.0","0","0","72289","","null","","","null","91","","","","","","","","","","","","","","","",""
"","time_out","","html-keyboard-response","564","572308","0.0-1.0-827.0-0.0","0","0","72289","","null","","","null","91","","","","","","","","","","","","","","","",""
"","ITI","","html-keyboard-response","565","573314","0.0-1.0-828.0","0","0","72289","","127","","","75","91","","","","","","","","","","","","","","","k",""
"","S1","","html-keyboard-response","566","573573","0.0-1.0-830.0","0","0","72289","","null","","","null","92","","","","","","","","","","","","","","","",""
"","ISI","","html-keyboard-response","567","574081","0.0-1.0-831.0","0","0","72289","","21","","","75","92","k","","","","","","","","","","","","","","",""
"","S2","","html-keyboard-response","568","574182","0.0-1.0-832.0","0","0","72289","","85","","","75","92","","k","2","92","training","adjacent","EF","5","6","N.jpg","O.jpg","1","1","1","",""
"","feedback","","html-keyboard-response","569","575282","0.0-1.0-834.0-0.0","0","0","72289","","null","","","null","92","","","","","","","","","","","","","","","",""
"","ITI","","html-keyboard-response","570","576288","0.0-1.0-837.0","0","0","72289","","null","","","null","92","","","","","","","","","","","","","","","NaN",""
"","S1","","html-keyboard-response","571","576543","0.0-1.0-839.0","0","0","72289","","null","","","null","93","","","","","","","","","","","","","","","",""
"","ISI","","html-keyboard-response","572","577048","0.0-1.0-840.0","0","0","72289","","null","","","null","93","NaN","","","","","","","","","","","","","","",""
"","S2","","html-keyboard-response","573","577307","0.0-1.0-841.0","0","0","72289","","null","","","null","93","","NaN","","","","","","","","","","","","","",""
"","response","","html-keyboard-response","574","579070","0.0-1.0-842.0-0.0","0","0","72289","","null","","","null","93","","","2","93","training","adjacent","EF","5","6","N.jpg","O.jpg","NaN","1","0","",""
"","too_slow_prompt","","html-keyboard-response","575","580082","0.0-1.0-844.0-0.0","1","0","72289","","null","","","null","","","","","","","","","","","","","","","","",""
"","time_out","","html-keyboard-response","576","582088","0.0-1.0-845.0-0.0","0","0","72289","","null","","","null","93","","","","","","","","","","","","","","","",""
"","ITI","","html-keyboard-response","577","583094","0.0-1.0-846.0","0","0","72289","","99","","","75","93","","","","","","","","","","","","","","","k",""
"","S1","","html-keyboard-response","578","583352","0.0-1.0-848.0","0","0","72289","","null","","","null","94","","","","","","","","","","","","","","","",""
"","ISI","","html-keyboard-response","579","583857","0.0-1.0-849.0","0","0","72289","","null","","","null","94","NaN","","","","","","","","","","","","","","",""
"","S2","","html-keyboard-response","580","584027","0.0-1.0-850.0","0","0","72289","","168","","","68","94","","d","2","94","training","adjacent","CB","3","2","M.jpg","R.jpg","0","0","1","",""
"","feedback","","html-keyboard-response","581","585039","0.0-1.0-852.0-0.0","0","0","72289","","null","","","null","94","","","","","","","","","","","","","","","",""
"","ITI","","html-keyboard-response","582","586047","0.0-1.0-855.0","0","0","72289","","134","","","75","94","","","","","","","","","","","","","","","k",""
"","S1","","html-keyboard-response","583","586303","0.0-1.0-857.0","0","0","72289","","null","","","null","95","","","","","","","","","","","","","","","",""
