"success","ttype","start_time","trial_type","trial_index","time_elapsed","internal_node_id","warning","missed_checkup","PID","view_history","rt","responses","repeat_instructions","key_press","index","keypress_isi","keypress_S2","block","trial_num","phase","group_type","pair_type","S1_stim","S2_stim","S1_img","S2_img","S1_chosen","S1_higher","accuracy","keypress_iti","total_bonus_tally"
"true","full_screen","d08052022hr1637","fullscreen","0","8992","0.0-0.0","0","0","54756","","","","","","","","","","","","","","","","","","","","","",""
"","instructions","","instructions","1","27284","0.0-1.0-0.0-0.0","0","0","54756","[{""page_index"":0,""viewing_time"":2851},{""page_index"":1,""viewing_time"":6175},{""page_index"":2,""viewing_time"":6747},{""page_index"":3,""viewing_time"":2513}]","18288","","","","","","","","","","","","","","","","","","","",""
"","comprehension_check","","survey-multi-choice","2","45058","0.0-1.0-0.0-1.0","0","0","54756","","17766","{""Q0"":""False"",""Q1"":""D"",""Q2"":""Only while the second image is shown"",""Q3"":""Green mark"",""Q4"":""either D or K""}","1","","","","","","","","","","","","","","","","","",""
"","missed_instruction_checkup","","html-keyboard-response","3","46567","0.0-1.0-0.0-2.0-0.0","0","1","54756","","1502","","","32","","","","","","","","","","","","","","","","",""
"","instructions","","instructions","4","58103","0.0-1.0-0.1-0.1","0","0","54756","[{""page_index"":0,""viewing_time"":2289},{""page_index"":1,""viewing_time"":6261},{""page_index"":2,""viewing_time"":2191},{""page_index"":3,""viewing_time"":789}]","11531","","","","","","","","","","","","","","","","","","","",""
"","comprehension_check","","survey-multi-choice","5","74416","0.0-1.0-0.1-1.1","0","0","54756","","16304","{""Q0"":""True"",""Q1"":""D"",""Q2"":""Only when the screen 'MAKE A CHOICE' is shown"",""Q3"":""Green mark"",""Q4"":""either D or K""}","1","","","","","","","","","","","","","","","","","",""
"","missed_instruction_checkup","","html-keyboard-response","6","75666","0.0-1.0-0.1-2.1-0.1","0","1","54756","","1245","","","32","","","","","","","","","","","","","","","","",""
"","instructions","","instructions","7","79161","0.0-1.0-0.2-0.2","0","0","54756","[{""page_index"":0,""viewing_time"":1330},{""page_index"":1,""viewing_time"":685},{""page_index"":2,""viewing_time"":879},{""page_index"":3,""viewing_time"":596}]","3491","","","","","","","","","","","","","","","","","","","",""
"","comprehension_check","","survey-multi-choice","8","87960","0.0-1.0-0.2-1.2","0","0","54756","","8788","{""Q0"":""True"",""Q1"":""D"",""Q2"":""Once the second image appears and while the screen 'MAKE A CHOICE' is shown"",""Q3"":""Green mark"",""Q4"":""either D or K""}","0","","","","","","","","","","","","","","","","","",""
"","start_exp","","html-keyboard-response","9","89049","0.0-1.0-1.0","0","0","54756","","1085","","","32","","","","","","","","","","","","","","","","",""
"","S1","","html-keyboard-response","10","89308","0.0-1.0-2.0","0","0","54756","","null","","","null","0","","","","","","","","","","","","","","","",""
"","ISI","","html-keyboard-response","11","91314","0.0-1.0-3.0","0","0","54756","","null","","","null","0","NaN","","","","","","","","","","","","","","",""
"","S2","","html-keyboard-response","12","91575","0.0-1.0-4.0","0","0","54756","","null","","","null","0","","NaN","","","","","","","","","","","","","",""
"","response","","html-keyboard-response","13","93161","0.0-1.0-5.0-0.0","0","0","54756","","1581","","","68","0","","","1","0","training","adjacent","DE","4","5","R.jpg","P.jpg","1","1","1","",""
"","feedback","","html-keyboard-response","14","94166","0.0-1.0-6.0-0.0","0","0","54756","","null","","","null","0","","","","","","","","","","","","","","","",""
"","ITI","","html-keyboard-response","15","95176","0.0-1.0-9.0","0","0","54756","","null","","","null","0","","","","","","","","","","","","","","","NaN",""
"","S1","","html-keyboard-response","16","95435","0.0-1.0-11.0","0","0","54756","","null","","","null","1","","","","","","","","","","","","","","","",""
"","ISI","","html-keyboard-response","17","97442","0.0-1.0-12.0","0","0","54756","","null","","","null","1","NaN","","","","","","","","","","","","","","",""
"","S2","","html-keyboard-response","18","97702","0.0-1.0-13.0","0","0","54756","","null","","","null","1","","NaN","","","","","","","","","","","","","",""
"","response","","html-keyboard-response","19","98379","0.0-1.0-14.0-0.0","0","0","54756","","672","","","68","1","","","1","1","training","adjacent","CB","3","2","L.jpg","N.jpg","1","0","0","",""
"","feedback","","html-keyboard-response","20","99388","0.0-1.0-15.0-0.0","0","0","54756","","null","","","null","1","","","","","","","","","","","","","","","",""
"","time_out","","html-keyboard-response","21","101396","0.0-1.0-17.0-0.0","0","0","54756","","null","","","null","1","","","","","","","","","","","","","","","",""
"","ITI","","html-keyboard-response","22","102401","0.0-1.0-18.0","0","0","54756","","null","","","null","1","","","","","","","","","","","","","","","NaN",""
"","S1","","html-keyboard-response","23","102657","0.0-1.0-20.0","0","0","54756","","null","","","null","2","","","","","","","","","","","","","","","",""
"","ISI","","html-keyboard-response","24","104666","0.0-1.0-21.0","0","0","54756","","null","","","null","2","NaN","","","","","","","","","","","","","","",""
"","S2","","html-keyboard-response","25","104924","0.0-1.0-22.0","0","0","54756","","null","","","null","2","","NaN","","","","","","","","","","","","","",""
"","response","","html-keyboard-response","26","105337","0.0-1.0-23.0-0.0","0","0","54756","","409","","","75","2","","","1","2","training","adjacent","FG","6","7","Q.jpg","M.jpg","0","1","0","",""
"","feedback","","html-keyboard-response","27","106347","0.0-1.0-24.0-0.0","0","0","54756","","null","","","null","2","","","","","","","","","","","","","","","",""
"","time_out","","html-keyboard-response","28","108353","0.0-1.0-26.0-0.0","0","0","54756","","null","","","null","2","","","","","","","","","","","","","","","",""
"","ITI","","html-keyboard-response","29","109361","0.0-1.0-27.0","0","0","54756","","null","","","null","2","","","","","","","","","","","","","","","NaN",""
"","S1","","html-keyboard-response","30","109620","0.0-1.0-29.0","0","0","54756","","null","","","null","3","","","","","","","","","","","","","","","",""
"","ISI","","html-keyboard-response","31","111628","0.0-1.0-30.0","0","0","54756","","null","","","null","3","NaN","","","","","","","","","","","","","","",""
"","S2","","html-keyboard-response","32","111884","0.0-1.0-31.0","0","0","54756","","null","","","null","3","","NaN","","","","","","","","","","","","","",""
"","response","","html-keyboard-response","33","112174","0.0-1.0-32.0-0.0","0","0","54756","","285","","","68","3","","","1","3","training","adjacent","BA","2","1","N.jpg","O.jpg","1","0","0","",""
"","feedback","","html-keyboard-response","34","113184","0.0-1.0-33.0-0.0","0","0","54756","","null","","","null","3","","","","","","","","","","","","","","","",""
"","time_out","","html-keyboard-response","35","115191","0.0-1.0-35.0-0.0","0","0","54756","","null","","","null","3","","","","","","","","","","","","","","","",""
"","ITI","","html-keyboard-response","36","116199","0.0-1.0-36.0","0","0","54756","","null","","","null","3","","","","","","","","","","","","","","","NaN",""
"","S1","","html-keyboard-response","37","116455","0.0-1.0-38.0","0","0","54756","","null","","","null","4","","","","","","","","","","","","","","","",""
"","ISI","","html-keyboard-response","38","118460","0.0-1.0-39.0","0","0","54756","","null","","","null","4","NaN","","","","","","","","","","","","","","",""
"","S2","","html-keyboard-response","39","118716","0.0-1.0-40.0","0","0","54756","","null","","","null","4","","NaN","","","","","","","","","","","","","",""
"","response","","html-keyboard-response","40","119751","0.0-1.0-41.0-0.0","0","0","54756","","1030","","","75","4","","","1","4","training","adjacent","EF","5","6","P.jpg","Q.jpg","0","1","0","",""
"","feedback","","html-keyboard-response","41","120760","0.0-1.0-42.0-0.0","0","0","54756","","null","","","null","4","","","","","","","","","","","","","","","",""
"","time_out","","html-keyboard-response","42","122767","0.0-1.0-44.0-0.0","0","0","54756","","null","","","null","4","","","","","","","","","","","","","","","",""
"","ITI","","html-keyboard-response","43","123777","0.0-1.0-45.0","0","0","54756","","null","","","null","4","","","","","","","","","","","","","","","NaN",""
"","S1","","html-keyboard-response","44","124034","0.0-1.0-47.0","0","0","54756","","null","","","null","5","","","","","","","","","","","","","","","",""
"","ISI","","html-keyboard-response","45","126040","0.0-1.0-48.0","0","0","54756","","null","","","null","5","NaN","","","","","","","","","","","","","","",""
"","S2","","html-keyboard-response","46","126297","0.0-1.0-49.0","0","0","54756","","null","","","null","5","","NaN","","","","","","","","","","","","","",""
"","response","","html-keyboard-response","47","127206","0.0-1.0-50.0-0.0","0","0","54756","","905","","","75","5","","","1","5","training","adjacent","BC","2","3","N.jpg","L.jpg","0","1","0","",""
"","feedback","","html-keyboard-response","48","128212","0.0-1.0-51.0-0.0","0","0","54756","","null","","","null","5","","","","","","","","","","","","","","","",""
"","time_out","","html-keyboard-response","49","130221","0.0-1.0-53.0-0.0","0","0","54756","","null","","","null","5","","","","","","","","","","","","","","","",""
"","ITI","","html-keyboard-response","50","131231","0.0-1.0-54.0","0","0","54756","","null","","","null","5","","","","","","","","","","","","","","","NaN",""
"","S1","","html-keyboard-response","51","131490","0.0-1.0-56.0","0","0","54756","","null","","","null","6","","","","","","","","","","","","","","","",""
"","ISI","","html-keyboard-response","52","133495","0.0-1.0-57.0","0","0","54756","","null","","","null","6","NaN","","","","","","","","","","","","","","",""
"","S2","","html-keyboard-response","53","133754","0.0-1.0-58.0","0","0","54756","","null","","","null","6","","NaN","","","","","","","","","","","","","",""
"","response","","html-keyboard-response","54","134241","0.0-1.0-59.0-0.0","0","0","54756","","482","","","68","6","","","1","6","training","adjacent","BC","2","3","N.jpg","L.jpg","1","1","1","",""
"","feedback","","html-keyboard-response","55","135250","0.0-1.0-60.0-0.0","0","0","54756","","null","","","null","6","","","","","","","","","","","","","","","",""
"","ITI","","html-keyboard-response","56","136258","0.0-1.0-63.0","0","0","54756","","null","","","null","6","","","","","","","","","","","","","","","NaN",""
"","S1","","html-keyboard-response","57","136514","0.0-1.0-65.0","0","0","54756","","null","","","null","7","","","","","","","","","","","","","","","",""
"","ISI","","html-keyboard-response","58","138519","0.0-1.0-66.0","0","0","54756","","null","","","null","7","NaN","","","","","","","","","","","","","","",""
"","S2","","html-keyboard-response","59","138777","0.0-1.0-67.0","0","0","54756","","null","","","null","7","","NaN","","","","","","","","","","","","","",""
"","response","","html-keyboard-response","60","139410","0.0-1.0-68.0-0.0","0","0","54756","","628","","","75","7","","","1","7","training","adjacent","BA","2","1","N.jpg","O.jpg","0","0","1","",""
"","feedback","","html-keyboard-response","61","140417","0.0-1.0-69.0-0.0","0","0","54756","","null","","","null","7","","","","","","","","","","","","","","","",""
"","ITI","","html-keyboard-response","62","141426","0.0-1.0-72.0","0","0","54756","","null","","","null","7","","","","","","","","","","","","","","","NaN",""
"","S1","","html-keyboard-response","63","141682","0.0-1.0-74.0","0","0","54756","","null","","","null","8","","","","","","","","","","","","","","","",""
"","ISI","","html-keyboard-response","64","143691","0.0-1.0-75.0","0","0","54756","","null","","","null","8","NaN","","","","","","","","","","","","","","",""
"","S2","","html-keyboard-response","65","143949","0.0-1.0-76.0","0","0","54756","","null","","","null","8","","NaN","","","","","","","","","","","","","",""
"","response","","html-keyboard-response","66","144381","0.0-1.0-77.0-0.0","0","0","54756","","428","","","68","8","","","1","8","training","adjacent","GF","7","6","M.jpg","Q.jpg","1","0","0","",""
"","feedback","","html-keyboard-response","67","145389","0.0-1.0-78.0-0.0","0","0","54756","","null","","","null","8","","","","","","","","","","","","","","","",""
"","time_out","","html-keyboard-response","68","147393","0.0-1.0-80.0-0.0","0","0","54756","","null","","","null","8","","","","","","","","","","","","","","","",""
"","ITI","","html-keyboard-response","69","148402","0.0-1.0-81.0","0","0","54756","","null","","","null","8","","","","","","","","","","","","","","","NaN",""
"","S1","","html-keyboard-response","70","148661","0.0-1.0-83.0","0","0","54756","","null","","","null","9","","","","","","","","","","","","","","","",""
"","ISI","","html-keyboard-response","71","150671","0.0-1.0-84.0","0","0","54756","","null","","","null","9","NaN","","","","","","","","","","","","","","",""
"","S2","","html-keyboard-response","72","150930","0.0-1.0-85.0","0","0","54756","","null","","","null","9","","NaN","","","","","","","","","","","","","",""
"","response","","html-keyboard-response","73","151473","0.0-1.0-86.0-0.0","0","0","54756","","538","","","75","9","","","1","9","training","adjacent","DE","4","5","R.jpg","P.jpg","0","1","0","",""
"","feedback","","html-keyboard-response","74","152482","0.0-1.0-87.0-0.0","0","0","54756","","null","","","null","9","","","","","","","","","","","","","","","",""
"","time_out","","html-keyboard-response","75","154487","0.0-1.0-89.0-0.0","0","0","54756","","null","","","null","9","","","","","","","","","","","","","","","",""
"","ITI","","html-keyboard-response","76","155495","0.0-1.0-90.0","0","0","54756","","null","","","null","9","","","","","","","","","","","","","","","NaN",""
"","S1","","html-keyboard-response","77","155754","0.0-1.0-92.0","0","0","54756","","null","","","null","10","","","","","","","","","","","","","","","",""
"","ISI","","html-keyboard-response","78","157762","0.0-1.0-93.0","0","0","54756","","null","","","null","10","NaN","","","","","","","","","","","","","","",""
"","S2","","html-keyboard-response","79","158018","0.0-1.0-94.0","0","0","54756","","null","","","null","10","","NaN","","","","","","","","","","","","","",""
"","response","","html-keyboard-response","80","158187","0.0-1.0-95.0-0.0","0","0","54756","","165","","","75","10","","","1","10","training","adjacent","FG","6","7","Q.jpg","M.jpg","0","1","0","",""
"","feedback","","html-keyboard-response","81","159197","0.0-1.0-96.0-0.0","0","0","54756","","null","","","null","10","","","","","","","","","","","","","","","",""
"","time_out","","html-keyboard-response","82","161202","0.0-1.0-98.0-0.0","0","0","54756","","null","","","null","10","","","","","","","","","","","","","","","",""
"","ITI","","html-keyboard-response","83","162211","0.0-1.0-99.0","0","0","54756","","null","","","null","10","","","","","","","","","","","","","","","NaN",""
"","S1","","html-keyboard-response","84","162468","0.0-1.0-101.0","0","0","54756","","null","","","null","11","","","","","","","","","","","","","","","",""
"","ISI","","html-keyboard-response","85","164477","0.0-1.0-102.0","0","0","54756","","null","","","null","11","NaN","","","","","","","","","","","","","","",""
"","S2","","html-keyboard-response","86","164737","0.0-1.0-103.0","0","0","54756","","null","","","null","11","","NaN","","","","","","","","","","","","","",""
"","response","","html-keyboard-response","87","165462","0.0-1.0-104.0-0.0","0","0","54756","","721","","","75","11","","","1","11","training","adjacent","ED","5","4","P.jpg","R.jpg","0","0","1","",""
"","feedback","","html-keyboard-response","88","166471","0.0-1.0-105.0-0.0","0","0","54756","","null","","","null","11","","","","","","","","","","","","","","","",""
"","ITI","","html-keyboard-response","89","167479","0.0-1.0-108.0","0","0","54756","","null","","","null","11","","","","","","","","","","","","","","","NaN",""
"","S1","","html-keyboard-response","90","167736","0.0-1.0-110.0","0","0","54756","","null","","","null","12","","","","","","","","","","","","","","","",""
"","ISI","","html-keyboard-response","91","169741","0.0-1.0-111.0","0","0","54756","","null","","","null","12","NaN","","","","","","","","","","","","","","",""
"","S2","","html-keyboard-response","92","169997","0.0-1.0-112.0","0","0","54756","","null","","","null","12","","NaN","","","","","","","","","","","","","",""
"","response","","html-keyboard-response","93","170422","0.0-1.0-113.0-0.0","0","0","54756","","420","","","75","12","","","1","12","training","adjacent","CD","3","4","L.jpg","R.jpg","0","1","0","",""
"","feedback","","html-keyboard-response","94","171432","0.0-1.0-114.0-0.0","0","0","54756","","null","","","null","12","","","","","","","","","","","","","","","",""
"","time_out","","html-keyboard-response","95","173441","0.0-1.0-116.0-0.0","0","0","54756","","null","","","null","12","","","","","","","","","","","","","","","",""
"","ITI","","html-keyboard-response","96","174450","0.0-1.0-117.0","0","0","54756","","null","","","null","12","","","","","","","","","","","","","","","NaN",""
"","S1","","html-keyboard-response","97","174709","0.0-1.0-119.0","0","0","54756","","null","","","null","13","","","","","","","","","","","","","","","",""
"","ISI","","html-keyboard-response","98","176717","0.0-1.0-120.0","0","0","54756","","null","","","null","13","NaN","","","","","","","","","","","","","","",""
"","S2","","html-keyboard-response","99","176977","0.0-1.0-121.0","0","0","54756","","null","","","null","13","","NaN","","","","","","","","","","","","","",""
"","response","","html-keyboard-response","100","177508","0.0-1.0-122.0-0.0","0","0","54756","","527","","","75","13","","","1","13","training","adjacent","AB","1","2","O.jpg","N.jpg","0","1","0","",""
"","feedback","","html-keyboard-response","101","178514","0.0-1.0-123.0-0.0","0","0","54756","","null","","","null","13","","","","","","","","","","","","","","","",""
"","time_out","","html-keyboard-response","102","180520","0.0-1.0-125.0-0.0","0","0","54756","","null","","","null","13","","","","","","","","","","","","","","","",""
"","ITI","","html-keyboard-response","103","181528","0.0-1.0-126.0","0","0","54756","","null","","","null","13","","","","","","","","","","","","","","","NaN",""
"","S1","","html-keyboard-response","104","181787","0.0-1.0-128.0","0","0","54756","","null","","","null","14","","","","","","","","","","","","","","","",""
"","ISI","","html-keyboard-response","105","183794","0.0-1.0-129.0","0","0","54756","","null","","","null","14","NaN","","","","","","","","","","","","","","",""
"","S2","","html-keyboard-response","106","184056","0.0-1.0-130.0","0","0","54756","","null","","","null","14","","NaN","","","","","","","","","","","","","",""
"","response","","html-keyboard-response","107","185146","0.0-1.0-131.0-0.0","0","0","54756","","1085","","","75","14","","","1","14","training","adjacent","BA","2","1","N.jpg","O.jpg","0","0","1","",""
"","feedback","","html-keyboard-response","108","186152","0.0-1.0-132.0-0.0","0","0","54756","","null","","","null","14","","","","","","","","","","","","","","","",""
"","ITI","","html-keyboard-response","109","187160","0.0-1.0-135.0","0","0","54756","","null","","","null","14","","","","","","","","","","","","","","","NaN",""
"","S1","","html-keyboard-response","110","187416","0.0-1.0-137.0","0","0","54756","","null","","","null","15","","","","","","","","","","","","","","","",""
"","ISI","","html-keyboard-response","111","189421","0.0-1.0-138.0","0","0","54756","","null","","","null","15","NaN","","","","","","","","","","","","","","",""
"","S2","","html-keyboard-response","112","189680","0.0-1.0-139.0","0","0","54756","","null","","","null","15","","NaN","","","","","","","","","","","","","",""
"","response","","html-keyboard-response","113","190533","0.0-1.0-140.0-0.0","0","0","54756","","848","","","68","15","","","1","15","training","adjacent","DC","4","3","R.jpg","L.jpg","1","0","0","",""
"","feedback","","html-keyboard-response","114","191542","0.0-1.0-141.0-0.0","0","0","54756","","null","","","null","15","","","","","","","","","","","","","","","",""
"","time_out","","html-keyboard-response","115","193549","0.0-1.0-143.0-0.0","0","0","54756","","null","","","null","15","","","","","","","","","","","","","","","",""
"","ITI","","html-keyboard-response","116","194557","0.0-1.0-144.0","0","0","54756","","null","","","null","15","","","","","","","","","","","","","","","NaN",""
"","S1","","html-keyboard-response","117","194815","0.0-1.0-146.0","0","0","54756","","null","","","null","16","","","","","","","","","","","","","","","",""
"","ISI","","html-keyboard-response","118","196824","0.0-1.0-147.0","0","0","54756","","null","","","null","16","NaN","","","","","","","","","","","","","","",""
"","S2","","html-keyboard-response","119","197085","0.0-1.0-148.0","0","0","54756","","null","","","null","16","","NaN","","","","","","","","","","","","","",""
"","response","","html-keyboard-response","120","198316","0.0-1.0-149.0-0.0","0","0","54756","","1227","","","75","16","","","1","16","training","adjacent","CB","3","2","L.jpg","N.jpg","0","0","1","",""
"","feedback","","html-keyboard-response","121","199326","0.0-1.0-150.0-0.0","0","0","54756","","null","","","null","16","","","","","","","","","","","","","","","",""
"","ITI","","html-keyboard-response","122","200333","0.0-1.0-153.0","0","0","54756","","null","","","null","16","","","","","","","","","","","","","","","NaN",""
"","S1","","html-keyboard-response","123","200589","0.0-1.0-155.0","0","0","54756","","null","","","null","17","","","","","","","","","","","","","","","",""
"","ISI","","html-keyboard-response","124","202594","0.0-1.0-156.0","0","0","54756","","null","","","null","17","NaN","","","","","","","","","","","","","","",""
"","S2","","html-keyboard-response","125","202851","0.0-1.0-157.0","0","0","54756","","null","","","null","17","","NaN","","","","","","","","","","","","","",""
"","response","","html-keyboard-response","126","204606","0.0-1.0-158.0-0.0","0","0","54756","","null","","","null","17","","","1","17","training","adjacent","CD","3","4","L.jpg","R.jpg","NaN","1","0","",""
"","too_slow_prompt","","html-keyboard-response","127","205615","0.0-1.0-160.0-0.0","1","0","54756","","null","","","null","","","","","","","","","","","","","","","","",""
"","time_out","","html-keyboard-response","128","207623","0.0-1.0-161.0-0.0","0","0","54756","","null","","","null","17","","","","","","","","","","","","","","","",""
"","ITI","","html-keyboard-response","129","208630","0.0-1.0-162.0","0","0","54756","","null","","","null","17","","","","","","","","","","","","","","","NaN",""
"","S1","","html-keyboard-response","130","208889","0.0-1.0-164.0","0","0","54756","","null","","","null","18","","","","","","","","","","","","","","","",""
"","ISI","","html-keyboard-response","131","210894","0.0-1.0-165.0","0","0","54756","","null","","","null","18","NaN","","","","","","","","","","","","","","",""
"","S2","","html-keyboard-response","132","211150","0.0-1.0-166.0","0","0","54756","","null","","","null","18","","NaN","","","","","","","","","","","","","",""
"","response","","html-keyboard-response","133","211713","0.0-1.0-167.0-0.0","0","0","54756","","559","","","75","18","","","1","18","training","adjacent","CB","3","2","L.jpg","N.jpg","0","0","1","",""
"","feedback","","html-keyboard-response","134","212723","0.0-1.0-168.0-0.0","0","0","54756","","null","","","null","18","","","","","","","","","","","","","","","",""
"","ITI","","html-keyboard-response","135","213731","0.0-1.0-171.0","0","0","54756","","null","","","null","18","","","","","","","","","","","","","","","NaN",""
"","S1","","html-keyboard-response","136","213992","0.0-1.0-173.0","0","0","54756","","null","","","null","19","","","","","","","","","","","","","","","",""
"","ISI","","html-keyboard-response","137","215998","0.0-1.0-174.0","0","0","54756","","null","","","null","19","NaN","","","","","","","","","","","","","","",""
"","S2","","html-keyboard-response","138","216257","0.0-1.0-175.0","0","0","54756","","null","","","null","19","","NaN","","","","","","","","","","","","","",""
"","response","","html-keyboard-response","139","216596","0.0-1.0-176.0-0.0","0","0","54756","","335","","","68","19","","","1","19","training","adjacent","AB","1","2","O.jpg","N.jpg","1","1","1","",""
"","feedback","","html-keyboard-response","140","217602","0.0-1.0-177.0-0.0","0","0","54756","","null","","","null","19","","","","","","","","","","","","","","","",""
"","ITI","","html-keyboard-response","141","218610","0.0-1.0-180.0","0","0","54756","","null","","","null","19","","","","","","","","","","","","","","","NaN",""
"","S1","","html-keyboard-response","142","218867","0.0-1.0-182.0","0","0","54756","","null","","","null","20","","","","","","","","","","","","","","","",""
"","ISI","","html-keyboard-response","143","220875","0.0-1.0-183.0","0","0","54756","","null","","","null","20","NaN","","","","","","","","","","","","","","",""
"","S2","","html-keyboard-response","144","221134","0.0-1.0-184.0","0","0","54756","","null","","","null","20","","NaN","","","","","","","","","","","","","",""
"","response","","html-keyboard-response","145","221372","0.0-1.0-185.0-0.0","0","0","54756","","234","","","75","20","","","1","20","training","adjacent","DC","4","3","R.jpg","L.jpg","0","0","1","",""
"","feedback","","html-keyboard-response","146","222382","0.0-1.0-186.0-0.0","0","0","54756","","null","","","null","20","","","","","","","","","","","","","","","",""
"","ITI","","html-keyboard-response","147","223390","0.0-1.0-189.0","0","0","54756","","null","","","null","20","","","","","","","","","","","","","","","NaN",""
"","S1","","html-keyboard-response","148","223650","0.0-1.0-191.0","0","0","54756","","null","","","null","21","","","","","","","","","","","","","","","",""
"","ISI","","html-keyboard-response","149","225656","0.0-1.0-192.0","0","0","54756","","null","","","null","21","NaN","","","","","","","","","","","","","","",""
"","S2","","html-keyboard-response","150","225914","0.0-1.0-193.0","0","0","54756","","null","","","null","21","","NaN","","","","","","","","","","","","","",""
"","response","","html-keyboard-response","151","226106","0.0-1.0-194.0-0.0","0","0","54756","","189","","","68","21","","","1","21","training","adjacent","FE","6","5","Q.jpg","P.jpg","1","0","0","",""
"","feedback","","html-keyboard-response","152","227113","0.0-1.0-195.0-0.0","0","0","54756","","null","","","null","21","","","","","","","","","","","","","","","",""
"","time_out","","html-keyboard-response","153","229120","0.0-1.0-197.0-0.0","0","0","54756","","null","","","null","21","","","","","","","","","","","","","","","",""
"","ITI","","html-keyboard-response","154","230126","0.0-1.0-198.0","0","0","54756","","null","","","null","21","","","","","","","","","","","","","","","NaN",""
"","S1","","html-keyboard-response","155","230383","0.0-1.0-200.0","0","0","54756","","null","","","null","22","","","","","","","","","","","","","","","",""
"","ISI","","html-keyboard-response","156","232388","0.0-1.0-201.0","0","0","54756","","null","","","null","22","NaN","","","","","","","","","","","","","","",""
"","S2","","html-keyboard-response","157","232644","0.0-1.0-202.0","0","0","54756","","null","","","null","22","","NaN","","","","","","","","","","","","","",""
"","response","","html-keyboard-response","158","232926","0.0-1.0-203.0-0.0","0","0","54756","","279","","","75","22","","","1","22","training","adjacent","ED","5","4","P.jpg","R.jpg","0","0","1","",""
"","feedback","","html-keyboard-response","159","233934","0.0-1.0-204.0-0.0","0","0","54756","","null","","","null","22","","","","","","","","","","","","","","","",""
"","ITI","","html-keyboard-response","160","234942","0.0-1.0-207.0","0","0","54756","","null","","","null","22","","","","","","","","","","","","","","","NaN",""
"","S1","","html-keyboard-response","161","235202","0.0-1.0-209.0","0","0","54756","","null","","","null","23","","","","","","","","","","","","","","","",""
"","ISI","","html-keyboard-response","162","237210","0.0-1.0-210.0","0","0","54756","","null","","","null","23","NaN","","","","","","","","","","","","","","",""
"","S2","","html-keyboard-response","163","237469","0.0-1.0-211.0","0","0","54756","","null","","","null","23","","NaN","","","","","","","","","","","","","",""
"","response","","html-keyboard-response","164","237675","0.0-1.0-212.0-0.0","0","0","54756","","202","","","75","23","","","1","23","training","adjacent","DC","4","3","R.jpg","L.jpg","0","0","1","",""
"","feedback","","html-keyboard-response","165","238683","0.0-1.0-213.0-0.0","0","0","54756","","null","","","null","23","","","","","","","","","","","","","","","",""
"","ITI","","html-keyboard-response","166","239693","0.0-1.0-216.0","0","0","54756","","null","","","null","23","","","","","","","","","","","","","","","NaN",""
"","S1","","html-keyboard-response","167","239950","0.0-1.0-218.0","0","0","54756","","null","","","null","24","","","","","","","","","","","","","","","",""
"","ISI","","html-keyboard-response","168","241956","0.0-1.0-219.0","0","0","54756","","null","","","null","24","NaN","","","","","","","","","","","","","","",""
"","S2","","html-keyboard-response","169","242215","0.0-1.0-220.0","0","0","54756","","null","","","null","24","","NaN","","","","","","","","","","","","","",""
"","response","","html-keyboard-response","170","242531","0.0-1.0-221.0-0.0","0","0","54756","","311","","","68","24","","","1","24","training","adjacent","FE","6","5","Q.jpg","P.jpg","1","0","0","",""
"","feedback","","html-keyboard-response","171","243540","0.0-1.0-222.0-0.0","0","0","54756","","null","","","null","24","","","","","","","","","","","","","","","",""
"","time_out","","html-keyboard-response","172","245546","0.0-1.0-224.0-0.0","0","0","54756","","null","","","null","24","","","","","","","","","","","","","","","",""
"","ITI","","html-keyboard-response","173","246556","0.0-1.0-225.0","0","0","54756","","null","","","null","24","","","","","","","","","","","","","","","NaN",""
"","S1","","html-keyboard-response","174","246815","0.0-1.0-227.0","0","0","54756","","null","","","null","25","","","","","","","","","","","","","","","",""
"","ISI","","html-keyboard-response","175","248825","0.0-1.0-228.0","0","0","54756","","null","","","null","25","NaN","","","","","","","","","","","","","","",""
"","S2","","html-keyboard-response","176","249086","0.0-1.0-229.0","0","0","54756","","null","","","null","25","","NaN","","","","","","","","","","","","","",""
"","response","","html-keyboard-response","177","249584","0.0-1.0-230.0-0.0","0","0","54756","","493","","","68","25","","","1","25","training","adjacent","BC","2","3","N.jpg","L.jpg","1","1","1","",""
"","feedback","","html-keyboard-response","178","250594","0.0-1.0-231.0-0.0","0","0","54756","","null","","","null","25","","","","","","","","","","","","","","","",""
"","ITI","","html-keyboard-response","179","251603","0.0-1.0-234.0","0","0","54756","","null","","","null","25","","","","","","","","","","","","","","","NaN",""
"","S1","","html-keyboard-response","180","251859","0.0-1.0-236.0","0","0","54756","","null","","","null","26","","","","","","","","","","","","","","","",""
"","ISI","","html-keyboard-response","181","253865","0.0-1.0-237.0","0","0","54756","","null","","","null","26","NaN","","","","","","","","","","","","","","",""
"","S2","","html-keyboard-response","182","254122","0.0-1.0-238.0","0","0","54756","","null","","","null","26","","NaN","","","","","","","","","","","","","",""
"","response","","html-keyboard-response","183","254609","0.0-1.0-239.0-0.0","0","0","54756","","483","","","75","26","","","1","26","training","adjacent","DE","4","5","R.jpg","P.jpg","0","1","0","",""
"","feedback","","html-keyboard-response","184","255620","0.0-1.0-240.0-0.0","0","0","54756","","null","","","null","26","","","","","","","","","","","","","","","",""
"","time_out","","html-keyboard-response","185","257630","0.0-1.0-242.0-0.0","0","0","54756","","null","","","null","26","","","","","","","","","","","","","","","",""
"","ITI","","html-keyboard-response","186","258638","0.0-1.0-243.0","0","0","54756","","null","","","null","26","","","","","","","","","","","","","","","NaN",""
"","S1","","html-keyboard-response","187","258894","0.0-1.0-245.0","0","0","54756","","null","","","null","27","","","","","","","","","","","","","","","",""
"","ISI","","html-keyboard-response","188","260900","0.0-1.0-246.0","0","0","54756","","null","","","null","27","NaN","","","","","","","","","","","","","","",""
"","S2","","html-keyboard-response","189","261156","0.0-1.0-247.0","0","0","54756","","null","","","null","27","","NaN","","","","","","","","","","","","","",""
"","response","","html-keyboard-response","190","261606","0.0-1.0-248.0-0.0","0","0","54756","","446","","","68","27","","","1","27","training","adjacent","GF","7","6","M.jpg","Q.jpg","1","0","0","",""
"","feedback","","html-keyboard-response","191","262615","0.0-1.0-249.0-0.0","0","0","54756","","null","","","null","27","","","","","","","","","","","","","","","",""
"","time_out","","html-keyboard-response","192","264621","0.0-1.0-251.0-0.0","0","0","54756","","null","","","null","27","","","","","","","","","","","","","","","",""
"","ITI","","html-keyboard-response","193","265628","0.0-1.0-252.0","0","0","54756","","null","","","null","27","","","","","","","","","","","","","","","NaN",""
"","S1","","html-keyboard-response","194","265887","0.0-1.0-254.0","0","0","54756","","null","","","null","28","","","","","","","","","","","","","","","",""
"","ISI","","html-keyboard-response","195","267894","0.0-1.0-255.0","0","0","54756","","null","","","null","28","NaN","","","","","","","","","","","","","","",""
"","S2","","html-keyboard-response","196","268150","0.0-1.0-256.0","0","0","54756","","null","","","null","28","","NaN","","","","","","","","","","","","","",""
"","response","","html-keyboard-response","197","268269","0.0-1.0-257.0-0.0","0","0","54756","","114","","","75","28","","","1","28","training","adjacent","CD","3","4","L.jpg","R.jpg","0","1","0","",""
"","feedback","","html-keyboard-response","198","269277","0.0-1.0-258.0-0.0","0","0","54756","","null","","","null","28","","","","","","","","","","","","","","","",""
"","time_out","","html-keyboard-response","199","271285","0.0-1.0-260.0-0.0","0","0","54756","","null","","","null","28","","","","","","","","","","","","","","","",""
"","ITI","","html-keyboard-response","200","272293","0.0-1.0-261.0","0","0","54756","","null","","","null","28","","","","","","","","","","","","","","","NaN",""
"","S1","","html-keyboard-response","201","272553","0.0-1.0-263.0","0","0","54756","","null","","","null","29","","","","","","","","","","","","","","","",""
"","ISI","","html-keyboard-response","202","274557","0.0-1.0-264.0","0","0","54756","","null","","","null","29","NaN","","","","","","","","","","","","","","",""
"","S2","","html-keyboard-response","203","274814","0.0-1.0-265.0","0","0","54756","","null","","","null","29","","NaN","","","","","","","","","","","","","",""
"","response","","html-keyboard-response","204","275035","0.0-1.0-266.0-0.0","0","0","54756","","217","","","68","29","","","1","29","training","adjacent","DE","4","5","R.jpg","P.jpg","1","1","1","",""
"","feedback","","html-keyboard-response","205","276041","0.0-1.0-267.0-0.0","0","0","54756","","null","","","null","29","","","","","","","","","","","","","","","",""
"","ITI","","html-keyboard-response","206","277047","0.0-1.0-270.0","0","0","54756","","null","","","null","29","","","","","","","","","","","","","","","NaN",""
"","S1","","html-keyboard-response","207","277305","0.0-1.0-272.0","0","0","54756","","null","","","null","30","","","","","","","","","","","","","","","",""
"","ISI","","html-keyboard-response","208","279314","0.0-1.0-273.0","0","0","54756","","null","","","null","30","NaN","","","","","","","","","","","","","","",""
"","S2","","html-keyboard-response","209","279571","0.0-1.0-274.0","0","0","54756","","null","","","null","30","","NaN","","","","","","","","","","","","","",""
"","response","","html-keyboard-response","210","279897","0.0-1.0-275.0-0.0","0","0","54756","","321","","","75","30","","","1","30","training","adjacent","CD","3","4","L.jpg","R.jpg","0","1","0","",""
"","feedback","","html-keyboard-response","211","280903","0.0-1.0-276.0-0.0","0","0","54756","","null","","","null","30","","","","","","","","","","","","","","","",""
"","time_out","","html-keyboard-response","212","282908","0.0-1.0-278.0-0.0","0","0","54756","","null","","","null","30","","","","","","","","","","","","","","","",""
"","ITI","","html-keyboard-response","213","283915","0.0-1.0-279.0","0","0","54756","","null","","","null","30","","","","","","","","","","","","","","","NaN",""
"","S1","","html-keyboard-response","214","284169","0.0-1.0-281.0","0","0","54756","","null","","","null","31","","","","","","","","","","","","","","","",""
"","ISI","","html-keyboard-response","215","286175","0.0-1.0-282.0","0","0","54756","","null","","","null","31","NaN","","","","","","","","","","","","","","",""
"","S2","","html-keyboard-response","216","286432","0.0-1.0-283.0","0","0","54756","","null","","","null","31","","NaN","","","","","","","","","","","","","",""
"","response","","html-keyboard-response","217","286673","0.0-1.0-284.0-0.0","0","0","54756","","237","","","68","31","","","1","31","training","adjacent","FG","6","7","Q.jpg","M.jpg","1","1","1","",""
"","feedback","","html-keyboard-response","218","287680","0.0-1.0-285.0-0.0","0","0","54756","","null","","","null","31","","","","","","","","","","","","","","","",""
"","ITI","","html-keyboard-response","219","288688","0.0-1.0-288.0","0","0","54756","","null","","","null","31","","","","","","","","","","","","","","","NaN",""
"","S1","","html-keyboard-response","220","288942","0.0-1.0-290.0","0","0","54756","","null","","","null","32","","","","","","","","","","","","","","","",""
"","ISI","","html-keyboard-response","221","290949","0.0-1.0-291.0","0","0","54756","","null","","","null","32","NaN","","","","","","","","","","","","","","",""
"","S2","","html-keyboard-response","222","291206","0.0-1.0-292.0","0","0","54756","","null","","","null","32","","NaN","","","","","","","","","","","","","",""
"","response","","html-keyboard-response","223","291407","0.0-1.0-293.0-0.0","0","0","54756","","196","","","75","32","","","1","32","training","adjacent","FE","6","5","Q.jpg","P.jpg","0","0","1","",""
"","feedback","","html-keyboard-response","224","292416","0.0-1.0-294.0-0.0","0","0","54756","","null","","","null","32","","","","","","","","","","","","","","","",""
"","ITI","","html-keyboard-response","225","293421","0.0-1.0-297.0","0","0","54756","","null","","","null","32","","","","","","","","","","","","","","","NaN",""
"","S1","","html-keyboard-response","226","293679","0.0-1.0-299.0","0","0","54756","","null","","","null","33","","","","","","","","","","","","","","","",""
"","ISI","","html-keyboard-response","227","295688","0.0-1.0-300.0","0","0","54756","","null","","","null","33","NaN","","","","","","","","","","","","","","",""
"","S2","","html-keyboard-response","228","295946","0.0-1.0-301.0","0","0","54756","","null","","","null","33","","NaN","","","","","","","","","","","","","",""
"","response","","html-keyboard-response","229","296549","0.0-1.0-302.0-0.0","0","0","54756","","598","","","68","33","","","1","33","training","adjacent","AB","1","2","O.jpg","N.jpg","1","1","1","",""
"","feedback","","html-keyboard-response","230","297556","0.0-1.0-303.0-0.0","0","0","54756","","null","","","null","33","","","","","","","","","","","","","","","",""
"","ITI","","html-keyboard-response","231","298564","0.0-1.0-306.0","0","0","54756","","null","","","null","33","","","","","","","","","","","","","","","NaN",""
"","S1","","html-keyboard-response","232","298823","0.0-1.0-308.0","0","0","54756","","null","","","null","34","","","","","","","","","","","","","","","",""
"","ISI","","html-keyboard-response","233","300833","0.0-1.0-309.0","0","0","54756","","null","","","null","34","NaN","","","","","","","","","","","","","","",""
"","S2","","html-keyboard-response","234","301092","0.0-1.0-310.0","0","0","54756","","null","","","null","34","","NaN","","","","","","","","","","","","","",""
"","response","","html-keyboard-response","235","301610","0.0-1.0-311.0-0.0","0","0","54756","","513","","","68","34","","","1","34","training","adjacent","GF","7","6","M.jpg","Q.jpg","1","0","0","",""
"","feedback","","html-keyboard-response","236","302618","0.0-1.0-312.0-0.0","0","0","54756","","null","","","null","34","","","","","","","","","","","","","","","",""
"","time_out","","html-keyboard-response","237","304626","0.0-1.0-314.0-0.0","0","0","54756","","null","","","null","34","","","","","","","","","","","","","","","",""
"","ITI","","html-keyboard-response","238","305633","0.0-1.0-315.0","0","0","54756","","null","","","null","34","","","","","","","","","","","","","","","NaN",""
"","S1","","html-keyboard-response","239","305892","0.0-1.0-317.0","0","0","54756","","null","","","null","35","","","","","","","","","","","","","","","",""
"","ISI","","html-keyboard-response","240","307897","0.0-1.0-318.0","0","0","54756","","null","","","null","35","NaN","","","","","","","","","","","","","","",""
"","S2","","html-keyboard-response","241","308153","0.0-1.0-319.0","0","0","54756","","null","","","null","35","","NaN","","","","","","","","","","","","","",""
"","response","","html-keyboard-response","242","308343","0.0-1.0-320.0-0.0","0","0","54756","","186","","","75","35","","","1","35","training","adjacent","FE","6","5","Q.jpg","P.jpg","0","0","1","",""
"","feedback","","html-keyboard-response","243","309353","0.0-1.0-321.0-0.0","0","0","54756","","null","","","null","35","","","","","","","","","","","","","","","",""
"","ITI","","html-keyboard-response","244","310358","0.0-1.0-324.0","0","0","54756","","null","","","null","35","","","","","","","","","","","","","","","NaN",""
"","S1","","html-keyboard-response","245","310617","0.0-1.0-326.0","0","0","54756","","null","","","null","36","","","","","","","","","","","","","","","",""
"","ISI","","html-keyboard-response","246","312626","0.0-1.0-327.0","0","0","54756","","null","","","null","36","NaN","","","","","","","","","","","","","","",""
"","S2","","html-keyboard-response","247","312884","0.0-1.0-328.0","0","0","54756","","null","","","null","36","","NaN","","","","","","","","","","","","","",""
"","response","","html-keyboard-response","248","313141","0.0-1.0-329.0-0.0","0","0","54756","","252","","","68","36","","","1","36","training","adjacent","GF","7","6","M.jpg","Q.jpg","1","0","0","",""
"","feedback","","html-keyboard-response","249","314150","0.0-1.0-330.0-0.0","0","0","54756","","null","","","null","36","","","","","","","","","","","","","","","",""
"","time_out","","html-keyboard-response","250","316158","0.0-1.0-332.0-0.0","0","0","54756","","null","","","null","36","","","","","","","","","","","","","","","",""
"","ITI","","html-keyboard-response","251","317168","0.0-1.0-333.0","0","0","54756","","null","","","null","36","","","","","","","","","","","","","","","NaN",""
"","S1","","html-keyboard-response","252","317426","0.0-1.0-335.0","0","0","54756","","null","","","null","37","","","","","","","","","","","","","","","",""
"","ISI","","html-keyboard-response","253","319433","0.0-1.0-336.0","0","0","54756","","null","","","null","37","NaN","","","","","","","","","","","","","","",""
"","S2","","html-keyboard-response","254","319688","0.0-1.0-337.0","0","0","54756","","null","","","null","37","","NaN","","","","","","","","","","","","","",""
"","response","","html-keyboard-response","255","319815","0.0-1.0-338.0-0.0","0","0","54756","","122","","","75","37","","","1","37","training","adjacent","ED","5","4","P.jpg","R.jpg","0","0","1","",""
"","feedback","","html-keyboard-response","256","320825","0.0-1.0-339.0-0.0","0","0","54756","","null","","","null","37","","","","","","","","","","","","","","","",""
"","ITI","","html-keyboard-response","257","321833","0.0-1.0-342.0","0","0","54756","","null","","","null","37","","","","","","","","","","","","","","","NaN",""
"","S1","","html-keyboard-response","258","322089","0.0-1.0-344.0","0","0","54756","","null","","","null","38","","","","","","","","","","","","","","","",""
"","ISI","","html-keyboard-response","259","324094","0.0-1.0-345.0","0","0","54756","","null","","","null","38","NaN","","","","","","","","","","","","","","",""
"","S2","","html-keyboard-response","260","324350","0.0-1.0-346.0","0","0","54756","","null","","","null","38","","NaN","","","","","","","","","","","","","",""
"","response","","html-keyboard-response","261","324701","0.0-1.0-347.0-0.0","0","0","54756","","346","","","68","38","","","1","38","training","adjacent","EF","5","6","P.jpg","Q.jpg","1","1","1","",""
"","feedback","","html-keyboard-response","262","325711","0.0-1.0-348.0-0.0","0","0","54756","","null","","","null","38","","","","","","","","","","","","","","","",""
"","ITI","","html-keyboard-response","263","326720","0.0-1.0-351.0","0","0","54756","","null","","","null","38","","","","","","","","","","","","","","","NaN",""
"","S1","","html-keyboard-response","264","326979","0.0-1.0-353.0","0","0","54756","","null","","","null","39","","","","","","","","","","","","","","","",""
"","ISI","","html-keyboard-response","265","328987","0.0-1.0-354.0","0","0","54756","","null","","","null","39","NaN","","","","","","","","","","","","","","",""
"","S2","","html-keyboard-response","266","329246","0.0-1.0-355.0","0","0","54756","","null","","","null","39","","NaN","","","","","","","","","","","","","",""
"","response","","html-keyboard-response","267","329439","0.0-1.0-356.0-0.0","0","0","54756","","189","","","68","39","","","1","39","training","adjacent","EF","5","6","P.jpg","Q.jpg","1","1","1","",""
"","feedback","","html-keyboard-response","268","330446","0.0-1.0-357.0-0.0","0","0","54756","","null","","","null","39","","","","","","","","","","","","","","","",""
"","ITI","","html-keyboard-response","269","331456","0.0-1.0-360.0","0","0","54756","","null","","","null","39","","","","","","","","","","","","","","","NaN",""
"","S1","","html-keyboard-response","270","331716","0.0-1.0-362.0","0","0","54756","","null","","","null","40","","","","","","","","","","","","","","","",""
"","ISI","","html-keyboard-response","271","333721","0.0-1.0-363.0","0","0","54756","","null","","","null","40","NaN","","","","","","","","","","","","","","",""
"","S2","","html-keyboard-response","272","333977","0.0-1.0-364.0","0","0","54756","","null","","","null","40","","NaN","","","","","","","","","","","","","",""
"","response","","html-keyboard-response","273","334160","0.0-1.0-365.0-0.0","0","0","54756","","178","","","68","40","","","1","40","training","adjacent","EF","5","6","P.jpg","Q.jpg","1","1","1","",""
"","feedback","","html-keyboard-response","274","335168","0.0-1.0-366.0-0.0","0","0","54756","","null","","","null","40","","","","","","","","","","","","","","","",""
"","ITI","","html-keyboard-response","275","336176","0.0-1.0-369.0","0","0","54756","","null","","","null","40","","","","","","","","","","","","","","","NaN",""
"","S1","","html-keyboard-response","276","336436","0.0-1.0-371.0","0","0","54756","","null","","","null","41","","","","","","","","","","","","","","","",""
"","ISI","","html-keyboard-response","277","338446","0.0-1.0-372.0","0","0","54756","","null","","","null","41","NaN","","","","","","","","","","","","","","",""
"","S2","","html-keyboard-response","278","338704","0.0-1.0-373.0","0","0","54756","","null","","","null","41","","NaN","","","","","","","","","","","","","",""
"","response","","html-keyboard-response","279","339011","0.0-1.0-374.0-0.0","0","0","54756","","303","","","68","41","","","1","41","training","adjacent","BA","2","1","N.jpg","O.jpg","1","0","0","",""
"","feedback","","html-keyboard-response","280","340020","0.0-1.0-375.0-0.0","0","0","54756","","null","","","null","41","","","","","","","","","","","","","","","",""
"","time_out","","html-keyboard-response","281","342025","0.0-1.0-377.0-0.0","0","0","54756","","null","","","null","41","","","","","","","","","","","","","","","",""
"","ITI","","html-keyboard-response","282","343034","0.0-1.0-378.0","0","0","54756","","null","","","null","41","","","","","","","","","","","","","","","NaN",""
"","S1","","html-keyboard-response","283","343290","0.0-1.0-380.0","0","0","54756","","null","","","null","42","","","","","","","","","","","","","","","",""
"","ISI","","html-keyboard-response","284","345299","0.0-1.0-381.0","0","0","54756","","null","","","null","42","NaN","","","","","","","","","","","","","","",""
"","S2","","html-keyboard-response","285","345556","0.0-1.0-382.0","0","0","54756","","null","","","null","42","","NaN","","","","","","","","","","","","","",""
"","response","","html-keyboard-response","286","345922","0.0-1.0-383.0-0.0","0","0","54756","","361","","","75","42","","","1","42","training","adjacent","AB","1","2","O.jpg","N.jpg","0","1","0","",""
"","feedback","","html-keyboard-response","287","346932","0.0-1.0-384.0-0.0","0","0","54756","","null","","","null","42","","","","","","","","","","","","","","","",""
"","time_out","","html-keyboard-response","288","348942","0.0-1.0-386.0-0.0","0","0","54756","","null","","","null","42","","","","","","","","","","","","","","","",""
"","ITI","","html-keyboard-response","289","349951","0.0-1.0-387.0","0","0","54756","","null","","","null","42","","","","","","","","","","","","","","","NaN",""
"","S1","","html-keyboard-response","290","350209","0.0-1.0-389.0","0","0","54756","","null","","","null","43","","","","","","","","","","","","","","","",""
"","ISI","","html-keyboard-response","291","352217","0.0-1.0-390.0","0","0","54756","","null","","","null","43","NaN","","","","","","","","","","","","","","",""
"","S2","","html-keyboard-response","292","352477","0.0-1.0-391.0","0","0","54756","","null","","","null","43","","NaN","","","","","","","","","","","","","",""
"","response","","html-keyboard-response","293","352795","0.0-1.0-392.0-0.0","0","0","54756","","314","","","68","43","","","1","43","training","adjacent","DC","4","3","R.jpg","L.jpg","1","0","0","",""
"","feedback","","html-keyboard-response","294","353805","0.0-1.0-393.0-0.0","0","0","54756","","null","","","null","43","","","","","","","","","","","","","","","",""
"","time_out","","html-keyboard-response","295","355815","0.0-1.0-395.0-0.0","0","0","54756","","null","","","null","43","","","","","","","","","","","","","","","",""
"","ITI","","html-keyboard-response","296","356825","0.0-1.0-396.0","0","0","54756","","null","","","null","43","","","","","","","","","","","","","","","NaN",""
"","S1","","html-keyboard-response","297","357081","0.0-1.0-398.0","0","0","54756","","null","","","null","44","","","","","","","","","","","","","","","",""
"","ISI","","html-keyboard-response","298","359090","0.0-1.0-399.0","0","0","54756","","285","","","68","44","d","","","","","","","","","","","","","","",""
"","S2","","html-keyboard-response","299","359348","0.0-1.0-400.0","0","0","54756","","null","","","null","44","","NaN","","","","","","","","","","","","","",""
"","response","","html-keyboard-response","300","359456","0.0-1.0-401.0-0.0","0","0","54756","","103","","","75","44","","","1","44","training","adjacent","ED","5","4","P.jpg","R.jpg","0","0","1","",""
"","feedback","","html-keyboard-response","301","360463","0.0-1.0-402.0-0.0","0","0","54756","","null","","","null","44","","","","","","","","","","","","","","","",""
"","ITI","","html-keyboard-response","302","361470","0.0-1.0-405.0","0","0","54756","","null","","","null","44","","","","","","","","","","","","","","","NaN",""
"","S1","","html-keyboard-response","303","361727","0.0-1.0-407.0","0","0","54756","","null","","","null","45","","","","","","","","","","","","","","","",""
"","ISI","","html-keyboard-response","304","363734","0.0-1.0-408.0","0","0","54756","","null","","","null","45","NaN","","","","","","","","","","","","","","",""
"","S2","","html-keyboard-response","305","363994","0.0-1.0-409.0","0","0","54756","","null","","","null","45","","NaN","","","","","","","","","","","","","",""
"","response","","html-keyboard-response","306","364215","0.0-1.0-410.0-0.0","0","0","54756","","217","","","68","45","","","1","45","training","adjacent","BC","2","3","N.jpg","L.jpg","1","1","1","",""
"","feedback","","html-keyboard-response","307","365223","0.0-1.0-411.0-0.0","0","0","54756","","null","","","null","45","","","","","","","","","","","","","","","",""
"","ITI","","html-keyboard-response","308","366225","0.0-1.0-414.0","0","0","54756","","null","","","null","45","","","","","","","","","","","","","","","NaN",""
"","S1","","html-keyboard-response","309","366484","0.0-1.0-416.0","0","0","54756","","null","","","null","46","","","","","","","","","","","","","","","",""
"","ISI","","html-keyboard-response","310","368487","0.0-1.0-417.0","0","0","54756","","null","","","null","46","NaN","","","","","","","","","","","","","","",""
"","S2","","html-keyboard-response","311","368742","0.0-1.0-418.0","0","0","54756","","null","","","null","46","","NaN","","","","","","","","","","","","","",""
"","response","","html-keyboard-response","312","368899","0.0-1.0-419.0-0.0","0","0","54756","","152","","","75","46","","","1","46","training","adjacent","FG","6","7","Q.jpg","M.jpg","0","1","0","",""
"","feedback","","html-keyboard-response","313","369907","0.0-1.0-420.0-0.0","0","0","54756","","null","","","null","46","","","","","","","","","","","","","","","",""
"","time_out","","html-keyboard-response","314","371915","0.0-1.0-422.0-0.0","0","0","54756","","null","","","null","46","","","","","","","","","","","","","","","",""
"","ITI","","html-keyboard-response","315","372922","0.0-1.0-423.0","0","0","54756","","null","","","null","46","","","","","","","","","","","","","","","NaN",""
"","S1","","html-keyboard-response","316","373179","0.0-1.0-425.0","0","0","54756","","null","","","null","47","","","","","","","","","","","","","","","",""
"","ISI","","html-keyboard-response","317","375188","0.0-1.0-426.0","0","0","54756","","362","","","68","47","d","","","","","","","","","","","","","","",""
"","S2","","html-keyboard-response","318","375444","0.0-1.0-427.0","0","0","54756","","null","","","null","47","","NaN","","","","","","","","","","","","","",""
"","response","","html-keyboard-response","319","375787","0.0-1.0-428.0-0.0","0","0","54756","","339","","","75","47","","","1","47","training","adjacent","CB","3","2","L.jpg","N.jpg","0","0","1","",""
"","feedback","","html-keyboard-response","320","376794","0.0-1.0-429.0-0.0","0","0","54756","","null","","","null","47","","","","","","","","","","","","","","","",""
"","ITI","","html-keyboard-response","321","377802","0.0-1.0-432.0","0","0","54756","","null","","","null","47","","","","","","","","","","","","","","","NaN",""
"","block_over","","html-keyboard-response","322","381698","0.0-1.0-433.0-0.0","0","0","54756","","3890","","","32","47","","","","","","","","","","","","","","","",""
"","S1","","html-keyboard-response","323","381958","0.0-1.0-434.0","0","0","54756","","null","","","null","48","","","","","","","","","","","","","","","",""
"","ISI","","html-keyboard-response","324","383967","0.0-1.0-435.0","0","0","54756","","null","","","null","48","NaN","","","","","","","","","","","","","","",""
"","S2","","html-keyboard-response","325","384223","0.0-1.0-436.0","0","0","54756","","null","","","null","48","","NaN","","","","","","","","","","","","","",""
"","response","","html-keyboard-response","326","384782","0.0-1.0-437.0-0.0","0","0","54756","","554","","","75","48","","","2","48","training","adjacent","GF","7","6","M.jpg","Q.jpg","0","0","1","",""
"","feedback","","html-keyboard-response","327","385791","0.0-1.0-438.0-0.0","0","0","54756","","null","","","null","48","","","","","","","","","","","","","","","",""
"","ITI","","html-keyboard-response","328","386801","0.0-1.0-441.0","0","0","54756","","null","","","null","48","","","","","","","","","","","","","","","NaN",""
"","S1","","html-keyboard-response","329","387060","0.0-1.0-443.0","0","0","54756","","null","","","null","49","","","","","","","","","","","","","","","",""
"","ISI","","html-keyboard-response","330","389069","0.0-1.0-444.0","0","0","54756","","null","","","null","49","NaN","","","","","","","","","","","","","","",""
"","S2","","html-keyboard-response","331","389328","0.0-1.0-445.0","0","0","54756","","null","","","null","49","","NaN","","","","","","","","","","","","","",""
"","response","","html-keyboard-response","332","389670","0.0-1.0-446.0-0.0","0","0","54756","","336","","","68","49","","","2","49","training","adjacent","EF","5","6","P.jpg","Q.jpg","1","1","1","",""
"","feedback","","html-keyboard-response","333","390676","0.0-1.0-447.0-0.0","0","0","54756","","null","","","null","49","","","","","","","","","","","","","","","",""
"","ITI","","html-keyboard-response","334","391684","0.0-1.0-450.0","0","0","54756","","null","","","null","49","","","","","","","","","","","","","","","NaN",""
"","S1","","html-keyboard-response","335","391942","0.0-1.0-452.0","0","0","54756","","null","","","null","50","","","","","","","","","","","","","","","",""
"","ISI","","html-keyboard-response","336","393951","0.0-1.0-453.0","0","0","54756","","null","","","null","50","NaN","","","","","","","","","","","","","","",""
"","S2","","html-keyboard-response","337","394210","0.0-1.0-454.0","0","0","54756","","null","","","null","50","","NaN","","","","","","","","","","","","","",""
"","response","","html-keyboard-response","338","394417","0.0-1.0-455.0-0.0","0","0","54756","","202","","","75","50","","","2","50","training","adjacent","AB","1","2","O.jpg","N.jpg","0","1","0","",""
"","feedback","","html-keyboard-response","339","395423","0.0-1.0-456.0-0.0","0","0","54756","","null","","","null","50","","","","","","","","","","","","","","","",""
"","time_out","","html-keyboard-response","340","397433","0.0-1.0-458.0-0.0","0","0","54756","","null","","","null","50","","","","","","","","","","","","","","","",""
"","ITI","","html-keyboard-response","341","398442","0.0-1.0-459.0","0","0","54756","","null","","","null","50","","","","","","","","","","","","","","","NaN",""
"","S1","","html-keyboard-response","342","398701","0.0-1.0-461.0","0","0","54756","","null","","","null","51","","","","","","","","","","","","","","","",""
"","ISI","","html-keyboard-response","343","400709","0.0-1.0-462.0","0","0","54756","","null","","","null","51","NaN","","","","","","","","","","","","","","",""
"","S2","","html-keyboard-response","344","400968","0.0-1.0-463.0","0","0","54756","","null","","","null","51","","NaN","","","","","","","","","","","","","",""
"","response","","html-keyboard-response","345","401243","0.0-1.0-464.0-0.0","0","0","54756","","270","","","68","51","","","2","51","training","adjacent","GF","7","6","M.jpg","Q.jpg","1","0","0","",""
"","feedback","","html-keyboard-response","346","402250","0.0-1.0-465.0-0.0","0","0","54756","","null","","","null","51","","","","","","","","","","","","","","","",""
"","time_out","","html-keyboard-response","347","404255","0.0-1.0-467.0-0.0","0","0","54756","","null","","","null","51","","","","","","","","","","","","","","","",""
"","ITI","","html-keyboard-response","348","405263","0.0-1.0-468.0","0","0","54756","","null","","","null","51","","","","","","","","","","","","","","","NaN",""
"","S1","","html-keyboard-response","349","405519","0.0-1.0-470.0","0","0","54756","","null","","","null","52","","","","","","","","","","","","","","","",""
"","ISI","","html-keyboard-response","350","407525","0.0-1.0-471.0","0","0","54756","","null","","","null","52","NaN","","","","","","","","","","","","","","",""
"","S2","","html-keyboard-response","351","407783","0.0-1.0-472.0","0","0","54756","","null","","","null","52","","NaN","","","","","","","","","","","","","",""
"","response","","html-keyboard-response","352","408169","0.0-1.0-473.0-0.0","0","0","54756","","381","","","75","52","","","2","52","training","adjacent","AB","1","2","O.jpg","N.jpg","0","1","0","",""
"","feedback","","html-keyboard-response","353","409178","0.0-1.0-474.0-0.0","0","0","54756","","null","","","null","52","","","","","","","","","","","","","","","",""
"","time_out","","html-keyboard-response","354","411183","0.0-1.0-476.0-0.0","0","0","54756","","null","","","null","52","","","","","","","","","","","","","","","",""
"","ITI","","html-keyboard-response","355","412191","0.0-1.0-477.0","0","0","54756","","null","","","null","52","","","","","","","","","","","","","","","NaN",""
"","S1","","html-keyboard-response","356","412447","0.0-1.0-479.0","0","0","54756","","null","","","null","53","","","","","","","","","","","","","","","",""
"","ISI","","html-keyboard-response","357","414452","0.0-1.0-480.0","0","0","54756","","null","","","null","53","NaN","","","","","","","","","","","","","","",""
"","S2","","html-keyboard-response","358","414709","0.0-1.0-481.0","0","0","54756","","null","","","null","53","","NaN","","","","","","","","","","","","","",""
"","response","","html-keyboard-response","359","415252","0.0-1.0-482.0-0.0","0","0","54756","","537","","","68","53","","","2","53","training","adjacent","BC","2","3","N.jpg","L.jpg","1","1","1","",""
"","feedback","","html-keyboard-response","360","416261","0.0-1.0-483.0-0.0","0","0","54756","","null","","","null","53","","","","","","","","","","","","","","","",""
"","ITI","","html-keyboard-response","361","417271","0.0-1.0-486.0","0","0","54756","","null","","","null","53","","","","","","","","","","","","","","","NaN",""
"","S1","","html-keyboard-response","362","417530","0.0-1.0-488.0","0","0","54756","","null","","","null","54","","","","","","","","","","","","","","","",""
"","ISI","","html-keyboard-response","363","419538","0.0-1.0-489.0","0","0","54756","","null","","","null","54","NaN","","","","","","","","","","","","","","",""
"","S2","","html-keyboard-response","364","419797","0.0-1.0-490.0","0","0","54756","","null","","","null","54","","NaN","","","","","","","","","","","","","",""
"","response","","html-keyboard-response","365","420091","0.0-1.0-491.0-0.0","0","0","54756","","289","","","75","54","","","2","54","training","adjacent","BA","2","1","N.jpg","O.jpg","0","0","1","",""
"","feedback","","html-keyboard-response","366","421100","0.0-1.0-492.0-0.0","0","0","54756","","null","","","null","54","","","","","","","","","","","","","","","",""
"","ITI","","html-keyboard-response","367","422109","0.0-1.0-495.0","0","0","54756","","null","","","null","54","","","","","","","","","","","","","","","NaN",""
"","S1","","html-keyboard-response","368","422369","0.0-1.0-497.0","0","0","54756","","null","","","null","55","","","","","","","","","","","","","","","",""
"","ISI","","html-keyboard-response","369","424378","0.0-1.0-498.0","0","0","54756","","null","","","null","55","NaN","","","","","","","","","","","","","","",""
"","S2","","html-keyboard-response","370","424634","0.0-1.0-499.0","0","0","54756","","null","","","null","55","","NaN","","","","","","","","","","","","","",""
"","response","","html-keyboard-response","371","425072","0.0-1.0-500.0-0.0","0","0","54756","","433","","","68","55","","","2","55","training","adjacent","BA","2","1","N.jpg","O.jpg","1","0","0","",""
"","feedback","","html-keyboard-response","372","426082","0.0-1.0-501.0-0.0","0","0","54756","","null","","","null","55","","","","","","","","","","","","","","","",""
"","time_out","","html-keyboard-response","373","428090","0.0-1.0-503.0-0.0","0","0","54756","","null","","","null","55","","","","","","","","","","","","","","","",""
"","ITI","","html-keyboard-response","374","429099","0.0-1.0-504.0","0","0","54756","","null","","","null","55","","","","","","","","","","","","","","","NaN",""
"","S1","","html-keyboard-response","375","429359","0.0-1.0-506.0","0","0","54756","","null","","","null","56","","","","","","","","","","","","","","","",""
"","ISI","","html-keyboard-response","376","431368","0.0-1.0-507.0","0","0","54756","","null","","","null","56","NaN","","","","","","","","","","","","","","",""
"","S2","","html-keyboard-response","377","431626","0.0-1.0-508.0","0","0","54756","","null","","","null","56","","NaN","","","","","","","","","","","","","",""
"","response","","html-keyboard-response","378","432011","0.0-1.0-509.0-0.0","0","0","54756","","381","","","68","56","","","2","56","training","adjacent","GF","7","6","M.jpg","Q.jpg","1","0","0","",""
"","feedback","","html-keyboard-response","379","433018","0.0-1.0-510.0-0.0","0","0","54756","","null","","","null","56","","","","","","","","","","","","","","","",""
"","time_out","","html-keyboard-response","380","435024","0.0-1.0-512.0-0.0","0","0","54756","","null","","","null","56","","","","","","","","","","","","","","","",""
"","ITI","","html-keyboard-response","381","436032","0.0-1.0-513.0","0","0","54756","","null","","","null","56","","","","","","","","","","","","","","","NaN",""
"","S1","","html-keyboard-response","382","436290","0.0-1.0-515.0","0","0","54756","","null","","","null","57","","","","","","","","","","","","","","","",""
"","ISI","","html-keyboard-response","383","438299","0.0-1.0-516.0","0","0","54756","","null","","","null","57","NaN","","","","","","","","","","","","","","",""
"","S2","","html-keyboard-response","384","438559","0.0-1.0-517.0","0","0","54756","","null","","","null","57","","NaN","","","","","","","","","","","","","",""
"","response","","html-keyboard-response","385","439047","0.0-1.0-518.0-0.0","0","0","54756","","482","","","68","57","","","2","57","training","adjacent","FG","6","7","Q.jpg","M.jpg","1","1","1","",""
"","feedback","","html-keyboard-response","386","440053","0.0-1.0-519.0-0.0","0","0","54756","","null","","","null","57","","","","","","","","","","","","","","","",""
"","ITI","","html-keyboard-response","387","441061","0.0-1.0-522.0","0","0","54756","","null","","","null","57","","","","","","","","","","","","","","","NaN",""
"","S1","","html-keyboard-response","388","441317","0.0-1.0-524.0","0","0","54756","","null","","","null","58","","","","","","","","","","","","","","","",""
"","ISI","","html-keyboard-response","389","443323","0.0-1.0-525.0","0","0","54756","","null","","","null","58","NaN","","","","","","","","","","","","","","",""
"","S2","","html-keyboard-response","390","443584","0.0-1.0-526.0","0","0","54756","","null","","","null","58","","NaN","","","","","","","","","","","","","",""
"","response","","html-keyboard-response","391","443910","0.0-1.0-527.0-0.0","0","0","54756","","321","","","68","58","","","2","58","training","adjacent","EF","5","6","P.jpg","Q.jpg","1","1","1","",""
"","feedback","","html-keyboard-response","392","444917","0.0-1.0-528.0-0.0","0","0","54756","","null","","","null","58","","","","","","","","","","","","","","","",""
"","ITI","","html-keyboard-response","393","445925","0.0-1.0-531.0","0","0","54756","","null","","","null","58","","","","","","","","","","","","","","","NaN",""
"","S1","","html-keyboard-response","394","446181","0.0-1.0-533.0","0","0","54756","","null","","","null","59","","","","","","","","","","","","","","","",""
"","ISI","","html-keyboard-response","395","448191","0.0-1.0-534.0","0","0","54756","","null","","","null","59","NaN","","","","","","","","","","","","","","",""
"","S2","","html-keyboard-response","396","448449","0.0-1.0-535.0","0","0","54756","","null","","","null","59","","NaN","","","","","","","","","","","","","",""
"","response","","html-keyboard-response","397","448853","0.0-1.0-536.0-0.0","0","0","54756","","400","","","68","59","","","2","59","training","adjacent","DE","4","5","R.jpg","P.jpg","1","1","1","",""
"","feedback","","html-keyboard-response","398","449863","0.0-1.0-537.0-0.0","0","0","54756","","null","","","null","59","","","","","","","","","","","","","","","",""
"","ITI","","html-keyboard-response","399","450872","0.0-1.0-540.0","0","0","54756","","null","","","null","59","","","","","","","","","","","","","","","NaN",""
"","S1","","html-keyboard-response","400","451131","0.0-1.0-542.0","0","0","54756","","null","","","null","60","","","","","","","","","","","","","","","",""
"","ISI","","html-keyboard-response","401","453138","0.0-1.0-543.0","0","0","54756","","null","","","null","60","NaN","","","","","","","","","","","","","","",""
"","S2","","html-keyboard-response","402","453396","0.0-1.0-544.0","0","0","54756","","null","","","null","60","","NaN","","","","","","","","","","","","","",""
"","response","","html-keyboard-response","403","453708","0.0-1.0-545.0-0.0","0","0","54756","","307","","","75","60","","","2","60","training","adjacent","CB","3","2","L.jpg","N.jpg","0","0","1","",""
"","feedback","","html-keyboard-response","404","454715","0.0-1.0-546.0-0.0","0","0","54756","","null","","","null","60","","","","","","","","","","","","","","","",""
"","ITI","","html-keyboard-response","405","455722","0.0-1.0-549.0","0","0","54756","","null","","","null","60","","","","","","","","","","","","","","","NaN",""
"","S1","","html-keyboard-response","406","455979","0.0-1.0-551.0","0","0","54756","","null","","","null","61","","","","","","","","","","","","","","","",""
"","ISI","","html-keyboard-response","407","457984","0.0-1.0-552.0","0","0","54756","","null","","","null","61","NaN","","","","","","","","","","","","","","",""
"","S2","","html-keyboard-response","408","458240","0.0-1.0-553.0","0","0","54756","","null","","","null","61","","NaN","","","","","","","","","","","","","",""
"","response","","html-keyboard-response","409","458582","0.0-1.0-554.0-0.0","0","0","54756","","338","","","68","61","","","2","61","training","adjacent","ED","5","4","P.jpg","R.jpg","1","0","0","",""
"","feedback","","html-keyboard-response","410","459589","0.0-1.0-555.0-0.0","0","0","54756","","null","","","null","61","","","","","","","","","","","","","","","",""
"","time_out","","html-keyboard-response","411","461600","0.0-1.0-557.0-0.0","0","0","54756","","null","","","null","61","","","","","","","","","","","","","","","",""
"","ITI","","html-keyboard-response","412","462608","0.0-1.0-558.0","0","0","54756","","null","","","null","61","","","","","","","","","","","","","","","NaN",""
"","S1","","html-keyboard-response","413","462867","0.0-1.0-560.0","0","0","54756","","null","","","null","62","","","","","","","","","","","","","","","",""
"","ISI","","html-keyboard-response","414","464875","0.0-1.0-561.0","0","0","54756","","null","","","null","62","NaN","","","","","","","","","","","","","","",""
"","S2","","html-keyboard-response","415","465134","0.0-1.0-562.0","0","0","54756","","null","","","null","62","","NaN","","","","","","","","","","","","","",""
"","response","","html-keyboard-response","416","465314","0.0-1.0-563.0-0.0","0","0","54756","","175","","","68","62","","","2","62","training","adjacent","BC","2","3","N.jpg","L.jpg","1","1","1","",""
"","feedback","","html-keyboard-response","417","466320","0.0-1.0-564.0-0.0","0","0","54756","","null","","","null","62","","","","","","","","","","","","","","","",""
"","ITI","","html-keyboard-response","418","467329","0.0-1.0-567.0","0","0","54756","","null","","","null","62","","","","","","","","","","","","","","","NaN",""
"","S1","","html-keyboard-response","419","467590","0.0-1.0-569.0","0","0","54756","","null","","","null","63","","","","","","","","","","","","","","","",""
"","ISI","","html-keyboard-response","420","469599","0.0-1.0-570.0","0","0","54756","","null","","","null","63","NaN","","","","","","","","","","","","","","",""
"","S2","","html-keyboard-response","421","469856","0.0-1.0-571.0","0","0","54756","","null","","","null","63","","NaN","","","","","","","","","","","","","",""
"","response","","html-keyboard-response","422","470140","0.0-1.0-572.0-0.0","0","0","54756","","279","","","68","63","","","2","63","training","adjacent","DC","4","3","R.jpg","L.jpg","1","0","0","",""
"","feedback","","html-keyboard-response","423","471147","0.0-1.0-573.0-0.0","0","0","54756","","null","","","null","63","","","","","","","","","","","","","","","",""
"","time_out","","html-keyboard-response","424","473152","0.0-1.0-575.0-0.0","0","0","54756","","null","","","null","63","","","","","","","","","","","","","","","",""
"","ITI","","html-keyboard-response","425","474160","0.0-1.0-576.0","0","0","54756","","null","","","null","63","","","","","","","","","","","","","","","NaN",""
"","S1","","html-keyboard-response","426","474416","0.0-1.0-578.0","0","0","54756","","null","","","null","64","","","","","","","","","","","","","","","",""
"","ISI","","html-keyboard-response","427","476423","0.0-1.0-579.0","0","0","54756","","null","","","null","64","NaN","","","","","","","","","","","","","","",""
"","S2","","html-keyboard-response","428","476683","0.0-1.0-580.0","0","0","54756","","null","","","null","64","","NaN","","","","","","","","","","","","","",""
"","response","","html-keyboard-response","429","476858","0.0-1.0-581.0-0.0","0","0","54756","","170","","","68","64","","","2","64","training","adjacent","FG","6","7","Q.jpg","M.jpg","1","1","1","",""
"","feedback","","html-keyboard-response","430","477867","0.0-1.0-582.0-0.0","0","0","54756","","null","","","null","64","","","","","","","","","","","","","","","",""
"","ITI","","html-keyboard-response","431","478874","0.0-1.0-585.0","0","0","54756","","null","","","null","64","","","","","","","","","","","","","","","NaN",""
"","S1","","html-keyboard-response","432","479134","0.0-1.0-587.0","0","0","54756","","null","","","null","65","","","","","","","","","","","","","","","",""
"","ISI","","html-keyboard-response","433","481141","0.0-1.0-588.0","0","0","54756","","null","","","null","65","NaN","","","","","","","","","","","","","","",""
"","S2","","html-keyboard-response","434","481397","0.0-1.0-589.0","0","0","54756","","null","","","null","65","","NaN","","","","","","","","","","","","","",""
"","response","","html-keyboard-response","435","481581","0.0-1.0-590.0-0.0","0","0","54756","","179","","","75","65","","","2","65","training","adjacent","FE","6","5","Q.jpg","P.jpg","0","0","1","",""
"","feedback","","html-keyboard-response","436","482592","0.0-1.0-591.0-0.0","0","0","54756","","null","","","null","65","","","","","","","","","","","","","","","",""
"","ITI","","html-keyboard-response","437","483600","0.0-1.0-594.0","0","0","54756","","null","","","null","65","","","","","","","","","","","","","","","NaN",""
"","S1","","html-keyboard-response","438","483856","0.0-1.0-596.0","0","0","54756","","null","","","null","66","","","","","","","","","","","","","","","",""
"","ISI","","html-keyboard-response","439","485865","0.0-1.0-597.0","0","0","54756","","null","","","null","66","NaN","","","","","","","","","","","","","","",""
"","S2","","html-keyboard-response","440","486123","0.0-1.0-598.0","0","0","54756","","null","","","null","66","","NaN","","","","","","","","","","","","","",""
"","response","","html-keyboard-response","441","486448","0.0-1.0-599.0-0.0","0","0","54756","","320","","","68","66","","","2","66","training","adjacent","ED","5","4","P.jpg","R.jpg","1","0","0","",""
"","feedback","","html-keyboard-response","442","487457","0.0-1.0-600.0-0.0","0","0","54756","","null","","","null","66","","","","","","","","","","","","","","","",""
"","time_out","","html-keyboard-response","443","489467","0.0-1.0-602.0-0.0","0","0","54756","","null","","","null","66","","","","","","","","","","","","","","","",""
"","ITI","","html-keyboard-response","444","490474","0.0-1.0-603.0","0","0","54756","","null","","","null","66","","","","","","","","","","","","","","","NaN",""
"","S1","","html-keyboard-response","445","490734","0.0-1.0-605.0","0","0","54756","","null","","","null","67","","","","","","","","","","","","","","","",""
"","ISI","","html-keyboard-response","446","492741","0.0-1.0-606.0","0","0","54756","","null","","","null","67","NaN","","","","","","","","","","","","","","",""
"","S2","","html-keyboard-response","447","492998","0.0-1.0-607.0","0","0","54756","","null","","","null","67","","NaN","","","","","","","","","","","","","",""
"","response","","html-keyboard-response","448","493213","0.0-1.0-608.0-0.0","0","0","54756","","211","","","68","67","","","2","67","training","adjacent","ED","5","4","P.jpg","R.jpg","1","0","0","",""
"","feedback","","html-keyboard-response","449","494219","0.0-1.0-609.0-0.0","0","0","54756","","null","","","null","67","","","","","","","","","","","","","","","",""
"","time_out","","html-keyboard-response","450","496229","0.0-1.0-611.0-0.0","0","0","54756","","null","","","null","67","","","","","","","","","","","","","","","",""
"","ITI","","html-keyboard-response","451","497238","0.0-1.0-612.0","0","0","54756","","null","","","null","67","","","","","","","","","","","","","","","NaN",""
"","S1","","html-keyboard-response","452","497493","0.0-1.0-614.0","0","0","54756","","null","","","null","68","","","","","","","","","","","","","","","",""
"","ISI","","html-keyboard-response","453","499499","0.0-1.0-615.0","0","0","54756","","null","","","null","68","NaN","","","","","","","","","","","","","","",""
"","S2","","html-keyboard-response","454","499755","0.0-1.0-616.0","0","0","54756","","null","","","null","68","","NaN","","","","","","","","","","","","","",""
"","response","","html-keyboard-response","455","500333","0.0-1.0-617.0-0.0","0","0","54756","","573","","","68","68","","","2","68","training","adjacent","CB","3","2","L.jpg","N.jpg","1","0","0","",""
"","feedback","","html-keyboard-response","456","501338","0.0-1.0-618.0-0.0","0","0","54756","","null","","","null","68","","","","","","","","","","","","","","","",""
"","time_out","","html-keyboard-response","457","503347","0.0-1.0-620.0-0.0","0","0","54756","","null","","","null","68","","","","","","","","","","","","","","","",""
"","ITI","","html-keyboard-response","458","504352","0.0-1.0-621.0","0","0","54756","","null","","","null","68","","","","","","","","","","","","","","","NaN",""
"","S1","","html-keyboard-response","459","504608","0.0-1.0-623.0","0","0","54756","","null","","","null","69","","","","","","","","","","","","","","","",""
"","ISI","","html-keyboard-response","460","506613","0.0-1.0-624.0","0","0","54756","","null","","","null","69","NaN","","","","","","","","","","","","","","",""
"","S2","","html-keyboard-response","461","506873","0.0-1.0-625.0","0","0","54756","","null","","","null","69","","NaN","","","","","","","","","","","","","",""
"","response","","html-keyboard-response","462","507505","0.0-1.0-626.0-0.0","0","0","54756","","628","","","68","69","","","2","69","training","adjacent","DC","4","3","R.jpg","L.jpg","1","0","0","",""
"","feedback","","html-keyboard-response","463","508512","0.0-1.0-627.0-0.0","0","0","54756","","null","","","null","69","","","","","","","","","","","","","","","",""
"","time_out","","html-keyboard-response","464","510519","0.0-1.0-629.0-0.0","0","0","54756","","null","","","null","69","","","","","","","","","","","","","","","",""
"","ITI","","html-keyboard-response","465","511527","0.0-1.0-630.0","0","0","54756","","null","","","null","69","","","","","","","","","","","","","","","NaN",""
"","S1","","html-keyboard-response","466","511785","0.0-1.0-632.0","0","0","54756","","null","","","null","70","","","","","","","","","","","","","","","",""
"","ISI","","html-keyboard-response","467","513792","0.0-1.0-633.0","0","0","54756","","null","","","null","70","NaN","","","","","","","","","","","","","","",""
"","S2","","html-keyboard-response","468","514051","0.0-1.0-634.0","0","0","54756","","null","","","null","70","","NaN","","","","","","","","","","","","","",""
"","response","","html-keyboard-response","469","514813","0.0-1.0-635.0-0.0","0","0","54756","","758","","","68","70","","","2","70","training","adjacent","CD","3","4","L.jpg","R.jpg","1","1","1","",""
"","feedback","","html-keyboard-response","470","515820","0.0-1.0-636.0-0.0","0","0","54756","","null","","","null","70","","","","","","","","","","","","","","","",""
"","ITI","","html-keyboard-response","471","516827","0.0-1.0-639.0","0","0","54756","","null","","","null","70","","","","","","","","","","","","","","","NaN",""
"","S1","","html-keyboard-response","472","517083","0.0-1.0-641.0","0","0","54756","","null","","","null","71","","","","","","","","","","","","","","","",""
"","ISI","","html-keyboard-response","473","519088","0.0-1.0-642.0","0","0","54756","","null","","","null","71","NaN","","","","","","","","","","","","","","",""
"","S2","","html-keyboard-response","474","519347","0.0-1.0-643.0","0","0","54756","","null","","","null","71","","NaN","","","","","","","","","","","","","",""
"","response","","html-keyboard-response","475","519522","0.0-1.0-644.0-0.0","0","0","54756","","170","","","75","71","","","2","71","training","adjacent","EF","5","6","P.jpg","Q.jpg","0","1","0","",""
"","feedback","","html-keyboard-response","476","520531","0.0-1.0-645.0-0.0","0","0","54756","","null","","","null","71","","","","","","","","","","","","","","","",""
"","time_out","","html-keyboard-response","477","522539","0.0-1.0-647.0-0.0","0","0","54756","","null","","","null","71","","","","","","","","","","","","","","","",""
"","ITI","","html-keyboard-response","478","523547","0.0-1.0-648.0","0","0","54756","","null","","","null","71","","","","","","","","","","","","","","","NaN",""
"","S1","","html-keyboard-response","479","523807","0.0-1.0-650.0","0","0","54756","","null","","","null","72","","","","","","","","","","","","","","","",""
"","ISI","","html-keyboard-response","480","525814","0.0-1.0-651.0","0","0","54756","","null","","","null","72","NaN","","","","","","","","","","","","","","",""
"","S2","","html-keyboard-response","481","526072","0.0-1.0-652.0","0","0","54756","","null","","","null","72","","NaN","","","","","","","","","","","","","",""
"","response","","html-keyboard-response","482","526624","0.0-1.0-653.0-0.0","0","0","54756","","546","","","68","72","","","2","72","training","adjacent","DE","4","5","R.jpg","P.jpg","1","1","1","",""
"","feedback","","html-keyboard-response","483","527633","0.0-1.0-654.0-0.0","0","0","54756","","null","","","null","72","","","","","","","","","","","","","","","",""
"","ITI","","html-keyboard-response","484","528640","0.0-1.0-657.0","0","0","54756","","null","","","null","72","","","","","","","","","","","","","","","NaN",""
"","S1","","html-keyboard-response","485","528898","0.0-1.0-659.0","0","0","54756","","null","","","null","73","","","","","","","","","","","","","","","",""
"","ISI","","html-keyboard-response","486","530907","0.0-1.0-660.0","0","0","54756","","null","","","null","73","NaN","","","","","","","","","","","","","","",""
"","S2","","html-keyboard-response","487","531167","0.0-1.0-661.0","0","0","54756","","null","","","null","73","","NaN","","","","","","","","","","","","","",""
"","response","","html-keyboard-response","488","531299","0.0-1.0-662.0-0.0","0","0","54756","","127","","","75","73","","","2","73","training","adjacent","FG","6","7","Q.jpg","M.jpg","0","1","0","",""
"","feedback","","html-keyboard-response","489","532308","0.0-1.0-663.0-0.0","0","0","54756","","null","","","null","73","","","","","","","","","","","","","","","",""
"","time_out","","html-keyboard-response","490","534315","0.0-1.0-665.0-0.0","0","0","54756","","null","","","null","73","","","","","","","","","","","","","","","",""
"","ITI","","html-keyboard-response","491","535324","0.0-1.0-666.0","0","0","54756","","null","","","null","73","","","","","","","","","","","","","","","NaN",""
"","S1","","html-keyboard-response","492","535585","0.0-1.0-668.0","0","0","54756","","null","","","null","74","","","","","","","","","","","","","","","",""
"","ISI","","html-keyboard-response","493","537590","0.0-1.0-669.0","0","0","54756","","null","","","null","74","NaN","","","","","","","","","","","","","","",""
"","S2","","html-keyboard-response","494","537849","0.0-1.0-670.0","0","0","54756","","null","","","null","74","","NaN","","","","","","","","","","","","","",""
"","response","","html-keyboard-response","495","538209","0.0-1.0-671.0-0.0","0","0","54756","","355","","","68","74","","","2","74","training","adjacent","FG","6","7","Q.jpg","M.jpg","1","1","1","",""
"","feedback","","html-keyboard-response","496","539217","0.0-1.0-672.0-0.0","0","0","54756","","null","","","null","74","","","","","","","","","","","","","","","",""
"","ITI","","html-keyboard-response","497","540224","0.0-1.0-675.0","0","0","54756","","null","","","null","74","","","","","","","","","","","","","","","NaN",""
"","S1","","html-keyboard-response","498","540482","0.0-1.0-677.0","0","0","54756","","null","","","null","75","","","","","","","","","","","","","","","",""
"","ISI","","html-keyboard-response","499","542491","0.0-1.0-678.0","0","0","54756","","null","","","null","75","NaN","","","","","","","","","","","","","","",""
"","S2","","html-keyboard-response","500","542747","0.0-1.0-679.0","0","0","54756","","null","","","null","75","","NaN","","","","","","","","","","","","","",""
"","response","","html-keyboard-response","501","542949","0.0-1.0-680.0-0.0","0","0","54756","","196","","","75","75","","","2","75","training","adjacent","FE","6","5","Q.jpg","P.jpg","0","0","1","",""
"","feedback","","html-keyboard-response","502","543958","0.0-1.0-681.0-0.0","0","0","54756","","null","","","null","75","","","","","","","","","","","","","","","",""
"","ITI","","html-keyboard-response","503","544966","0.0-1.0-684.0","0","0","54756","","null","","","null","75","","","","","","","","","","","","","","","NaN",""
"","S1","","html-keyboard-response","504","545224","0.0-1.0-686.0","0","0","54756","","null","","","null","76","","","","","","","","","","","","","","","",""
"","ISI","","html-keyboard-response","505","547233","0.0-1.0-687.0","0","0","54756","","null","","","null","76","NaN","","","","","","","","","","","","","","",""
"","S2","","html-keyboard-response","506","547489","0.0-1.0-688.0","0","0","54756","","null","","","null","76","","NaN","","","","","","","","","","","","","",""
"","response","","html-keyboard-response","507","547856","0.0-1.0-689.0-0.0","0","0","54756","","362","","","68","76","","","2","76","training","adjacent","CD","3","4","L.jpg","R.jpg","1","1","1","",""
"","feedback","","html-keyboard-response","508","548862","0.0-1.0-690.0-0.0","0","0","54756","","null","","","null","76","","","","","","","","","","","","","","","",""
"","ITI","","html-keyboard-response","509","549872","0.0-1.0-693.0","0","0","54756","","null","","","null","76","","","","","","","","","","","","","","","NaN",""
"","S1","","html-keyboard-response","510","550129","0.0-1.0-695.0","0","0","54756","","null","","","null","77","","","","","","","","","","","","","","","",""
"","ISI","","html-keyboard-response","511","552134","0.0-1.0-696.0","0","0","54756","","null","","","null","77","NaN","","","","","","","","","","","","","","",""
"","S2","","html-keyboard-response","512","552394","0.0-1.0-697.0","0","0","54756","","null","","","null","77","","NaN","","","","","","","","","","","","","",""
"","response","","html-keyboard-response","513","552536","0.0-1.0-698.0-0.0","0","0","54756","","138","","","75","77","","","2","77","training","adjacent","ED","5","4","P.jpg","R.jpg","0","0","1","",""
"","feedback","","html-keyboard-response","514","553542","0.0-1.0-699.0-0.0","0","0","54756","","null","","","null","77","","","","","","","","","","","","","","","",""
"","ITI","","html-keyboard-response","515","554550","0.0-1.0-702.0","0","0","54756","","null","","","null","77","","","","","","","","","","","","","","","NaN",""
"","S1","","html-keyboard-response","516","554807","0.0-1.0-704.0","0","0","54756","","null","","","null","78","","","","","","","","","","","","","","","",""
"","ISI","","html-keyboard-response","517","556817","0.0-1.0-705.0","0","0","54756","","null","","","null","78","NaN","","","","","","","","","","","","","","",""
"","S2","","html-keyboard-response","518","557073","0.0-1.0-706.0","0","0","54756","","null","","","null","78","","NaN","","","","","","","","","","","","","",""
"","response","","html-keyboard-response","519","557287","0.0-1.0-707.0-0.0","0","0","54756","","209","","","68","78","","","2","78","training","adjacent","CB","3","2","L.jpg","N.jpg","1","0","0","",""
"","feedback","","html-keyboard-response","520","558294","0.0-1.0-708.0-0.0","0","0","54756","","null","","","null","78","","","","","","","","","","","","","","","",""
"","time_out","","html-keyboard-response","521","560302","0.0-1.0-710.0-0.0","0","0","54756","","null","","","null","78","","","","","","","","","","","","","","","",""
"","ITI","","html-keyboard-response","522","561308","0.0-1.0-711.0","0","0","54756","","null","","","null","78","","","","","","","","","","","","","","","NaN",""
"","S1","","html-keyboard-response","523","561564","0.0-1.0-713.0","0","0","54756","","null","","","null","79","","","","","","","","","","","","","","","",""
"","ISI","","html-keyboard-response","524","563571","0.0-1.0-714.0","0","0","54756","","null","","","null","79","NaN","","","","","","","","","","","","","","",""
"","S2","","html-keyboard-response","525","563830","0.0-1.0-715.0","0","0","54756","","null","","","null","79","","NaN","","","","","","","","","","","","","",""
"","response","","html-keyboard-response","526","563961","0.0-1.0-716.0-0.0","0","0","54756","","126","","","75","79","","","2","79","training","adjacent","CD","3","4","L.jpg","R.jpg","0","1","0","",""
"","feedback","","html-keyboard-response","527","564971","0.0-1.0-717.0-0.0","0","0","54756","","null","","","null","79","","","","","","","","","","","","","","","",""
"","time_out","","html-keyboard-response","528","566977","0.0-1.0-719.0-0.0","0","0","54756","","null","","","null","79","","","","","","","","","","","","","","","",""
"","ITI","","html-keyboard-response","529","567985","0.0-1.0-720.0","0","0","54756","","null","","","null","79","","","","","","","","","","","","","","","NaN",""
"","S1","","html-keyboard-response","530","568241","0.0-1.0-722.0","0","0","54756","","null","","","null","80","","","","","","","","","","","","","","","",""
"","ISI","","html-keyboard-response","531","570248","0.0-1.0-723.0","0","0","54756","","null","","","null","80","NaN","","","","","","","","","","","","","","",""
"","S2","","html-keyboard-response","532","570508","0.0-1.0-724.0","0","0","54756","","null","","","null","80","","NaN","","","","","","","","","","","","","",""
"","response","","html-keyboard-response","533","570763","0.0-1.0-725.0-0.0","0","0","54756","","251","","","68","80","","","2","80","training","adjacent","GF","7","6","M.jpg","Q.jpg","1","0","0","",""
"","feedback","","html-keyboard-response","534","571771","0.0-1.0-726.0-0.0","0","0","54756","","null","","","null","80","","","","","","","","","","","","","","","",""
"","time_out","","html-keyboard-response","535","573779","0.0-1.0-728.0-0.0","0","0","54756","","null","","","null","80","","","","","","","","","","","","","","","",""
"","ITI","","html-keyboard-response","536","574785","0.0-1.0-729.0","0","0","54756","","null","","","null","80","","","","","","","","","","","","","","","NaN",""
"","S1","","html-keyboard-response","537","575046","0.0-1.0-731.0","0","0","54756","","null","","","null","81","","","","","","","","","","","","","","","",""
"","ISI","","html-keyboard-response","538","577052","0.0-1.0-732.0","0","0","54756","","null","","","null","81","NaN","","","","","","","","","","","","","","",""
"","S2","","html-keyboard-response","539","577309","0.0-1.0-733.0","0","0","54756","","null","","","null","81","","NaN","","","","","","","","","","","","","",""
"","response","","html-keyboard-response","540","577484","0.0-1.0-734.0-0.0","0","0","54756","","170","","","75","81","","","2","81","training","adjacent","FE","6","5","Q.jpg","P.jpg","0","0","1","",""
"","feedback","","html-keyboard-response","541","578492","0.0-1.0-735.0-0.0","0","0","54756","","null","","","null","81","","","","","","","","","","","","","","","",""
"","ITI","","html-keyboard-response","542","579500","0.0-1.0-738.0","0","0","54756","","null","","","null","81","","","","","","","","","","","","","","","NaN",""
"","S1","","html-keyboard-response","543","579757","0.0-1.0-740.0","0","0","54756","","null","","","null","82","","","","","","","","","","","","","","","",""
"","ISI","","html-keyboard-response","544","581766","0.0-1.0-741.0","0","0","54756","","null","","","null","82","NaN","","","","","","","","","","","","","","",""
"","S2","","html-keyboard-response","545","582025","0.0-1.0-742.0","0","0","54756","","null","","","null","82","","NaN","","","","","","","","","","","","","",""
"","response","","html-keyboard-response","546","582173","0.0-1.0-743.0-0.0","0","0","54756","","143","","","75","82","","","2","82","training","adjacent","CD","3","4","L.jpg","R.jpg","0","1","0","",""
"","feedback","","html-keyboard-response","547","583182","0.0-1.0-744.0-0.0","0","0","54756","","null","","","null","82","","","","","","","","","","","","","","","",""
"","time_out","","html-keyboard-response","548","585191","0.0-1.0-746.0-0.0","0","0","54756","","null","","","null","82","","","","","","","","","","","","","","","",""
"","ITI","","html-keyboard-response","549","586199","0.0-1.0-747.0","0","0","54756","","null","","","null","82","","","","","","","","","","","","","","","NaN",""
"","S1","","html-keyboard-response","550","586456","0.0-1.0-749.0","0","0","54756","","null","","","null","83","","","","","","","","","","","","","","","",""
"","ISI","","html-keyboard-response","551","588465","0.0-1.0-750.0","0","0","54756","","null","","","null","83","NaN","","","","","","","","","","","","","","",""
"","S2","","html-keyboard-response","552","588721","0.0-1.0-751.0","0","0","54756","","null","","","null","83","","NaN","","","","","","","","","","","","","",""
"","response","","html-keyboard-response","553","588846","0.0-1.0-752.0-0.0","0","0","54756","","121","","","68","83","","","2","83","training","adjacent","DE","4","5","R.jpg","P.jpg","1","1","1","",""
"","feedback","","html-keyboard-response","554","589857","0.0-1.0-753.0-0.0","0","0","54756","","null","","","null","83","","","","","","","","","","","","","","","",""
"","ITI","","html-keyboard-response","555","590865","0.0-1.0-756.0","0","0","54756","","null","","","null","83","","","","","","","","","","","","","","","NaN",""
"","S1","","html-keyboard-response","556","591121","0.0-1.0-758.0","0","0","54756","","null","","","null","84","","","","","","","","","","","","","","","",""
"","ISI","","html-keyboard-response","557","593127","0.0-1.0-759.0","0","0","54756","","null","","","null","84","NaN","","","","","","","","","","","","","","",""
"","S2","","html-keyboard-response","558","593387","0.0-1.0-760.0","0","0","54756","","null","","","null","84","","NaN","","","","","","","","","","","","","",""
"","response","","html-keyboard-response","559","593975","0.0-1.0-761.0-0.0","0","0","54756","","583","","","75","84","","","2","84","training","adjacent","DE","4","5","R.jpg","P.jpg","0","1","0","",""
"","feedback","","html-keyboard-response","560","594985","0.0-1.0-762.0-0.0","0","0","54756","","null","","","null","84","","","","","","","","","","","","","","","",""
"","time_out","","html-keyboard-response","561","596993","0.0-1.0-764.0-0.0","0","0","54756","","null","","","null","84","","","","","","","","","","","","","","","",""
"","ITI","","html-keyboard-response","562","598001","0.0-1.0-765.0","0","0","54756","","null","","","null","84","","","","","","","","","","","","","","","NaN",""
"","S1","","html-keyboard-response","563","598257","0.0-1.0-767.0","0","0","54756","","null","","","null","85","","","","","","","","","","","","","","","",""
"","ISI","","html-keyboard-response","564","600266","0.0-1.0-768.0","0","0","54756","","null","","","null","85","NaN","","","","","","","","","","","","","","",""
"","S2","","html-keyboard-response","565","600524","0.0-1.0-769.0","0","0","54756","","null","","","null","85","","NaN","","","","","","","","","","","","","",""
"","response","","html-keyboard-response","566","600672","0.0-1.0-770.0-0.0","0","0","54756","","143","","","68","85","","","2","85","training","adjacent","DC","4","3","R.jpg","L.jpg","1","0","0","",""
"","feedback","","html-keyboard-response","567","601681","0.0-1.0-771.0-0.0","0","0","54756","","null","","","null","85","","","","","","","","","","","","","","","",""
"","time_out","","html-keyboard-response","568","603688","0.0-1.0-773.0-0.0","0","0","54756","","null","","","null","85","","","","","","","","","","","","","","","",""
"","ITI","","html-keyboard-response","569","604698","0.0-1.0-774.0","0","0","54756","","null","","","null","85","","","","","","","","","","","","","","","NaN",""
"","S1","","html-keyboard-response","570","604957","0.0-1.0-776.0","0","0","54756","","null","","","null","86","","","","","","","","","","","","","","","",""
"","ISI","","html-keyboard-response","571","606967","0.0-1.0-777.0","0","0","54756","","null","","","null","86","NaN","","","","","","","","","","","","","","",""
"","S2","","html-keyboard-response","572","607225","0.0-1.0-778.0","0","0","54756","","null","","","null","86","","NaN","","","","","","","","","","","","","",""
"","response","","html-keyboard-response","573","607368","0.0-1.0-779.0-0.0","0","0","54756","","139","","","68","86","","","2","86","training","adjacent","BC","2","3","N.jpg","L.jpg","1","1","1","",""
"","feedback","","html-keyboard-response","574","608378","0.0-1.0-780.0-0.0","0","0","54756","","null","","","null","86","","","","","","","","","","","","","","","",""
"","ITI","","html-keyboard-response","575","609388","0.0-1.0-783.0","0","0","54756","","null","","","null","86","","","","","","","","","","","","","","","NaN",""
"","S1","","html-keyboard-response","576","609644","0.0-1.0-785.0","0","0","54756","","null","","","null","87","","","","","","","","","","","","","","","",""
"","ISI","","html-keyboard-response","577","611654","0.0-1.0-786.0","0","0","54756","","null","","","null","87","NaN","","","","","","","","","","","","","","",""
"","S2","","html-keyboard-response","578","611911","0.0-1.0-787.0","0","0","54756","","null","","","null","87","","NaN","","","","","","","","","","","","","",""
"","response","","html-keyboard-response","579","612267","0.0-1.0-788.0-0.0","0","0","54756","","352","","","68","87","","","2","87","training","adjacent","EF","5","6","P.jpg","Q.jpg","1","1","1","",""
