"success","ttype","start_time","trial_type","trial_index","time_elapsed","internal_node_id","warning","missed_checkup","PID","view_history","rt","responses","repeat_instructions","key_press","index","keypress_isi","keypress_S2","block","trial_num","phase","group_type","pair_type","S1_stim","S2_stim","S1_img","S2_img","S1_chosen","S1_higher","accuracy","keypress_iti","total_bonus_tally"
"true","full_screen","d03072023hr1803","fullscreen","0","7555","0.0-0.0","0","0","51800","","","","","","","","","","","","","","","","","","","","","",""
"","instructions","","instructions","1","36813","0.0-1.0-0.0-0.0","0","0","51800","[{""page_index"":0,""viewing_time"":3408},{""page_index"":1,""viewing_time"":17640},{""page_index"":2,""viewing_time"":6480},{""page_index"":3,""viewing_time"":1721}]","29249","","","","","","","","","","","","","","","","","","","",""
"","comprehension_check","","survey-multi-choice","2","62179","0.0-1.0-0.0-1.0","0","0","51800","","25356","{""Q0"":""True"",""Q1"":""D"",""Q2"":""Once the second image appears and while the screen 'MAKE A CHOICE' is shown"",""Q3"":""Green mark"",""Q4"":""either D or K""}","0","","","","","","","","","","","","","","","","","",""
"","start_exp","","html-keyboard-response","3","65473","0.0-1.0-1.0","0","0","51800","","3289","","","32","","","","","","","","","","","","","","","","",""
"","S1","","html-keyboard-response","4","65725","0.0-1.0-2.0","0","0","51800","","null","","","null","0","","","","","","","","","","","","","","","",""
"","ISI","","html-keyboard-response","5","66726","0.0-1.0-3.0","0","0","51800","","null","","","null","0","NaN","","","","","","","","","","","","","","",""
"","S2","","html-keyboard-response","6","66982","0.0-1.0-4.0","0","0","51800","","null","","","null","0","","NaN","","","","","","","","","","","","","",""
"","response","","html-keyboard-response","7","68734","0.0-1.0-5.0-0.0","0","0","51800","","null","","","null","0","","","1","0","training","adjacent","FG","6","7","M.jpg","L.jpg","NaN","1","0","",""
"","too_slow_prompt","","html-keyboard-response","8","69736","0.0-1.0-7.0-0.0","1","0","51800","","null","","","null","","","","","","","","","","","","","","","","",""
"","time_out","","html-keyboard-response","9","71739","0.0-1.0-8.0-0.0","0","0","51800","","null","","","null","0","","","","","","","","","","","","","","","",""
"","ITI","","html-keyboard-response","10","72740","0.0-1.0-9.0","0","0","51800","","null","","","null","0","","","","","","","","","","","","","","","NaN",""
"","S1","","html-keyboard-response","11","72993","0.0-1.0-11.0","0","0","51800","","null","","","null","1","","","","","","","","","","","","","","","",""
"","ISI","","html-keyboard-response","12","74038","0.0-1.0-12.0","0","0","51800","","718","","","68","1","d","","","","","","","","","","","","","","",""
"","S2","","html-keyboard-response","13","74291","0.0-1.0-13.0","0","0","51800","","null","","","null","1","","NaN","","","","","","","","","","","","","",""
"","response","","html-keyboard-response","14","74851","0.0-1.0-14.0-0.0","0","0","51800","","559","","","68","1","","","1","1","training","adjacent","BC","2","3","P.jpg","N.jpg","1","1","1","",""
"","feedback","","html-keyboard-response","15","75853","0.0-1.0-15.0-0.0","0","0","51800","","null","","","null","1","","","","","","","","","","","","","","","",""
"","ITI","","html-keyboard-response","16","76856","0.0-1.0-18.0","0","0","51800","","null","","","null","1","","","","","","","","","","","","","","","NaN",""
"","S1","","html-keyboard-response","17","77107","0.0-1.0-20.0","0","0","51800","","null","","","null","2","","","","","","","","","","","","","","","",""
"","ISI","","html-keyboard-response","18","78109","0.0-1.0-21.0","0","0","51800","","304","","","68","2","d","","","","","","","","","","","","","","",""
"","S2","","html-keyboard-response","19","78281","0.0-1.0-22.0","0","0","51800","","171","","","68","2","","d","1","2","training","adjacent","BA","2","1","P.jpg","R.jpg","1","0","0","",""
"","feedback","","html-keyboard-response","20","79284","0.0-1.0-24.0-0.0","0","0","51800","","null","","","null","2","","","","","","","","","","","","","","","",""
"","time_out","","html-keyboard-response","21","81285","0.0-1.0-26.0-0.0","0","0","51800","","null","","","null","2","","","","","","","","","","","","","","","",""
"","ITI","","html-keyboard-response","22","82287","0.0-1.0-27.0","0","0","51800","","null","","","null","2","","","","","","","","","","","","","","","NaN",""
"","S1","","html-keyboard-response","23","82539","0.0-1.0-29.0","0","0","51800","","null","","","null","3","","","","","","","","","","","","","","","",""
"","ISI","","html-keyboard-response","24","83541","0.0-1.0-30.0","0","0","51800","","100","","","68","3","d","","","","","","","","","","","","","","",""
"","S2","","html-keyboard-response","25","83795","0.0-1.0-31.0","0","0","51800","","null","","","null","3","","NaN","","","","","","","","","","","","","",""
"","response","","html-keyboard-response","26","83858","0.0-1.0-32.0-0.0","0","0","51800","","61","","","68","3","","","1","3","training","adjacent","CB","3","2","N.jpg","P.jpg","1","0","0","",""
"","feedback","","html-keyboard-response","27","84861","0.0-1.0-33.0-0.0","0","0","51800","","null","","","null","3","","","","","","","","","","","","","","","",""
"","time_out","","html-keyboard-response","28","86863","0.0-1.0-35.0-0.0","0","0","51800","","null","","","null","3","","","","","","","","","","","","","","","",""
"","ITI","","html-keyboard-response","29","87865","0.0-1.0-36.0","0","0","51800","","null","","","null","3","","","","","","","","","","","","","","","NaN",""
"","S1","","html-keyboard-response","30","88117","0.0-1.0-38.0","0","0","51800","","null","","","null","4","","","","","","","","","","","","","","","",""
"","ISI","","html-keyboard-response","31","89119","0.0-1.0-39.0","0","0","51800","","495","","","68","4","d","","","","","","","","","","","","","","",""
"","S2","","html-keyboard-response","32","89371","0.0-1.0-40.0","0","0","51800","","null","","","null","4","","NaN","","","","","","","","","","","","","",""
"","response","","html-keyboard-response","33","89663","0.0-1.0-41.0-0.0","0","0","51800","","290","","","68","4","","","1","4","training","adjacent","DC","4","3","Q.jpg","N.jpg","1","0","0","",""
"","feedback","","html-keyboard-response","34","90666","0.0-1.0-42.0-0.0","0","0","51800","","null","","","null","4","","","","","","","","","","","","","","","",""
"","time_out","","html-keyboard-response","35","92675","0.0-1.0-44.0-0.0","0","0","51800","","null","","","null","4","","","","","","","","","","","","","","","",""
"","ITI","","html-keyboard-response","36","93677","0.0-1.0-45.0","0","0","51800","","635","","","68","4","","","","","","","","","","","","","","","d",""
"","S1","","html-keyboard-response","37","93929","0.0-1.0-47.0","0","0","51800","","null","","","null","5","","","","","","","","","","","","","","","",""
"","ISI","","html-keyboard-response","38","94932","0.0-1.0-48.0","0","0","51800","","null","","","null","5","NaN","","","","","","","","","","","","","","",""
"","S2","","html-keyboard-response","39","95185","0.0-1.0-49.0","0","0","51800","","null","","","null","5","","NaN","","","","","","","","","","","","","",""
"","response","","html-keyboard-response","40","95910","0.0-1.0-50.0-0.0","0","0","51800","","723","","","68","5","","","1","5","training","adjacent","CD","3","4","N.jpg","Q.jpg","1","1","1","",""
"","feedback","","html-keyboard-response","41","96913","0.0-1.0-51.0-0.0","0","0","51800","","null","","","null","5","","","","","","","","","","","","","","","",""
"","ITI","","html-keyboard-response","42","97914","0.0-1.0-54.0","0","0","51800","","null","","","null","5","","","","","","","","","","","","","","","NaN",""
"","S1","","html-keyboard-response","43","98214","0.0-1.0-56.0","0","0","51800","","null","","","null","6","","","","","","","","","","","","","","","",""
"","ISI","","html-keyboard-response","44","99216","0.0-1.0-57.0","0","0","51800","","705","","","68","6","d","","","","","","","","","","","","","","",""
"","S2","","html-keyboard-response","45","99468","0.0-1.0-58.0","0","0","51800","","null","","","null","6","","NaN","","","","","","","","","","","","","",""
"","response","","html-keyboard-response","46","99713","0.0-1.0-59.0-0.0","0","0","51800","","242","","","68","6","","","1","6","training","adjacent","ED","5","4","O.jpg","Q.jpg","1","0","0","",""
"","feedback","","html-keyboard-response","47","100715","0.0-1.0-60.0-0.0","0","0","51800","","null","","","null","6","","","","","","","","","","","","","","","",""
"","time_out","","html-keyboard-response","48","102718","0.0-1.0-62.0-0.0","0","0","51800","","null","","","null","6","","","","","","","","","","","","","","","",""
"","ITI","","html-keyboard-response","49","103721","0.0-1.0-63.0","0","0","51800","","null","","","null","6","","","","","","","","","","","","","","","NaN",""
"","S1","","html-keyboard-response","50","103974","0.0-1.0-65.0","0","0","51800","","null","","","null","7","","","","","","","","","","","","","","","",""
"","ISI","","html-keyboard-response","51","104976","0.0-1.0-66.0","0","0","51800","","346","","","75","7","k","","","","","","","","","","","","","","",""
"","S2","","html-keyboard-response","52","105227","0.0-1.0-67.0","0","0","51800","","null","","","null","7","","NaN","","","","","","","","","","","","","",""
"","response","","html-keyboard-response","53","105274","0.0-1.0-68.0-0.0","0","0","51800","","46","","","75","7","","","1","7","training","adjacent","AB","1","2","R.jpg","P.jpg","0","1","0","",""
"","feedback","","html-keyboard-response","54","106276","0.0-1.0-69.0-0.0","0","0","51800","","null","","","null","7","","","","","","","","","","","","","","","",""
"","time_out","","html-keyboard-response","55","108278","0.0-1.0-71.0-0.0","0","0","51800","","null","","","null","7","","","","","","","","","","","","","","","",""
"","ITI","","html-keyboard-response","56","109280","0.0-1.0-72.0","0","0","51800","","2","","","68","7","","","","","","","","","","","","","","","d",""
"","S1","","html-keyboard-response","57","109532","0.0-1.0-74.0","0","0","51800","","null","","","null","8","","","","","","","","","","","","","","","",""
"","ISI","","html-keyboard-response","58","110534","0.0-1.0-75.0","0","0","51800","","540","","","68","8","d","","","","","","","","","","","","","","",""
"","S2","","html-keyboard-response","59","110786","0.0-1.0-76.0","0","0","51800","","null","","","null","8","","NaN","","","","","","","","","","","","","",""
"","response","","html-keyboard-response","60","110841","0.0-1.0-77.0-0.0","0","0","51800","","53","","","68","8","","","1","8","training","adjacent","BC","2","3","P.jpg","N.jpg","1","1","1","",""
"","feedback","","html-keyboard-response","61","111843","0.0-1.0-78.0-0.0","0","0","51800","","null","","","null","8","","","","","","","","","","","","","","","",""
"","ITI","","html-keyboard-response","62","112845","0.0-1.0-81.0","0","0","51800","","null","","","null","8","","","","","","","","","","","","","","","NaN",""
"","S1","","html-keyboard-response","63","113097","0.0-1.0-83.0","0","0","51800","","null","","","null","9","","","","","","","","","","","","","","","",""
"","ISI","","html-keyboard-response","64","114098","0.0-1.0-84.0","0","0","51800","","431","","","68","9","d","","","","","","","","","","","","","","",""
"","S2","","html-keyboard-response","65","114350","0.0-1.0-85.0","0","0","51800","","null","","","null","9","","NaN","","","","","","","","","","","","","",""
"","response","","html-keyboard-response","66","114825","0.0-1.0-86.0-0.0","0","0","51800","","473","","","68","9","","","1","9","training","adjacent","EF","5","6","O.jpg","M.jpg","1","1","1","",""
"","feedback","","html-keyboard-response","67","115835","0.0-1.0-87.0-0.0","0","0","51800","","null","","","null","9","","","","","","","","","","","","","","","",""
"","ITI","","html-keyboard-response","68","116837","0.0-1.0-90.0","0","0","51800","","null","","","null","9","","","","","","","","","","","","","","","NaN",""
"","S1","","html-keyboard-response","69","117089","0.0-1.0-92.0","0","0","51800","","null","","","null","10","","","","","","","","","","","","","","","",""
"","ISI","","html-keyboard-response","70","118090","0.0-1.0-93.0","0","0","51800","","701","","","75","10","k","","","","","","","","","","","","","","",""
"","S2","","html-keyboard-response","71","118233","0.0-1.0-94.0","0","0","51800","","140","","","75","10","","k","1","10","training","adjacent","EF","5","6","O.jpg","M.jpg","0","1","0","",""
"","feedback","","html-keyboard-response","72","119236","0.0-1.0-96.0-0.0","0","0","51800","","null","","","null","10","","","","","","","","","","","","","","","",""
"","time_out","","html-keyboard-response","73","121238","0.0-1.0-98.0-0.0","0","0","51800","","null","","","null","10","","","","","","","","","","","","","","","",""
"","ITI","","html-keyboard-response","74","122239","0.0-1.0-99.0","0","0","51800","","265","","","68","10","","","","","","","","","","","","","","","d",""
"","S1","","html-keyboard-response","75","122491","0.0-1.0-101.0","0","0","51800","","null","","","null","11","","","","","","","","","","","","","","","",""
"","ISI","","html-keyboard-response","76","123500","0.0-1.0-102.0","0","0","51800","","628","","","68","11","d","","","","","","","","","","","","","","",""
"","S2","","html-keyboard-response","77","123752","0.0-1.0-103.0","0","0","51800","","null","","","null","11","","NaN","","","","","","","","","","","","","",""
"","response","","html-keyboard-response","78","124002","0.0-1.0-104.0-0.0","0","0","51800","","248","","","68","11","","","1","11","training","adjacent","BA","2","1","P.jpg","R.jpg","1","0","0","",""
"","feedback","","html-keyboard-response","79","125006","0.0-1.0-105.0-0.0","0","0","51800","","null","","","null","11","","","","","","","","","","","","","","","",""
"","time_out","","html-keyboard-response","80","127007","0.0-1.0-107.0-0.0","0","0","51800","","null","","","null","11","","","","","","","","","","","","","","","",""
"","ITI","","html-keyboard-response","81","128010","0.0-1.0-108.0","0","0","51800","","null","","","null","11","","","","","","","","","","","","","","","NaN",""
"","S1","","html-keyboard-response","82","128267","0.0-1.0-110.0","0","0","51800","","null","","","null","12","","","","","","","","","","","","","","","",""
"","ISI","","html-keyboard-response","83","129270","0.0-1.0-111.0","0","0","51800","","725","","","68","12","d","","","","","","","","","","","","","","",""
"","S2","","html-keyboard-response","84","129521","0.0-1.0-112.0","0","0","51800","","null","","","null","12","","NaN","","","","","","","","","","","","","",""
"","response","","html-keyboard-response","85","129745","0.0-1.0-113.0-0.0","0","0","51800","","222","","","68","12","","","1","12","training","adjacent","FE","6","5","M.jpg","O.jpg","1","0","0","",""
"","feedback","","html-keyboard-response","86","130748","0.0-1.0-114.0-0.0","0","0","51800","","null","","","null","12","","","","","","","","","","","","","","","",""
"","time_out","","html-keyboard-response","87","132748","0.0-1.0-116.0-0.0","0","0","51800","","null","","","null","12","","","","","","","","","","","","","","","",""
"","ITI","","html-keyboard-response","88","133753","0.0-1.0-117.0","0","0","51800","","null","","","null","12","","","","","","","","","","","","","","","NaN",""
"","S1","","html-keyboard-response","89","134007","0.0-1.0-119.0","0","0","51800","","null","","","null","13","","","","","","","","","","","","","","","",""
"","ISI","","html-keyboard-response","90","135009","0.0-1.0-120.0","0","0","51800","","627","","","75","13","k","","","","","","","","","","","","","","",""
"","S2","","html-keyboard-response","91","135103","0.0-1.0-121.0","0","0","51800","","93","","","75","13","","k","1","13","training","adjacent","AB","1","2","R.jpg","P.jpg","0","1","0","",""
"","feedback","","html-keyboard-response","92","136105","0.0-1.0-123.0-0.0","0","0","51800","","null","","","null","13","","","","","","","","","","","","","","","",""
"","time_out","","html-keyboard-response","93","138108","0.0-1.0-125.0-0.0","0","0","51800","","null","","","null","13","","","","","","","","","","","","","","","",""
"","ITI","","html-keyboard-response","94","139110","0.0-1.0-126.0","0","0","51800","","892","","","68","13","","","","","","","","","","","","","","","d",""
"","S1","","html-keyboard-response","95","139362","0.0-1.0-128.0","0","0","51800","","null","","","null","14","","","","","","","","","","","","","","","",""
"","ISI","","html-keyboard-response","96","140364","0.0-1.0-129.0","0","0","51800","","561","","","68","14","d","","","","","","","","","","","","","","",""
"","S2","","html-keyboard-response","97","140617","0.0-1.0-130.0","0","0","51800","","null","","","null","14","","NaN","","","","","","","","","","","","","",""
"","response","","html-keyboard-response","98","141172","0.0-1.0-131.0-0.0","0","0","51800","","554","","","68","14","","","1","14","training","adjacent","GF","7","6","L.jpg","M.jpg","1","0","0","",""
"","feedback","","html-keyboard-response","99","142174","0.0-1.0-132.0-0.0","0","0","51800","","null","","","null","14","","","","","","","","","","","","","","","",""
"","time_out","","html-keyboard-response","100","144176","0.0-1.0-134.0-0.0","0","0","51800","","null","","","null","14","","","","","","","","","","","","","","","",""
"","ITI","","html-keyboard-response","101","145177","0.0-1.0-135.0","0","0","51800","","null","","","null","14","","","","","","","","","","","","","","","NaN",""
"","S1","","html-keyboard-response","102","145431","0.0-1.0-137.0","0","0","51800","","null","","","null","15","","","","","","","","","","","","","","","",""
"","ISI","","html-keyboard-response","103","146442","0.0-1.0-138.0","0","0","51800","","null","","","null","15","NaN","","","","","","","","","","","","","","",""
"","S2","","html-keyboard-response","104","146693","0.0-1.0-139.0","0","0","51800","","null","","","null","15","","NaN","","","","","","","","","","","","","",""
"","response","","html-keyboard-response","105","147064","0.0-1.0-140.0-0.0","0","0","51800","","370","","","75","15","","","1","15","training","adjacent","CD","3","4","N.jpg","Q.jpg","0","1","0","",""
"","feedback","","html-keyboard-response","106","148065","0.0-1.0-141.0-0.0","0","0","51800","","null","","","null","15","","","","","","","","","","","","","","","",""
"","time_out","","html-keyboard-response","107","150067","0.0-1.0-143.0-0.0","0","0","51800","","null","","","null","15","","","","","","","","","","","","","","","",""
"","ITI","","html-keyboard-response","108","151069","0.0-1.0-144.0","0","0","51800","","null","","","null","15","","","","","","","","","","","","","","","NaN",""
"","S1","","html-keyboard-response","109","151320","0.0-1.0-146.0","0","0","51800","","null","","","null","16","","","","","","","","","","","","","","","",""
"","ISI","","html-keyboard-response","110","152322","0.0-1.0-147.0","0","0","51800","","null","","","null","16","NaN","","","","","","","","","","","","","","",""
"","S2","","html-keyboard-response","111","152573","0.0-1.0-148.0","0","0","51800","","null","","","null","16","","NaN","","","","","","","","","","","","","",""
"","response","","html-keyboard-response","112","153242","0.0-1.0-149.0-0.0","0","0","51800","","667","","","68","16","","","1","16","training","adjacent","FE","6","5","M.jpg","O.jpg","1","0","0","",""
"","feedback","","html-keyboard-response","113","154244","0.0-1.0-150.0-0.0","0","0","51800","","null","","","null","16","","","","","","","","","","","","","","","",""
"","time_out","","html-keyboard-response","114","156246","0.0-1.0-152.0-0.0","0","0","51800","","null","","","null","16","","","","","","","","","","","","","","","",""
"","ITI","","html-keyboard-response","115","157249","0.0-1.0-153.0","0","0","51800","","null","","","null","16","","","","","","","","","","","","","","","NaN",""
"","S1","","html-keyboard-response","116","157502","0.0-1.0-155.0","0","0","51800","","null","","","null","17","","","","","","","","","","","","","","","",""
"","ISI","","html-keyboard-response","117","158504","0.0-1.0-156.0","0","0","51800","","null","","","null","17","NaN","","","","","","","","","","","","","","",""
"","S2","","html-keyboard-response","118","158757","0.0-1.0-157.0","0","0","51800","","null","","","null","17","","NaN","","","","","","","","","","","","","",""
"","response","","html-keyboard-response","119","159453","0.0-1.0-158.0-0.0","0","0","51800","","694","","","75","17","","","1","17","training","adjacent","DE","4","5","Q.jpg","O.jpg","0","1","0","",""
"","feedback","","html-keyboard-response","120","160506","0.0-1.0-159.0-0.0","0","0","51800","","null","","","null","17","","","","","","","","","","","","","","","",""
"","time_out","","html-keyboard-response","121","162509","0.0-1.0-161.0-0.0","0","0","51800","","null","","","null","17","","","","","","","","","","","","","","","",""
"","ITI","","html-keyboard-response","122","163511","0.0-1.0-162.0","0","0","51800","","null","","","null","17","","","","","","","","","","","","","","","NaN",""
"","S1","","html-keyboard-response","123","163762","0.0-1.0-164.0","0","0","51800","","null","","","null","18","","","","","","","","","","","","","","","",""
"","ISI","","html-keyboard-response","124","164773","0.0-1.0-165.0","0","0","51800","","749","","","68","18","d","","","","","","","","","","","","","","",""
"","S2","","html-keyboard-response","125","164873","0.0-1.0-166.0","0","0","51800","","98","","","68","18","","d","1","18","training","adjacent","AB","1","2","R.jpg","P.jpg","1","1","1","",""
"","feedback","","html-keyboard-response","126","165875","0.0-1.0-168.0-0.0","0","0","51800","","null","","","null","18","","","","","","","","","","","","","","","",""
"","ITI","","html-keyboard-response","127","166878","0.0-1.0-171.0","0","0","51800","","null","","","null","18","","","","","","","","","","","","","","","NaN",""
"","S1","","html-keyboard-response","128","167134","0.0-1.0-173.0","0","0","51800","","null","","","null","19","","","","","","","","","","","","","","","",""
"","ISI","","html-keyboard-response","129","168137","0.0-1.0-174.0","0","0","51800","","417","","","75","19","k","","","","","","","","","","","","","","",""
"","S2","","html-keyboard-response","130","168390","0.0-1.0-175.0","0","0","51800","","null","","","null","19","","NaN","","","","","","","","","","","","","",""
"","response","","html-keyboard-response","131","168410","0.0-1.0-176.0-0.0","0","0","51800","","19","","","75","19","","","1","19","training","adjacent","GF","7","6","L.jpg","M.jpg","0","0","1","",""
"","feedback","","html-keyboard-response","132","169411","0.0-1.0-177.0-0.0","0","0","51800","","null","","","null","19","","","","","","","","","","","","","","","",""
"","ITI","","html-keyboard-response","133","170424","0.0-1.0-180.0","0","0","51800","","null","","","null","19","","","","","","","","","","","","","","","NaN",""
"","S1","","html-keyboard-response","134","170676","0.0-1.0-182.0","0","0","51800","","null","","","null","20","","","","","","","","","","","","","","","",""
"","ISI","","html-keyboard-response","135","171677","0.0-1.0-183.0","0","0","51800","","null","","","null","20","NaN","","","","","","","","","","","","","","",""
"","S2","","html-keyboard-response","136","171930","0.0-1.0-184.0","0","0","51800","","null","","","null","20","","NaN","","","","","","","","","","","","","",""
"","response","","html-keyboard-response","137","172619","0.0-1.0-185.0-0.0","0","0","51800","","689","","","68","20","","","1","20","training","adjacent","BC","2","3","P.jpg","N.jpg","1","1","1","",""
"","feedback","","html-keyboard-response","138","173622","0.0-1.0-186.0-0.0","0","0","51800","","null","","","null","20","","","","","","","","","","","","","","","",""
"","ITI","","html-keyboard-response","139","174624","0.0-1.0-189.0","0","0","51800","","null","","","null","20","","","","","","","","","","","","","","","NaN",""
"","S1","","html-keyboard-response","140","174876","0.0-1.0-191.0","0","0","51800","","null","","","null","21","","","","","","","","","","","","","","","",""
"","ISI","","html-keyboard-response","141","175878","0.0-1.0-192.0","0","0","51800","","null","","","null","21","NaN","","","","","","","","","","","","","","",""
"","S2","","html-keyboard-response","142","176131","0.0-1.0-193.0","0","0","51800","","null","","","null","21","","NaN","","","","","","","","","","","","","",""
"","response","","html-keyboard-response","143","176829","0.0-1.0-194.0-0.0","0","0","51800","","696","","","68","21","","","1","21","training","adjacent","DE","4","5","Q.jpg","O.jpg","1","1","1","",""
"","feedback","","html-keyboard-response","144","177831","0.0-1.0-195.0-0.0","0","0","51800","","null","","","null","21","","","","","","","","","","","","","","","",""
"","ITI","","html-keyboard-response","145","178834","0.0-1.0-198.0","0","0","51800","","null","","","null","21","","","","","","","","","","","","","","","NaN",""
"","S1","","html-keyboard-response","146","179089","0.0-1.0-200.0","0","0","51800","","null","","","null","22","","","","","","","","","","","","","","","",""
"","ISI","","html-keyboard-response","147","180090","0.0-1.0-201.0","0","0","51800","","null","","","null","22","NaN","","","","","","","","","","","","","","",""
"","S2","","html-keyboard-response","148","180343","0.0-1.0-202.0","0","0","51800","","null","","","null","22","","NaN","","","","","","","","","","","","","",""
"","response","","html-keyboard-response","149","180951","0.0-1.0-203.0-0.0","0","0","51800","","606","","","68","22","","","1","22","training","adjacent","FG","6","7","M.jpg","L.jpg","1","1","1","",""
"","feedback","","html-keyboard-response","150","181954","0.0-1.0-204.0-0.0","0","0","51800","","null","","","null","22","","","","","","","","","","","","","","","",""
"","ITI","","html-keyboard-response","151","182956","0.0-1.0-207.0","0","0","51800","","null","","","null","22","","","","","","","","","","","","","","","NaN",""
"","S1","","html-keyboard-response","152","183208","0.0-1.0-209.0","0","0","51800","","null","","","null","23","","","","","","","","","","","","","","","",""
"","ISI","","html-keyboard-response","153","184210","0.0-1.0-210.0","0","0","51800","","null","","","null","23","NaN","","","","","","","","","","","","","","",""
"","S2","","html-keyboard-response","154","184466","0.0-1.0-211.0","0","0","51800","","null","","","null","23","","NaN","","","","","","","","","","","","","",""
"","response","","html-keyboard-response","155","185654","0.0-1.0-212.0-0.0","0","0","51800","","1185","","","68","23","","","1","23","training","adjacent","FE","6","5","M.jpg","O.jpg","1","0","0","",""
"","feedback","","html-keyboard-response","156","186656","0.0-1.0-213.0-0.0","0","0","51800","","null","","","null","23","","","","","","","","","","","","","","","",""
"","time_out","","html-keyboard-response","157","188658","0.0-1.0-215.0-0.0","0","0","51800","","null","","","null","23","","","","","","","","","","","","","","","",""
"","ITI","","html-keyboard-response","158","189667","0.0-1.0-216.0","0","0","51800","","null","","","null","23","","","","","","","","","","","","","","","NaN",""
"","S1","","html-keyboard-response","159","189924","0.0-1.0-218.0","0","0","51800","","null","","","null","24","","","","","","","","","","","","","","","",""
"","ISI","","html-keyboard-response","160","190928","0.0-1.0-219.0","0","0","51800","","null","","","null","24","NaN","","","","","","","","","","","","","","",""
"","S2","","html-keyboard-response","161","191181","0.0-1.0-220.0","0","0","51800","","null","","","null","24","","NaN","","","","","","","","","","","","","",""
"","response","","html-keyboard-response","162","192132","0.0-1.0-221.0-0.0","0","0","51800","","950","","","75","24","","","1","24","training","adjacent","DC","4","3","Q.jpg","N.jpg","0","0","1","",""
"","feedback","","html-keyboard-response","163","193135","0.0-1.0-222.0-0.0","0","0","51800","","null","","","null","24","","","","","","","","","","","","","","","",""
"","ITI","","html-keyboard-response","164","194137","0.0-1.0-225.0","0","0","51800","","null","","","null","24","","","","","","","","","","","","","","","NaN",""
"","S1","","html-keyboard-response","165","194390","0.0-1.0-227.0","0","0","51800","","null","","","null","25","","","","","","","","","","","","","","","",""
"","ISI","","html-keyboard-response","166","195392","0.0-1.0-228.0","0","0","51800","","null","","","null","25","NaN","","","","","","","","","","","","","","",""
"","S2","","html-keyboard-response","167","195645","0.0-1.0-229.0","0","0","51800","","null","","","null","25","","NaN","","","","","","","","","","","","","",""
"","response","","html-keyboard-response","168","195902","0.0-1.0-230.0-0.0","0","0","51800","","255","","","68","25","","","1","25","training","adjacent","BC","2","3","P.jpg","N.jpg","1","1","1","",""
"","feedback","","html-keyboard-response","169","196903","0.0-1.0-231.0-0.0","0","0","51800","","null","","","null","25","","","","","","","","","","","","","","","",""
"","ITI","","html-keyboard-response","170","197905","0.0-1.0-234.0","0","0","51800","","null","","","null","25","","","","","","","","","","","","","","","NaN",""
"","S1","","html-keyboard-response","171","198158","0.0-1.0-236.0","0","0","51800","","null","","","null","26","","","","","","","","","","","","","","","",""
"","ISI","","html-keyboard-response","172","199163","0.0-1.0-237.0","0","0","51800","","null","","","null","26","NaN","","","","","","","","","","","","","","",""
"","S2","","html-keyboard-response","173","199312","0.0-1.0-238.0","0","0","51800","","147","","","75","26","","k","1","26","training","adjacent","DE","4","5","Q.jpg","O.jpg","0","1","0","",""
"","feedback","","html-keyboard-response","174","200313","0.0-1.0-240.0-0.0","0","0","51800","","null","","","null","26","","","","","","","","","","","","","","","",""
"","time_out","","html-keyboard-response","175","202316","0.0-1.0-242.0-0.0","0","0","51800","","null","","","null","26","","","","","","","","","","","","","","","",""
"","ITI","","html-keyboard-response","176","203319","0.0-1.0-243.0","0","0","51800","","null","","","null","26","","","","","","","","","","","","","","","NaN",""
"","S1","","html-keyboard-response","177","203570","0.0-1.0-245.0","0","0","51800","","null","","","null","27","","","","","","","","","","","","","","","",""
"","ISI","","html-keyboard-response","178","204574","0.0-1.0-246.0","0","0","51800","","431","","","68","27","d","","","","","","","","","","","","","","",""
"","S2","","html-keyboard-response","179","204826","0.0-1.0-247.0","0","0","51800","","null","","","null","27","","NaN","","","","","","","","","","","","","",""
"","response","","html-keyboard-response","180","206579","0.0-1.0-248.0-0.0","0","0","51800","","null","","","null","27","","","1","27","training","adjacent","DC","4","3","Q.jpg","N.jpg","NaN","0","0","",""
"","too_slow_prompt","","html-keyboard-response","181","207582","0.0-1.0-250.0-0.0","1","0","51800","","null","","","null","","","","","","","","","","","","","","","","",""
"","time_out","","html-keyboard-response","182","209584","0.0-1.0-251.0-0.0","0","0","51800","","null","","","null","27","","","","","","","","","","","","","","","",""
"","ITI","","html-keyboard-response","183","210586","0.0-1.0-252.0","0","0","51800","","null","","","null","27","","","","","","","","","","","","","","","NaN",""
"","S1","","html-keyboard-response","184","210839","0.0-1.0-254.0","0","0","51800","","null","","","null","28","","","","","","","","","","","","","","","",""
"","ISI","","html-keyboard-response","185","211842","0.0-1.0-255.0","0","0","51800","","null","","","null","28","NaN","","","","","","","","","","","","","","",""
"","S2","","html-keyboard-response","186","212096","0.0-1.0-256.0","0","0","51800","","null","","","null","28","","NaN","","","","","","","","","","","","","",""
"","response","","html-keyboard-response","187","212602","0.0-1.0-257.0-0.0","0","0","51800","","503","","","75","28","","","1","28","training","adjacent","ED","5","4","O.jpg","Q.jpg","0","0","1","",""
"","feedback","","html-keyboard-response","188","213604","0.0-1.0-258.0-0.0","0","0","51800","","null","","","null","28","","","","","","","","","","","","","","","",""
"","ITI","","html-keyboard-response","189","214606","0.0-1.0-261.0","0","0","51800","","null","","","null","28","","","","","","","","","","","","","","","NaN",""
"","S1","","html-keyboard-response","190","214857","0.0-1.0-263.0","0","0","51800","","null","","","null","29","","","","","","","","","","","","","","","",""
"","ISI","","html-keyboard-response","191","215858","0.0-1.0-264.0","0","0","51800","","592","","","75","29","k","","","","","","","","","","","","","","",""
"","S2","","html-keyboard-response","192","216109","0.0-1.0-265.0","0","0","51800","","null","","","null","29","","NaN","","","","","","","","","","","","","",""
"","response","","html-keyboard-response","193","217461","0.0-1.0-266.0-0.0","0","0","51800","","1350","","","75","29","","","1","29","training","adjacent","AB","1","2","R.jpg","P.jpg","0","1","0","",""
"","feedback","","html-keyboard-response","194","218464","0.0-1.0-267.0-0.0","0","0","51800","","null","","","null","29","","","","","","","","","","","","","","","",""
"","time_out","","html-keyboard-response","195","220467","0.0-1.0-269.0-0.0","0","0","51800","","null","","","null","29","","","","","","","","","","","","","","","",""
"","ITI","","html-keyboard-response","196","221474","0.0-1.0-270.0","0","0","51800","","684","","","75","29","","","","","","","","","","","","","","","k",""
"","S1","","html-keyboard-response","197","221726","0.0-1.0-272.0","0","0","51800","","null","","","null","30","","","","","","","","","","","","","","","",""
"","ISI","","html-keyboard-response","198","222728","0.0-1.0-273.0","0","0","51800","","845","","","68","30","d","","","","","","","","","","","","","","",""
"","S2","","html-keyboard-response","199","222981","0.0-1.0-274.0","0","0","51800","","null","","","null","30","","NaN","","","","","","","","","","","","","",""
"","response","","html-keyboard-response","200","224043","0.0-1.0-275.0-0.0","0","0","51800","","1060","","","68","30","","","1","30","training","adjacent","BA","2","1","P.jpg","R.jpg","1","0","0","",""
"","feedback","","html-keyboard-response","201","225046","0.0-1.0-276.0-0.0","0","0","51800","","null","","","null","30","","","","","","","","","","","","","","","",""
"","time_out","","html-keyboard-response","202","227049","0.0-1.0-278.0-0.0","0","0","51800","","null","","","null","30","","","","","","","","","","","","","","","",""
"","ITI","","html-keyboard-response","203","228059","0.0-1.0-279.0","0","0","51800","","null","","","null","30","","","","","","","","","","","","","","","NaN",""
"","S1","","html-keyboard-response","204","228311","0.0-1.0-281.0","0","0","51800","","null","","","null","31","","","","","","","","","","","","","","","",""
"","ISI","","html-keyboard-response","205","229332","0.0-1.0-282.0","0","0","51800","","852","","","75","31","k","","","","","","","","","","","","","","",""
"","S2","","html-keyboard-response","206","229357","0.0-1.0-283.0","0","0","51800","","24","","","75","31","","k","1","31","training","adjacent","CB","3","2","N.jpg","P.jpg","0","0","1","",""
"","feedback","","html-keyboard-response","207","230360","0.0-1.0-285.0-0.0","0","0","51800","","null","","","null","31","","","","","","","","","","","","","","","",""
"","ITI","","html-keyboard-response","208","231361","0.0-1.0-288.0","0","0","51800","","null","","","null","31","","","","","","","","","","","","","","","NaN",""
"","S1","","html-keyboard-response","209","231614","0.0-1.0-290.0","0","0","51800","","null","","","null","32","","","","","","","","","","","","","","","",""
"","ISI","","html-keyboard-response","210","232614","0.0-1.0-291.0","0","0","51800","","null","","","null","32","NaN","","","","","","","","","","","","","","",""
"","S2","","html-keyboard-response","211","232866","0.0-1.0-292.0","0","0","51800","","null","","","null","32","","NaN","","","","","","","","","","","","","",""
"","response","","html-keyboard-response","212","233692","0.0-1.0-293.0-0.0","0","0","51800","","824","","","75","32","","","1","32","training","adjacent","CD","3","4","N.jpg","Q.jpg","0","1","0","",""
"","feedback","","html-keyboard-response","213","234704","0.0-1.0-294.0-0.0","0","0","51800","","null","","","null","32","","","","","","","","","","","","","","","",""
"","time_out","","html-keyboard-response","214","236708","0.0-1.0-296.0-0.0","0","0","51800","","null","","","null","32","","","","","","","","","","","","","","","",""
"","ITI","","html-keyboard-response","215","237709","0.0-1.0-297.0","0","0","51800","","null","","","null","32","","","","","","","","","","","","","","","NaN",""
"","S1","","html-keyboard-response","216","237963","0.0-1.0-299.0","0","0","51800","","null","","","null","33","","","","","","","","","","","","","","","",""
"","ISI","","html-keyboard-response","217","238966","0.0-1.0-300.0","0","0","51800","","null","","","null","33","NaN","","","","","","","","","","","","","","",""
"","S2","","html-keyboard-response","218","239218","0.0-1.0-301.0","0","0","51800","","null","","","null","33","","NaN","","","","","","","","","","","","","",""
"","response","","html-keyboard-response","219","239353","0.0-1.0-302.0-0.0","0","0","51800","","134","","","68","33","","","1","33","training","adjacent","EF","5","6","O.jpg","M.jpg","1","1","1","",""
"","feedback","","html-keyboard-response","220","240356","0.0-1.0-303.0-0.0","0","0","51800","","null","","","null","33","","","","","","","","","","","","","","","",""
"","ITI","","html-keyboard-response","221","241359","0.0-1.0-306.0","0","0","51800","","null","","","null","33","","","","","","","","","","","","","","","NaN",""
"","S1","","html-keyboard-response","222","241612","0.0-1.0-308.0","0","0","51800","","null","","","null","34","","","","","","","","","","","","","","","",""
"","ISI","","html-keyboard-response","223","242614","0.0-1.0-309.0","0","0","51800","","731","","","75","34","k","","","","","","","","","","","","","","",""
"","S2","","html-keyboard-response","224","242866","0.0-1.0-310.0","0","0","51800","","null","","","null","34","","NaN","","","","","","","","","","","","","",""
"","response","","html-keyboard-response","225","243934","0.0-1.0-311.0-0.0","0","0","51800","","1066","","","75","34","","","1","34","training","adjacent","DE","4","5","Q.jpg","O.jpg","0","1","0","",""
"","feedback","","html-keyboard-response","226","244935","0.0-1.0-312.0-0.0","0","0","51800","","null","","","null","34","","","","","","","","","","","","","","","",""
"","time_out","","html-keyboard-response","227","246942","0.0-1.0-314.0-0.0","0","0","51800","","null","","","null","34","","","","","","","","","","","","","","","",""
"","ITI","","html-keyboard-response","228","247950","0.0-1.0-315.0","0","0","51800","","null","","","null","34","","","","","","","","","","","","","","","NaN",""
"","S1","","html-keyboard-response","229","248202","0.0-1.0-317.0","0","0","51800","","null","","","null","35","","","","","","","","","","","","","","","",""
"","ISI","","html-keyboard-response","230","249204","0.0-1.0-318.0","0","0","51800","","937","","","68","35","d","","","","","","","","","","","","","","",""
"","S2","","html-keyboard-response","231","249456","0.0-1.0-319.0","0","0","51800","","null","","","null","35","","NaN","","","","","","","","","","","","","",""
"","response","","html-keyboard-response","232","249524","0.0-1.0-320.0-0.0","0","0","51800","","66","","","68","35","","","1","35","training","adjacent","CB","3","2","N.jpg","P.jpg","1","0","0","",""
"","feedback","","html-keyboard-response","233","250526","0.0-1.0-321.0-0.0","0","0","51800","","null","","","null","35","","","","","","","","","","","","","","","",""
"","time_out","","html-keyboard-response","234","252529","0.0-1.0-323.0-0.0","0","0","51800","","null","","","null","35","","","","","","","","","","","","","","","",""
"","ITI","","html-keyboard-response","235","253531","0.0-1.0-324.0","0","0","51800","","793","","","75","35","","","","","","","","","","","","","","","k",""
"","S1","","html-keyboard-response","236","253785","0.0-1.0-326.0","0","0","51800","","null","","","null","36","","","","","","","","","","","","","","","",""
"","ISI","","html-keyboard-response","237","254787","0.0-1.0-327.0","0","0","51800","","307","","","75","36","k","","","","","","","","","","","","","","",""
"","S2","","html-keyboard-response","238","255045","0.0-1.0-328.0","0","0","51800","","null","","","null","36","","NaN","","","","","","","","","","","","","",""
"","response","","html-keyboard-response","239","255382","0.0-1.0-329.0-0.0","0","0","51800","","335","","","75","36","","","1","36","training","adjacent","DC","4","3","Q.jpg","N.jpg","0","0","1","",""
"","feedback","","html-keyboard-response","240","256384","0.0-1.0-330.0-0.0","0","0","51800","","null","","","null","36","","","","","","","","","","","","","","","",""
"","ITI","","html-keyboard-response","241","257386","0.0-1.0-333.0","0","0","51800","","null","","","null","36","","","","","","","","","","","","","","","NaN",""
"","S1","","html-keyboard-response","242","257638","0.0-1.0-335.0","0","0","51800","","null","","","null","37","","","","","","","","","","","","","","","",""
"","ISI","","html-keyboard-response","243","258639","0.0-1.0-336.0","0","0","51800","","942","","","75","37","k","","","","","","","","","","","","","","",""
"","S2","","html-keyboard-response","244","258842","0.0-1.0-337.0","0","0","51800","","201","","","75","37","","k","1","37","training","adjacent","GF","7","6","L.jpg","M.jpg","0","0","1","",""
"","feedback","","html-keyboard-response","245","259845","0.0-1.0-339.0-0.0","0","0","51800","","null","","","null","37","","","","","","","","","","","","","","","",""
"","ITI","","html-keyboard-response","246","260849","0.0-1.0-342.0","0","0","51800","","557","","","75","37","","","","","","","","","","","","","","","k",""
"","S1","","html-keyboard-response","247","261102","0.0-1.0-344.0","0","0","51800","","null","","","null","38","","","","","","","","","","","","","","","",""
"","ISI","","html-keyboard-response","248","262108","0.0-1.0-345.0","0","0","51800","","780","","","75","38","k","","","","","","","","","","","","","","",""
"","S2","","html-keyboard-response","249","262362","0.0-1.0-346.0","0","0","51800","","null","","","null","38","","NaN","","","","","","","","","","","","","",""
"","response","","html-keyboard-response","250","262884","0.0-1.0-347.0-0.0","0","0","51800","","521","","","75","38","","","1","38","training","adjacent","FE","6","5","M.jpg","O.jpg","0","0","1","",""
"","feedback","","html-keyboard-response","251","263887","0.0-1.0-348.0-0.0","0","0","51800","","null","","","null","38","","","","","","","","","","","","","","","",""
"","ITI","","html-keyboard-response","252","264889","0.0-1.0-351.0","0","0","51800","","null","","","null","38","","","","","","","","","","","","","","","NaN",""
"","S1","","html-keyboard-response","253","265140","0.0-1.0-353.0","0","0","51800","","null","","","null","39","","","","","","","","","","","","","","","",""
"","ISI","","html-keyboard-response","254","266142","0.0-1.0-354.0","0","0","51800","","null","","","null","39","NaN","","","","","","","","","","","","","","",""
"","S2","","html-keyboard-response","255","266395","0.0-1.0-355.0","0","0","51800","","null","","","null","39","","NaN","","","","","","","","","","","","","",""
"","response","","html-keyboard-response","256","267744","0.0-1.0-356.0-0.0","0","0","51800","","1347","","","75","39","","","1","39","training","adjacent","FG","6","7","M.jpg","L.jpg","0","1","0","",""
"","feedback","","html-keyboard-response","257","268746","0.0-1.0-357.0-0.0","0","0","51800","","null","","","null","39","","","","","","","","","","","","","","","",""
"","time_out","","html-keyboard-response","258","270749","0.0-1.0-359.0-0.0","0","0","51800","","null","","","null","39","","","","","","","","","","","","","","","",""
"","ITI","","html-keyboard-response","259","271751","0.0-1.0-360.0","0","0","51800","","null","","","null","39","","","","","","","","","","","","","","","NaN",""
"","S1","","html-keyboard-response","260","272003","0.0-1.0-362.0","0","0","51800","","null","","","null","40","","","","","","","","","","","","","","","",""
"","ISI","","html-keyboard-response","261","273005","0.0-1.0-363.0","0","0","51800","","null","","","null","40","NaN","","","","","","","","","","","","","","",""
"","S2","","html-keyboard-response","262","273048","0.0-1.0-364.0","0","0","51800","","41","","","68","40","","d","1","40","training","adjacent","ED","5","4","O.jpg","Q.jpg","1","0","0","",""
"","feedback","","html-keyboard-response","263","274052","0.0-1.0-366.0-0.0","0","0","51800","","null","","","null","40","","","","","","","","","","","","","","","",""
"","time_out","","html-keyboard-response","264","276053","0.0-1.0-368.0-0.0","0","0","51800","","null","","","null","40","","","","","","","","","","","","","","","",""
"","ITI","","html-keyboard-response","265","277056","0.0-1.0-369.0","0","0","51800","","372","","","75","40","","","","","","","","","","","","","","","k",""
"","S1","","html-keyboard-response","266","277307","0.0-1.0-371.0","0","0","51800","","null","","","null","41","","","","","","","","","","","","","","","",""
"","ISI","","html-keyboard-response","267","278311","0.0-1.0-372.0","0","0","51800","","604","","","75","41","k","","","","","","","","","","","","","","",""
"","S2","","html-keyboard-response","268","278331","0.0-1.0-373.0","0","0","51800","","18","","","75","41","","k","1","41","training","adjacent","CD","3","4","N.jpg","Q.jpg","0","1","0","",""
"","feedback","","html-keyboard-response","269","279333","0.0-1.0-375.0-0.0","0","0","51800","","null","","","null","41","","","","","","","","","","","","","","","",""
"","time_out","","html-keyboard-response","270","281335","0.0-1.0-377.0-0.0","0","0","51800","","null","","","null","41","","","","","","","","","","","","","","","",""
"","ITI","","html-keyboard-response","271","282337","0.0-1.0-378.0","0","0","51800","","null","","","null","41","","","","","","","","","","","","","","","NaN",""
"","S1","","html-keyboard-response","272","282589","0.0-1.0-380.0","0","0","51800","","null","","","null","42","","","","","","","","","","","","","","","",""
"","ISI","","html-keyboard-response","273","283591","0.0-1.0-381.0","0","0","51800","","541","","","75","42","k","","","","","","","","","","","","","","",""
"","S2","","html-keyboard-response","274","283744","0.0-1.0-382.0","0","0","51800","","150","","","75","42","","k","1","42","training","adjacent","GF","7","6","L.jpg","M.jpg","0","0","1","",""
"","feedback","","html-keyboard-response","275","284746","0.0-1.0-384.0-0.0","0","0","51800","","null","","","null","42","","","","","","","","","","","","","","","",""
"","ITI","","html-keyboard-response","276","285748","0.0-1.0-387.0","0","0","51800","","null","","","null","42","","","","","","","","","","","","","","","NaN",""
"","S1","","html-keyboard-response","277","286000","0.0-1.0-389.0","0","0","51800","","null","","","null","43","","","","","","","","","","","","","","","",""
"","ISI","","html-keyboard-response","278","287002","0.0-1.0-390.0","0","0","51800","","572","","","68","43","d","","","","","","","","","","","","","","",""
"","S2","","html-keyboard-response","279","287255","0.0-1.0-391.0","0","0","51800","","null","","","null","43","","NaN","","","","","","","","","","","","","",""
"","response","","html-keyboard-response","280","287445","0.0-1.0-392.0-0.0","0","0","51800","","188","","","68","43","","","1","43","training","adjacent","EF","5","6","O.jpg","M.jpg","1","1","1","",""
"","feedback","","html-keyboard-response","281","288454","0.0-1.0-393.0-0.0","0","0","51800","","null","","","null","43","","","","","","","","","","","","","","","",""
"","ITI","","html-keyboard-response","282","289458","0.0-1.0-396.0","0","0","51800","","null","","","null","43","","","","","","","","","","","","","","","NaN",""
"","S1","","html-keyboard-response","283","289711","0.0-1.0-398.0","0","0","51800","","null","","","null","44","","","","","","","","","","","","","","","",""
"","ISI","","html-keyboard-response","284","290714","0.0-1.0-399.0","0","0","51800","","null","","","null","44","NaN","","","","","","","","","","","","","","",""
"","S2","","html-keyboard-response","285","290967","0.0-1.0-400.0","0","0","51800","","null","","","null","44","","NaN","","","","","","","","","","","","","",""
"","response","","html-keyboard-response","286","291719","0.0-1.0-401.0-0.0","0","0","51800","","749","","","68","44","","","1","44","training","adjacent","CB","3","2","N.jpg","P.jpg","1","0","0","",""
"","feedback","","html-keyboard-response","287","292720","0.0-1.0-402.0-0.0","0","0","51800","","null","","","null","44","","","","","","","","","","","","","","","",""
"","time_out","","html-keyboard-response","288","294722","0.0-1.0-404.0-0.0","0","0","51800","","null","","","null","44","","","","","","","","","","","","","","","",""
"","ITI","","html-keyboard-response","289","295723","0.0-1.0-405.0","0","0","51800","","null","","","null","44","","","","","","","","","","","","","","","NaN",""
"","S1","","html-keyboard-response","290","295974","0.0-1.0-407.0","0","0","51800","","null","","","null","45","","","","","","","","","","","","","","","",""
"","ISI","","html-keyboard-response","291","296977","0.0-1.0-408.0","0","0","51800","","618","","","68","45","d","","","","","","","","","","","","","","",""
"","S2","","html-keyboard-response","292","297231","0.0-1.0-409.0","0","0","51800","","null","","","null","45","","NaN","","","","","","","","","","","","","",""
"","response","","html-keyboard-response","293","297512","0.0-1.0-410.0-0.0","0","0","51800","","279","","","68","45","","","1","45","training","adjacent","ED","5","4","O.jpg","Q.jpg","1","0","0","",""
"","feedback","","html-keyboard-response","294","298514","0.0-1.0-411.0-0.0","0","0","51800","","null","","","null","45","","","","","","","","","","","","","","","",""
"","time_out","","html-keyboard-response","295","300516","0.0-1.0-413.0-0.0","0","0","51800","","null","","","null","45","","","","","","","","","","","","","","","",""
"","ITI","","html-keyboard-response","296","301519","0.0-1.0-414.0","0","0","51800","","null","","","null","45","","","","","","","","","","","","","","","NaN",""
"","S1","","html-keyboard-response","297","301775","0.0-1.0-416.0","0","0","51800","","null","","","null","46","","","","","","","","","","","","","","","",""
"","ISI","","html-keyboard-response","298","302777","0.0-1.0-417.0","0","0","51800","","578","","","75","46","k","","","","","","","","","","","","","","",""
"","S2","","html-keyboard-response","299","303029","0.0-1.0-418.0","0","0","51800","","null","","","null","46","","NaN","","","","","","","","","","","","","",""
"","response","","html-keyboard-response","300","303366","0.0-1.0-419.0-0.0","0","0","51800","","335","","","75","46","","","1","46","training","adjacent","BA","2","1","P.jpg","R.jpg","0","0","1","",""
"","feedback","","html-keyboard-response","301","304368","0.0-1.0-420.0-0.0","0","0","51800","","null","","","null","46","","","","","","","","","","","","","","","",""
"","ITI","","html-keyboard-response","302","305370","0.0-1.0-423.0","0","0","51800","","null","","","null","46","","","","","","","","","","","","","","","NaN",""
"","S1","","html-keyboard-response","303","305622","0.0-1.0-425.0","0","0","51800","","null","","","null","47","","","","","","","","","","","","","","","",""
"","ISI","","html-keyboard-response","304","306623","0.0-1.0-426.0","0","0","51800","","null","","","null","47","NaN","","","","","","","","","","","","","","",""
"","S2","","html-keyboard-response","305","306875","0.0-1.0-427.0","0","0","51800","","null","","","null","47","","NaN","","","","","","","","","","","","","",""
"","response","","html-keyboard-response","306","307693","0.0-1.0-428.0-0.0","0","0","51800","","817","","","75","47","","","1","47","training","adjacent","FG","6","7","M.jpg","L.jpg","0","1","0","",""
"","feedback","","html-keyboard-response","307","308694","0.0-1.0-429.0-0.0","0","0","51800","","null","","","null","47","","","","","","","","","","","","","","","",""
"","time_out","","html-keyboard-response","308","310695","0.0-1.0-431.0-0.0","0","0","51800","","null","","","null","47","","","","","","","","","","","","","","","",""
"","ITI","","html-keyboard-response","309","311697","0.0-1.0-432.0","0","0","51800","","null","","","null","47","","","","","","","","","","","","","","","NaN",""
"","block_over","","html-keyboard-response","310","335513","0.0-1.0-433.0-0.0","0","0","51800","","23813","","","32","47","","","","","","","","","","","","","","","",""
"","S1","","html-keyboard-response","311","335766","0.0-1.0-434.0","0","0","51800","","null","","","null","48","","","","","","","","","","","","","","","",""
"","ISI","","html-keyboard-response","312","336772","0.0-1.0-435.0","0","0","51800","","645","","","122","48","f11","","","","","","","","","","","","","","",""
"","S2","","html-keyboard-response","313","337027","0.0-1.0-436.0","0","0","51800","","null","","","null","48","","NaN","","","","","","","","","","","","","",""
"","response","","html-keyboard-response","314","338779","0.0-1.0-437.0-0.0","0","0","51800","","null","","","null","48","","","2","48","training","adjacent","DC","4","3","Q.jpg","N.jpg","NaN","0","0","",""
"","too_slow_prompt","","html-keyboard-response","315","339782","0.0-1.0-439.0-0.0","1","0","51800","","null","","","null","","","","","","","","","","","","","","","","",""
"","time_out","","html-keyboard-response","316","341784","0.0-1.0-440.0-0.0","0","0","51800","","null","","","null","48","","","","","","","","","","","","","","","",""
"","ITI","","html-keyboard-response","317","342798","0.0-1.0-441.0","0","0","51800","","455","","","68","48","","","","","","","","","","","","","","","d",""
"","S1","","html-keyboard-response","318","343051","0.0-1.0-443.0","0","0","51800","","null","","","null","49","","","","","","","","","","","","","","","",""
"","ISI","","html-keyboard-response","319","344052","0.0-1.0-444.0","0","0","51800","","60","","","68","49","d","","","","","","","","","","","","","","",""
"","S2","","html-keyboard-response","320","344304","0.0-1.0-445.0","0","0","51800","","null","","","null","49","","NaN","","","","","","","","","","","","","",""
"","response","","html-keyboard-response","321","344779","0.0-1.0-446.0-0.0","0","0","51800","","472","","","75","49","","","2","49","training","adjacent","BA","2","1","P.jpg","R.jpg","0","0","1","",""
"","feedback","","html-keyboard-response","322","345781","0.0-1.0-447.0-0.0","0","0","51800","","null","","","null","49","","","","","","","","","","","","","","","",""
"","ITI","","html-keyboard-response","323","346784","0.0-1.0-450.0","0","0","51800","","null","","","null","49","","","","","","","","","","","","","","","NaN",""
"","S1","","html-keyboard-response","324","347036","0.0-1.0-452.0","0","0","51800","","null","","","null","50","","","","","","","","","","","","","","","",""
"","ISI","","html-keyboard-response","325","348038","0.0-1.0-453.0","0","0","51800","","727","","","75","50","k","","","","","","","","","","","","","","",""
"","S2","","html-keyboard-response","326","348291","0.0-1.0-454.0","0","0","51800","","null","","","null","50","","NaN","","","","","","","","","","","","","",""
"","response","","html-keyboard-response","327","348845","0.0-1.0-455.0-0.0","0","0","51800","","552","","","75","50","","","2","50","training","adjacent","EF","5","6","O.jpg","M.jpg","0","1","0","",""
"","feedback","","html-keyboard-response","328","349849","0.0-1.0-456.0-0.0","0","0","51800","","null","","","null","50","","","","","","","","","","","","","","","",""
"","time_out","","html-keyboard-response","329","351855","0.0-1.0-458.0-0.0","0","0","51800","","null","","","null","50","","","","","","","","","","","","","","","",""
"","ITI","","html-keyboard-response","330","352858","0.0-1.0-459.0","0","0","51800","","null","","","null","50","","","","","","","","","","","","","","","NaN",""
"","S1","","html-keyboard-response","331","353111","0.0-1.0-461.0","0","0","51800","","null","","","null","51","","","","","","","","","","","","","","","",""
"","ISI","","html-keyboard-response","332","354127","0.0-1.0-462.0","0","0","51800","","661","","","68","51","d","","","","","","","","","","","","","","",""
"","S2","","html-keyboard-response","333","354380","0.0-1.0-463.0","0","0","51800","","null","","","null","51","","NaN","","","","","","","","","","","","","",""
"","response","","html-keyboard-response","334","356132","0.0-1.0-464.0-0.0","0","0","51800","","null","","","null","51","","","2","51","training","adjacent","CD","3","4","N.jpg","Q.jpg","NaN","1","0","",""
"","too_slow_prompt","","html-keyboard-response","335","357134","0.0-1.0-466.0-0.0","1","0","51800","","null","","","null","","","","","","","","","","","","","","","","",""
"","time_out","","html-keyboard-response","336","359136","0.0-1.0-467.0-0.0","0","0","51800","","null","","","null","51","","","","","","","","","","","","","","","",""
"","ITI","","html-keyboard-response","337","360153","0.0-1.0-468.0","0","0","51800","","null","","","null","51","","","","","","","","","","","","","","","NaN",""
"","S1","","html-keyboard-response","338","360405","0.0-1.0-470.0","0","0","51800","","null","","","null","52","","","","","","","","","","","","","","","",""
"","ISI","","html-keyboard-response","339","361417","0.0-1.0-471.0","0","0","51800","","868","","","75","52","k","","","","","","","","","","","","","","",""
"","S2","","html-keyboard-response","340","361672","0.0-1.0-472.0","0","0","51800","","null","","","null","52","","NaN","","","","","","","","","","","","","",""
"","response","","html-keyboard-response","341","362304","0.0-1.0-473.0-0.0","0","0","51800","","631","","","75","52","","","2","52","training","adjacent","FG","6","7","M.jpg","L.jpg","0","1","0","",""
"","feedback","","html-keyboard-response","342","363305","0.0-1.0-474.0-0.0","0","0","51800","","null","","","null","52","","","","","","","","","","","","","","","",""
"","time_out","","html-keyboard-response","343","365307","0.0-1.0-476.0-0.0","0","0","51800","","null","","","null","52","","","","","","","","","","","","","","","",""
"","ITI","","html-keyboard-response","344","366308","0.0-1.0-477.0","0","0","51800","","null","","","null","52","","","","","","","","","","","","","","","NaN",""
"","S1","","html-keyboard-response","345","366560","0.0-1.0-479.0","0","0","51800","","null","","","null","53","","","","","","","","","","","","","","","",""
"","ISI","","html-keyboard-response","346","367564","0.0-1.0-480.0","0","0","51800","","983","","","75","53","k","","","","","","","","","","","","","","",""
"","S2","","html-keyboard-response","347","367816","0.0-1.0-481.0","0","0","51800","","null","","","null","53","","NaN","","","","","","","","","","","","","",""
"","response","","html-keyboard-response","348","367864","0.0-1.0-482.0-0.0","0","0","51800","","47","","","68","53","","","2","53","training","adjacent","GF","7","6","L.jpg","M.jpg","1","0","0","",""
"","feedback","","html-keyboard-response","349","368869","0.0-1.0-483.0-0.0","0","0","51800","","null","","","null","53","","","","","","","","","","","","","","","",""
"","time_out","","html-keyboard-response","350","370925","0.0-1.0-485.0-0.0","0","0","51800","","null","","","null","53","","","","","","","","","","","","","","","",""
"","ITI","","html-keyboard-response","351","371927","0.0-1.0-486.0","0","0","51800","","null","","","null","53","","","","","","","","","","","","","","","NaN",""
"","S1","","html-keyboard-response","352","372179","0.0-1.0-488.0","0","0","51800","","null","","","null","54","","","","","","","","","","","","","","","",""
"","ISI","","html-keyboard-response","353","373181","0.0-1.0-489.0","0","0","51800","","663","","","75","54","k","","","","","","","","","","","","","","",""
"","S2","","html-keyboard-response","354","373419","0.0-1.0-490.0","0","0","51800","","236","","","68","54","","d","2","54","training","adjacent","GF","7","6","L.jpg","M.jpg","1","0","0","",""
"","feedback","","html-keyboard-response","355","374424","0.0-1.0-492.0-0.0","0","0","51800","","null","","","null","54","","","","","","","","","","","","","","","",""
"","time_out","","html-keyboard-response","356","376426","0.0-1.0-494.0-0.0","0","0","51800","","null","","","null","54","","","","","","","","","","","","","","","",""
"","ITI","","html-keyboard-response","357","377428","0.0-1.0-495.0","0","0","51800","","null","","","null","54","","","","","","","","","","","","","","","NaN",""
"","S1","","html-keyboard-response","358","377680","0.0-1.0-497.0","0","0","51800","","null","","","null","55","","","","","","","","","","","","","","","",""
"","ISI","","html-keyboard-response","359","378684","0.0-1.0-498.0","0","0","51800","","732","","","75","55","k","","","","","","","","","","","","","","",""
"","S2","","html-keyboard-response","360","378936","0.0-1.0-499.0","0","0","51800","","null","","","null","55","","NaN","","","","","","","","","","","","","",""
"","response","","html-keyboard-response","361","379654","0.0-1.0-500.0-0.0","0","0","51800","","717","","","75","55","","","2","55","training","adjacent","ED","5","4","O.jpg","Q.jpg","0","0","1","",""
"","feedback","","html-keyboard-response","362","380656","0.0-1.0-501.0-0.0","0","0","51800","","null","","","null","55","","","","","","","","","","","","","","","",""
"","ITI","","html-keyboard-response","363","381659","0.0-1.0-504.0","0","0","51800","","278","","","75","55","","","","","","","","","","","","","","","k",""
"","S1","","html-keyboard-response","364","381912","0.0-1.0-506.0","0","0","51800","","null","","","null","56","","","","","","","","","","","","","","","",""
"","ISI","","html-keyboard-response","365","382916","0.0-1.0-507.0","0","0","51800","","196","","","75","56","k","","","","","","","","","","","","","","",""
"","S2","","html-keyboard-response","366","383169","0.0-1.0-508.0","0","0","51800","","null","","","null","56","","NaN","","","","","","","","","","","","","",""
"","response","","html-keyboard-response","367","383344","0.0-1.0-509.0-0.0","0","0","51800","","173","","","75","56","","","2","56","training","adjacent","CB","3","2","N.jpg","P.jpg","0","0","1","",""
"","feedback","","html-keyboard-response","368","384346","0.0-1.0-510.0-0.0","0","0","51800","","null","","","null","56","","","","","","","","","","","","","","","",""
"","ITI","","html-keyboard-response","369","385369","0.0-1.0-513.0","0","0","51800","","null","","","null","56","","","","","","","","","","","","","","","NaN",""
"","S1","","html-keyboard-response","370","385620","0.0-1.0-515.0","0","0","51800","","null","","","null","57","","","","","","","","","","","","","","","",""
"","ISI","","html-keyboard-response","371","386625","0.0-1.0-516.0","0","0","51800","","793","","","68","57","d","","","","","","","","","","","","","","",""
"","S2","","html-keyboard-response","372","386877","0.0-1.0-517.0","0","0","51800","","null","","","null","57","","NaN","","","","","","","","","","","","","",""
"","response","","html-keyboard-response","373","387051","0.0-1.0-518.0-0.0","0","0","51800","","171","","","68","57","","","2","57","training","adjacent","DC","4","3","Q.jpg","N.jpg","1","0","0","",""
"","feedback","","html-keyboard-response","374","388054","0.0-1.0-519.0-0.0","0","0","51800","","null","","","null","57","","","","","","","","","","","","","","","",""
"","time_out","","html-keyboard-response","375","390056","0.0-1.0-521.0-0.0","0","0","51800","","null","","","null","57","","","","","","","","","","","","","","","",""
"","ITI","","html-keyboard-response","376","391059","0.0-1.0-522.0","0","0","51800","","615","","","75","57","","","","","","","","","","","","","","","k",""
"","S1","","html-keyboard-response","377","391312","0.0-1.0-524.0","0","0","51800","","null","","","null","58","","","","","","","","","","","","","","","",""
"","ISI","","html-keyboard-response","378","392314","0.0-1.0-525.0","0","0","51800","","100","","","75","58","k","","","","","","","","","","","","","","",""
"","S2","","html-keyboard-response","379","392565","0.0-1.0-526.0","0","0","51800","","null","","","null","58","","NaN","","","","","","","","","","","","","",""
"","response","","html-keyboard-response","380","392703","0.0-1.0-527.0-0.0","0","0","51800","","137","","","75","58","","","2","58","training","adjacent","DE","4","5","Q.jpg","O.jpg","0","1","0","",""
"","feedback","","html-keyboard-response","381","393707","0.0-1.0-528.0-0.0","0","0","51800","","null","","","null","58","","","","","","","","","","","","","","","",""
"","time_out","","html-keyboard-response","382","395709","0.0-1.0-530.0-0.0","0","0","51800","","null","","","null","58","","","","","","","","","","","","","","","",""
"","ITI","","html-keyboard-response","383","396711","0.0-1.0-531.0","0","0","51800","","413","","","75","58","","","","","","","","","","","","","","","k",""
"","S1","","html-keyboard-response","384","396966","0.0-1.0-533.0","0","0","51800","","null","","","null","59","","","","","","","","","","","","","","","",""
"","ISI","","html-keyboard-response","385","397968","0.0-1.0-534.0","0","0","51800","","44","","","75","59","k","","","","","","","","","","","","","","",""
"","S2","","html-keyboard-response","386","398220","0.0-1.0-535.0","0","0","51800","","null","","","null","59","","NaN","","","","","","","","","","","","","",""
"","response","","html-keyboard-response","387","398727","0.0-1.0-536.0-0.0","0","0","51800","","504","","","75","59","","","2","59","training","adjacent","BC","2","3","P.jpg","N.jpg","0","1","0","",""
"","feedback","","html-keyboard-response","388","399729","0.0-1.0-537.0-0.0","0","0","51800","","null","","","null","59","","","","","","","","","","","","","","","",""
"","time_out","","html-keyboard-response","389","401731","0.0-1.0-539.0-0.0","0","0","51800","","null","","","null","59","","","","","","","","","","","","","","","",""
"","ITI","","html-keyboard-response","390","402759","0.0-1.0-540.0","0","0","51800","","null","","","null","59","","","","","","","","","","","","","","","NaN",""
"","S1","","html-keyboard-response","391","403011","0.0-1.0-542.0","0","0","51800","","null","","","null","60","","","","","","","","","","","","","","","",""
"","ISI","","html-keyboard-response","392","404032","0.0-1.0-543.0","0","0","51800","","null","","","null","60","NaN","","","","","","","","","","","","","","",""
"","S2","","html-keyboard-response","393","404283","0.0-1.0-544.0","0","0","51800","","null","","","null","60","","NaN","","","","","","","","","","","","","",""
"","response","","html-keyboard-response","394","404824","0.0-1.0-545.0-0.0","0","0","51800","","538","","","68","60","","","2","60","training","adjacent","EF","5","6","O.jpg","M.jpg","1","1","1","",""
"","feedback","","html-keyboard-response","395","405829","0.0-1.0-546.0-0.0","0","0","51800","","null","","","null","60","","","","","","","","","","","","","","","",""
"","ITI","","html-keyboard-response","396","406832","0.0-1.0-549.0","0","0","51800","","null","","","null","60","","","","","","","","","","","","","","","NaN",""
"","S1","","html-keyboard-response","397","407083","0.0-1.0-551.0","0","0","51800","","null","","","null","61","","","","","","","","","","","","","","","",""
"","ISI","","html-keyboard-response","398","408086","0.0-1.0-552.0","0","0","51800","","null","","","null","61","NaN","","","","","","","","","","","","","","",""
"","S2","","html-keyboard-response","399","408338","0.0-1.0-553.0","0","0","51800","","null","","","null","61","","NaN","","","","","","","","","","","","","",""
"","response","","html-keyboard-response","400","410091","0.0-1.0-554.0-0.0","0","0","51800","","null","","","null","61","","","2","61","training","adjacent","ED","5","4","O.jpg","Q.jpg","NaN","0","0","",""
"","too_slow_prompt","","html-keyboard-response","401","411104","0.0-1.0-556.0-0.0","1","0","51800","","null","","","null","","","","","","","","","","","","","","","","",""
"","time_out","","html-keyboard-response","402","413106","0.0-1.0-557.0-0.0","0","0","51800","","null","","","null","61","","","","","","","","","","","","","","","",""
"","ITI","","html-keyboard-response","403","414126","0.0-1.0-558.0","0","0","51800","","423","","","75","61","","","","","","","","","","","","","","","k",""
"","S1","","html-keyboard-response","404","414377","0.0-1.0-560.0","0","0","51800","","null","","","null","62","","","","","","","","","","","","","","","",""
"","ISI","","html-keyboard-response","405","415380","0.0-1.0-561.0","0","0","51800","","632","","","75","62","k","","","","","","","","","","","","","","",""
"","S2","","html-keyboard-response","406","415634","0.0-1.0-562.0","0","0","51800","","null","","","null","62","","NaN","","","","","","","","","","","","","",""
"","response","","html-keyboard-response","407","416146","0.0-1.0-563.0-0.0","0","0","51800","","481","","","75","62","","","2","62","training","adjacent","DE","4","5","Q.jpg","O.jpg","0","1","0","",""
"","feedback","","html-keyboard-response","408","417149","0.0-1.0-564.0-0.0","0","0","51800","","null","","","null","62","","","","","","","","","","","","","","","",""
"","time_out","","html-keyboard-response","409","419152","0.0-1.0-566.0-0.0","0","0","51800","","null","","","null","62","","","","","","","","","","","","","","","",""
"","ITI","","html-keyboard-response","410","420155","0.0-1.0-567.0","0","0","51800","","null","","","null","62","","","","","","","","","","","","","","","NaN",""
"","S1","","html-keyboard-response","411","420407","0.0-1.0-569.0","0","0","51800","","null","","","null","63","","","","","","","","","","","","","","","",""
"","ISI","","html-keyboard-response","412","421408","0.0-1.0-570.0","0","0","51800","","null","","","null","63","NaN","","","","","","","","","","","","","","",""
"","S2","","html-keyboard-response","413","421662","0.0-1.0-571.0","0","0","51800","","null","","","null","63","","NaN","","","","","","","","","","","","","",""
"","response","","html-keyboard-response","414","421886","0.0-1.0-572.0-0.0","0","0","51800","","222","","","68","63","","","2","63","training","adjacent","FE","6","5","M.jpg","O.jpg","1","0","0","",""
"","feedback","","html-keyboard-response","415","422888","0.0-1.0-573.0-0.0","0","0","51800","","null","","","null","63","","","","","","","","","","","","","","","",""
"","time_out","","html-keyboard-response","416","424891","0.0-1.0-575.0-0.0","0","0","51800","","null","","","null","63","","","","","","","","","","","","","","","",""
"","ITI","","html-keyboard-response","417","425892","0.0-1.0-576.0","0","0","51800","","15","","","75","63","","","","","","","","","","","","","","","k",""
"","S1","","html-keyboard-response","418","426145","0.0-1.0-578.0","0","0","51800","","null","","","null","64","","","","","","","","","","","","","","","",""
"","ISI","","html-keyboard-response","419","427146","0.0-1.0-579.0","0","0","51800","","696","","","75","64","k","","","","","","","","","","","","","","",""
"","S2","","html-keyboard-response","420","427400","0.0-1.0-580.0","0","0","51800","","null","","","null","64","","NaN","","","","","","","","","","","","","",""
"","response","","html-keyboard-response","421","427534","0.0-1.0-581.0-0.0","0","0","51800","","132","","","75","64","","","2","64","training","adjacent","FG","6","7","M.jpg","L.jpg","0","1","0","",""
"","feedback","","html-keyboard-response","422","428537","0.0-1.0-582.0-0.0","0","0","51800","","null","","","null","64","","","","","","","","","","","","","","","",""
"","time_out","","html-keyboard-response","423","430538","0.0-1.0-584.0-0.0","0","0","51800","","null","","","null","64","","","","","","","","","","","","","","","",""
"","ITI","","html-keyboard-response","424","431540","0.0-1.0-585.0","0","0","51800","","null","","","null","64","","","","","","","","","","","","","","","NaN",""
"","S1","","html-keyboard-response","425","431791","0.0-1.0-587.0","0","0","51800","","null","","","null","65","","","","","","","","","","","","","","","",""
"","ISI","","html-keyboard-response","426","432792","0.0-1.0-588.0","0","0","51800","","378","","","68","65","d","","","","","","","","","","","","","","",""
"","S2","","html-keyboard-response","427","432840","0.0-1.0-589.0","0","0","51800","","45","","","68","65","","d","2","65","training","adjacent","EF","5","6","O.jpg","M.jpg","1","1","1","",""
"","feedback","","html-keyboard-response","428","433842","0.0-1.0-591.0-0.0","0","0","51800","","null","","","null","65","","","","","","","","","","","","","","","",""
"","ITI","","html-keyboard-response","429","434845","0.0-1.0-594.0","0","0","51800","","null","","","null","65","","","","","","","","","","","","","","","NaN",""
"","S1","","html-keyboard-response","430","435104","0.0-1.0-596.0","0","0","51800","","null","","","null","66","","","","","","","","","","","","","","","",""
"","ISI","","html-keyboard-response","431","436106","0.0-1.0-597.0","0","0","51800","","488","","","75","66","k","","","","","","","","","","","","","","",""
"","S2","","html-keyboard-response","432","436163","0.0-1.0-598.0","0","0","51800","","55","","","75","66","","k","2","66","training","adjacent","BA","2","1","P.jpg","R.jpg","0","0","1","",""
"","feedback","","html-keyboard-response","433","437165","0.0-1.0-600.0-0.0","0","0","51800","","null","","","null","66","","","","","","","","","","","","","","","",""
"","ITI","","html-keyboard-response","434","438168","0.0-1.0-603.0","0","0","51800","","null","","","null","66","","","","","","","","","","","","","","","NaN",""
"","S1","","html-keyboard-response","435","438430","0.0-1.0-605.0","0","0","51800","","null","","","null","67","","","","","","","","","","","","","","","",""
"","ISI","","html-keyboard-response","436","439431","0.0-1.0-606.0","0","0","51800","","415","","","68","67","d","","","","","","","","","","","","","","",""
"","S2","","html-keyboard-response","437","439684","0.0-1.0-607.0","0","0","51800","","null","","","null","67","","NaN","","","","","","","","","","","","","",""
"","response","","html-keyboard-response","438","440405","0.0-1.0-608.0-0.0","0","0","51800","","719","","","68","67","","","2","67","training","adjacent","ED","5","4","O.jpg","Q.jpg","1","0","0","",""
"","feedback","","html-keyboard-response","439","441408","0.0-1.0-609.0-0.0","0","0","51800","","null","","","null","67","","","","","","","","","","","","","","","",""
"","time_out","","html-keyboard-response","440","443411","0.0-1.0-611.0-0.0","0","0","51800","","null","","","null","67","","","","","","","","","","","","","","","",""
"","ITI","","html-keyboard-response","441","444413","0.0-1.0-612.0","0","0","51800","","483","","","75","67","","","","","","","","","","","","","","","k",""
"","S1","","html-keyboard-response","442","444666","0.0-1.0-614.0","0","0","51800","","null","","","null","68","","","","","","","","","","","","","","","",""
"","ISI","","html-keyboard-response","443","445674","0.0-1.0-615.0","0","0","51800","","789","","","75","68","k","","","","","","","","","","","","","","",""
"","S2","","html-keyboard-response","444","445926","0.0-1.0-616.0","0","0","51800","","null","","","null","68","","NaN","","","","","","","","","","","","","",""
"","response","","html-keyboard-response","445","446385","0.0-1.0-617.0-0.0","0","0","51800","","457","","","75","68","","","2","68","training","adjacent","BC","2","3","P.jpg","N.jpg","0","1","0","",""
"","feedback","","html-keyboard-response","446","447387","0.0-1.0-618.0-0.0","0","0","51800","","null","","","null","68","","","","","","","","","","","","","","","",""
"","time_out","","html-keyboard-response","447","449390","0.0-1.0-620.0-0.0","0","0","51800","","null","","","null","68","","","","","","","","","","","","","","","",""
"","ITI","","html-keyboard-response","448","450394","0.0-1.0-621.0","0","0","51800","","null","","","null","68","","","","","","","","","","","","","","","NaN",""
"","S1","","html-keyboard-response","449","450648","0.0-1.0-623.0","0","0","51800","","null","","","null","69","","","","","","","","","","","","","","","",""
"","ISI","","html-keyboard-response","450","451651","0.0-1.0-624.0","0","0","51800","","245","","","75","69","k","","","","","","","","","","","","","","",""
"","S2","","html-keyboard-response","451","451796","0.0-1.0-625.0","0","0","51800","","143","","","75","69","","k","2","69","training","adjacent","CB","3","2","N.jpg","P.jpg","0","0","1","",""
"","feedback","","html-keyboard-response","452","452798","0.0-1.0-627.0-0.0","0","0","51800","","null","","","null","69","","","","","","","","","","","","","","","",""
"","ITI","","html-keyboard-response","453","453801","0.0-1.0-630.0","0","0","51800","","null","","","null","69","","","","","","","","","","","","","","","NaN",""
"","S1","","html-keyboard-response","454","454052","0.0-1.0-632.0","0","0","51800","","null","","","null","70","","","","","","","","","","","","","","","",""
"","ISI","","html-keyboard-response","455","455061","0.0-1.0-633.0","0","0","51800","","null","","","null","70","NaN","","","","","","","","","","","","","","",""
"","S2","","html-keyboard-response","456","455313","0.0-1.0-634.0","0","0","51800","","null","","","null","70","","NaN","","","","","","","","","","","","","",""
"","response","","html-keyboard-response","457","457065","0.0-1.0-635.0-0.0","0","0","51800","","null","","","null","70","","","2","70","training","adjacent","CD","3","4","N.jpg","Q.jpg","NaN","1","0","",""
"","too_slow_prompt","","html-keyboard-response","458","458067","0.0-1.0-637.0-0.0","1","0","51800","","null","","","null","","","","","","","","","","","","","","","","",""
"","time_out","","html-keyboard-response","459","460122","0.0-1.0-638.0-0.0","0","0","51800","","null","","","null","70","","","","","","","","","","","","","","","",""
"","ITI","","html-keyboard-response","460","461125","0.0-1.0-639.0","0","0","51800","","null","","","null","70","","","","","","","","","","","","","","","NaN",""
"","S1","","html-keyboard-response","461","461377","0.0-1.0-641.0","0","0","51800","","null","","","null","71","","","","","","","","","","","","","","","",""
"","ISI","","html-keyboard-response","462","462379","0.0-1.0-642.0","0","0","51800","","null","","","null","71","NaN","","","","","","","","","","","","","","",""
"","S2","","html-keyboard-response","463","462632","0.0-1.0-643.0","0","0","51800","","null","","","null","71","","NaN","","","","","","","","","","","","","",""
"","response","","html-keyboard-response","464","462687","0.0-1.0-644.0-0.0","0","0","51800","","54","","","75","71","","","2","71","training","adjacent","AB","1","2","R.jpg","P.jpg","0","1","0","",""
"","feedback","","html-keyboard-response","465","463690","0.0-1.0-645.0-0.0","0","0","51800","","null","","","null","71","","","","","","","","","","","","","","","",""
"","time_out","","html-keyboard-response","466","465692","0.0-1.0-647.0-0.0","0","0","51800","","null","","","null","71","","","","","","","","","","","","","","","",""
"","ITI","","html-keyboard-response","467","466693","0.0-1.0-648.0","0","0","51800","","107","","","75","71","","","","","","","","","","","","","","","k",""
"","S1","","html-keyboard-response","468","466945","0.0-1.0-650.0","0","0","51800","","null","","","null","72","","","","","","","","","","","","","","","",""
"","ISI","","html-keyboard-response","469","467946","0.0-1.0-651.0","0","0","51800","","null","","","null","72","NaN","","","","","","","","","","","","","","",""
"","S2","","html-keyboard-response","470","468206","0.0-1.0-652.0","0","0","51800","","null","","","null","72","","NaN","","","","","","","","","","","","","",""
"","response","","html-keyboard-response","471","468717","0.0-1.0-653.0-0.0","0","0","51800","","505","","","75","72","","","2","72","training","adjacent","BC","2","3","P.jpg","N.jpg","0","1","0","",""
"","feedback","","html-keyboard-response","472","469720","0.0-1.0-654.0-0.0","0","0","51800","","null","","","null","72","","","","","","","","","","","","","","","",""
"","time_out","","html-keyboard-response","473","471723","0.0-1.0-656.0-0.0","0","0","51800","","null","","","null","72","","","","","","","","","","","","","","","",""
"","ITI","","html-keyboard-response","474","472725","0.0-1.0-657.0","0","0","51800","","null","","","null","72","","","","","","","","","","","","","","","NaN",""
"","S1","","html-keyboard-response","475","472977","0.0-1.0-659.0","0","0","51800","","null","","","null","73","","","","","","","","","","","","","","","",""
"","ISI","","html-keyboard-response","476","473981","0.0-1.0-660.0","0","0","51800","","637","","","75","73","k","","","","","","","","","","","","","","",""
"","S2","","html-keyboard-response","477","474257","0.0-1.0-661.0","0","0","51800","","null","","","null","73","","NaN","","","","","","","","","","","","","",""
"","response","","html-keyboard-response","478","474937","0.0-1.0-662.0-0.0","0","0","51800","","678","","","68","73","","","2","73","training","adjacent","DE","4","5","Q.jpg","O.jpg","1","1","1","",""
"","feedback","","html-keyboard-response","479","475939","0.0-1.0-663.0-0.0","0","0","51800","","null","","","null","73","","","","","","","","","","","","","","","",""
"","ITI","","html-keyboard-response","480","476941","0.0-1.0-666.0","0","0","51800","","null","","","null","73","","","","","","","","","","","","","","","NaN",""
"","S1","","html-keyboard-response","481","477192","0.0-1.0-668.0","0","0","51800","","null","","","null","74","","","","","","","","","","","","","","","",""
"","ISI","","html-keyboard-response","482","478194","0.0-1.0-669.0","0","0","51800","","null","","","null","74","NaN","","","","","","","","","","","","","","",""
"","S2","","html-keyboard-response","483","478205","0.0-1.0-670.0","0","0","51800","","8","","","75","74","","k","2","74","training","adjacent","AB","1","2","R.jpg","P.jpg","0","1","0","",""
"","feedback","","html-keyboard-response","484","479208","0.0-1.0-672.0-0.0","0","0","51800","","null","","","null","74","","","","","","","","","","","","","","","",""
"","time_out","","html-keyboard-response","485","481210","0.0-1.0-674.0-0.0","0","0","51800","","null","","","null","74","","","","","","","","","","","","","","","",""
"","ITI","","html-keyboard-response","486","482212","0.0-1.0-675.0","0","0","51800","","null","","","null","74","","","","","","","","","","","","","","","NaN",""
"","S1","","html-keyboard-response","487","482464","0.0-1.0-677.0","0","0","51800","","null","","","null","75","","","","","","","","","","","","","","","",""
"","ISI","","html-keyboard-response","488","483467","0.0-1.0-678.0","0","0","51800","","599","","","75","75","k","","","","","","","","","","","","","","",""
"","S2","","html-keyboard-response","489","483719","0.0-1.0-679.0","0","0","51800","","null","","","null","75","","NaN","","","","","","","","","","","","","",""
"","response","","html-keyboard-response","490","484465","0.0-1.0-680.0-0.0","0","0","51800","","743","","","75","75","","","2","75","training","adjacent","DC","4","3","Q.jpg","N.jpg","0","0","1","",""
"","feedback","","html-keyboard-response","491","485474","0.0-1.0-681.0-0.0","0","0","51800","","null","","","null","75","","","","","","","","","","","","","","","",""
"","ITI","","html-keyboard-response","492","486477","0.0-1.0-684.0","0","0","51800","","null","","","null","75","","","","","","","","","","","","","","","NaN",""
"","S1","","html-keyboard-response","493","486729","0.0-1.0-686.0","0","0","51800","","null","","","null","76","","","","","","","","","","","","","","","",""
"","ISI","","html-keyboard-response","494","487732","0.0-1.0-687.0","0","0","51800","","839","","","75","76","k","","","","","","","","","","","","","","",""
"","S2","","html-keyboard-response","495","487984","0.0-1.0-688.0","0","0","51800","","null","","","null","76","","NaN","","","","","","","","","","","","","",""
"","response","","html-keyboard-response","496","488003","0.0-1.0-689.0-0.0","0","0","51800","","18","","","75","76","","","2","76","training","adjacent","FE","6","5","M.jpg","O.jpg","0","0","1","",""
"","feedback","","html-keyboard-response","497","489007","0.0-1.0-690.0-0.0","0","0","51800","","null","","","null","76","","","","","","","","","","","","","","","",""
"","ITI","","html-keyboard-response","498","490010","0.0-1.0-693.0","0","0","51800","","null","","","null","76","","","","","","","","","","","","","","","NaN",""
"","S1","","html-keyboard-response","499","490263","0.0-1.0-695.0","0","0","51800","","null","","","null","77","","","","","","","","","","","","","","","",""
"","ISI","","html-keyboard-response","500","491266","0.0-1.0-696.0","0","0","51800","","150","","","75","77","k","","","","","","","","","","","","","","",""
"","S2","","html-keyboard-response","501","491519","0.0-1.0-697.0","0","0","51800","","null","","","null","77","","NaN","","","","","","","","","","","","","",""
"","response","","html-keyboard-response","502","492544","0.0-1.0-698.0-0.0","0","0","51800","","1023","","","75","77","","","2","77","training","adjacent","FG","6","7","M.jpg","L.jpg","0","1","0","",""
"","feedback","","html-keyboard-response","503","493547","0.0-1.0-699.0-0.0","0","0","51800","","null","","","null","77","","","","","","","","","","","","","","","",""
"","time_out","","html-keyboard-response","504","495549","0.0-1.0-701.0-0.0","0","0","51800","","null","","","null","77","","","","","","","","","","","","","","","",""
"","ITI","","html-keyboard-response","505","496551","0.0-1.0-702.0","0","0","51800","","null","","","null","77","","","","","","","","","","","","","","","NaN",""
"","S1","","html-keyboard-response","506","496804","0.0-1.0-704.0","0","0","51800","","null","","","null","78","","","","","","","","","","","","","","","",""
"","ISI","","html-keyboard-response","507","497807","0.0-1.0-705.0","0","0","51800","","968","","","75","78","k","","","","","","","","","","","","","","",""
"","S2","","html-keyboard-response","508","498060","0.0-1.0-706.0","0","0","51800","","null","","","null","78","","NaN","","","","","","","","","","","","","",""
"","response","","html-keyboard-response","509","498606","0.0-1.0-707.0-0.0","0","0","51800","","541","","","68","78","","","2","78","training","adjacent","DC","4","3","Q.jpg","N.jpg","1","0","0","",""
"","feedback","","html-keyboard-response","510","499608","0.0-1.0-708.0-0.0","0","0","51800","","null","","","null","78","","","","","","","","","","","","","","","",""
"","time_out","","html-keyboard-response","511","501611","0.0-1.0-710.0-0.0","0","0","51800","","null","","","null","78","","","","","","","","","","","","","","","",""
"","ITI","","html-keyboard-response","512","502615","0.0-1.0-711.0","0","0","51800","","null","","","null","78","","","","","","","","","","","","","","","NaN",""
"","S1","","html-keyboard-response","513","502867","0.0-1.0-713.0","0","0","51800","","null","","","null","79","","","","","","","","","","","","","","","",""
"","ISI","","html-keyboard-response","514","503869","0.0-1.0-714.0","0","0","51800","","416","","","75","79","k","","","","","","","","","","","","","","",""
"","S2","","html-keyboard-response","515","504122","0.0-1.0-715.0","0","0","51800","","null","","","null","79","","NaN","","","","","","","","","","","","","",""
"","response","","html-keyboard-response","516","504735","0.0-1.0-716.0-0.0","0","0","51800","","612","","","75","79","","","2","79","training","adjacent","CD","3","4","N.jpg","Q.jpg","0","1","0","",""
"","feedback","","html-keyboard-response","517","505738","0.0-1.0-717.0-0.0","0","0","51800","","null","","","null","79","","","","","","","","","","","","","","","",""
"","time_out","","html-keyboard-response","518","507741","0.0-1.0-719.0-0.0","0","0","51800","","null","","","null","79","","","","","","","","","","","","","","","",""
"","ITI","","html-keyboard-response","519","508745","0.0-1.0-720.0","0","0","51800","","80","","","68","79","","","","","","","","","","","","","","","d",""
"","S1","","html-keyboard-response","520","509002","0.0-1.0-722.0","0","0","51800","","null","","","null","80","","","","","","","","","","","","","","","",""
"","ISI","","html-keyboard-response","521","510005","0.0-1.0-723.0","0","0","51800","","227","","","75","80","k","","","","","","","","","","","","","","",""
"","S2","","html-keyboard-response","522","510257","0.0-1.0-724.0","0","0","51800","","null","","","null","80","","NaN","","","","","","","","","","","","","",""
"","response","","html-keyboard-response","523","510784","0.0-1.0-725.0-0.0","0","0","51800","","525","","","75","80","","","2","80","training","adjacent","ED","5","4","O.jpg","Q.jpg","0","0","1","",""
"","feedback","","html-keyboard-response","524","511798","0.0-1.0-726.0-0.0","0","0","51800","","null","","","null","80","","","","","","","","","","","","","","","",""
"","ITI","","html-keyboard-response","525","512800","0.0-1.0-729.0","0","0","51800","","null","","","null","80","","","","","","","","","","","","","","","NaN",""
"","S1","","html-keyboard-response","526","513052","0.0-1.0-731.0","0","0","51800","","null","","","null","81","","","","","","","","","","","","","","","",""
"","ISI","","html-keyboard-response","527","514055","0.0-1.0-732.0","0","0","51800","","630","","","75","81","k","","","","","","","","","","","","","","",""
"","S2","","html-keyboard-response","528","514308","0.0-1.0-733.0","0","0","51800","","null","","","null","81","","NaN","","","","","","","","","","","","","",""
"","response","","html-keyboard-response","529","514332","0.0-1.0-734.0-0.0","0","0","51800","","22","","","75","81","","","2","81","training","adjacent","CB","3","2","N.jpg","P.jpg","0","0","1","",""
"","feedback","","html-keyboard-response","530","515335","0.0-1.0-735.0-0.0","0","0","51800","","null","","","null","81","","","","","","","","","","","","","","","",""
"","ITI","","html-keyboard-response","531","516338","0.0-1.0-738.0","0","0","51800","","null","","","null","81","","","","","","","","","","","","","","","NaN",""
"","S1","","html-keyboard-response","532","516591","0.0-1.0-740.0","0","0","51800","","null","","","null","82","","","","","","","","","","","","","","","",""
"","ISI","","html-keyboard-response","533","517593","0.0-1.0-741.0","0","0","51800","","513","","","75","82","k","","","","","","","","","","","","","","",""
"","S2","","html-keyboard-response","534","517845","0.0-1.0-742.0","0","0","51800","","null","","","null","82","","NaN","","","","","","","","","","","","","",""
"","response","","html-keyboard-response","535","518576","0.0-1.0-743.0-0.0","0","0","51800","","730","","","75","82","","","2","82","training","adjacent","CD","3","4","N.jpg","Q.jpg","0","1","0","",""
"","feedback","","html-keyboard-response","536","519579","0.0-1.0-744.0-0.0","0","0","51800","","null","","","null","82","","","","","","","","","","","","","","","",""
"","time_out","","html-keyboard-response","537","521581","0.0-1.0-746.0-0.0","0","0","51800","","null","","","null","82","","","","","","","","","","","","","","","",""
"","ITI","","html-keyboard-response","538","522584","0.0-1.0-747.0","0","0","51800","","629","","","68","82","","","","","","","","","","","","","","","d",""
"","S1","","html-keyboard-response","539","522836","0.0-1.0-749.0","0","0","51800","","null","","","null","83","","","","","","","","","","","","","","","",""
"","ISI","","html-keyboard-response","540","523843","0.0-1.0-750.0","0","0","51800","","766","","","75","83","k","","","","","","","","","","","","","","",""
"","S2","","html-keyboard-response","541","524113","0.0-1.0-751.0","0","0","51800","","null","","","null","83","","NaN","","","","","","","","","","","","","",""
"","response","","html-keyboard-response","542","525867","0.0-1.0-752.0-0.0","0","0","51800","","null","","","null","83","","","2","83","training","adjacent","BA","2","1","P.jpg","R.jpg","NaN","0","0","",""
"","too_slow_prompt","","html-keyboard-response","543","526870","0.0-1.0-754.0-0.0","1","0","51800","","null","","","null","","","","","","","","","","","","","","","","",""
"","time_out","","html-keyboard-response","544","528874","0.0-1.0-755.0-0.0","0","0","51800","","null","","","null","83","","","","","","","","","","","","","","","",""
"","ITI","","html-keyboard-response","545","529876","0.0-1.0-756.0","0","0","51800","","null","","","null","83","","","","","","","","","","","","","","","NaN",""
"","S1","","html-keyboard-response","546","530128","0.0-1.0-758.0","0","0","51800","","null","","","null","84","","","","","","","","","","","","","","","",""
"","ISI","","html-keyboard-response","547","531129","0.0-1.0-759.0","0","0","51800","","null","","","null","84","NaN","","","","","","","","","","","","","","",""
"","S2","","html-keyboard-response","548","531381","0.0-1.0-760.0","0","0","51800","","null","","","null","84","","NaN","","","","","","","","","","","","","",""
"","response","","html-keyboard-response","549","532777","0.0-1.0-761.0-0.0","0","0","51800","","1393","","","75","84","","","2","84","training","adjacent","GF","7","6","L.jpg","M.jpg","0","0","1","",""
"","feedback","","html-keyboard-response","550","533780","0.0-1.0-762.0-0.0","0","0","51800","","null","","","null","84","","","","","","","","","","","","","","","",""
"","ITI","","html-keyboard-response","551","534783","0.0-1.0-765.0","0","0","51800","","null","","","null","84","","","","","","","","","","","","","","","NaN",""
"","S1","","html-keyboard-response","552","535035","0.0-1.0-767.0","0","0","51800","","null","","","null","85","","","","","","","","","","","","","","","",""
"","ISI","","html-keyboard-response","553","536037","0.0-1.0-768.0","0","0","51800","","676","","","75","85","k","","","","","","","","","","","","","","",""
"","S2","","html-keyboard-response","554","536289","0.0-1.0-769.0","0","0","51800","","null","","","null","85","","NaN","","","","","","","","","","","","","",""
"","response","","html-keyboard-response","555","536715","0.0-1.0-770.0-0.0","0","0","51800","","424","","","75","85","","","2","85","training","adjacent","CB","3","2","N.jpg","P.jpg","0","0","1","",""
"","feedback","","html-keyboard-response","556","537719","0.0-1.0-771.0-0.0","0","0","51800","","null","","","null","85","","","","","","","","","","","","","","","",""
"","ITI","","html-keyboard-response","557","538723","0.0-1.0-774.0","0","0","51800","","null","","","null","85","","","","","","","","","","","","","","","NaN",""
"","S1","","html-keyboard-response","558","538977","0.0-1.0-776.0","0","0","51800","","null","","","null","86","","","","","","","","","","","","","","","",""
"","ISI","","html-keyboard-response","559","539978","0.0-1.0-777.0","0","0","51800","","null","","","null","86","NaN","","","","","","","","","","","","","","",""
"","S2","","html-keyboard-response","560","540231","0.0-1.0-778.0","0","0","51800","","null","","","null","86","","NaN","","","","","","","","","","","","","",""
"","response","","html-keyboard-response","561","541436","0.0-1.0-779.0-0.0","0","0","51800","","1203","","","68","86","","","2","86","training","adjacent","AB","1","2","R.jpg","P.jpg","1","1","1","",""
"","feedback","","html-keyboard-response","562","542440","0.0-1.0-780.0-0.0","0","0","51800","","null","","","null","86","","","","","","","","","","","","","","","",""
"","ITI","","html-keyboard-response","563","543443","0.0-1.0-783.0","0","0","51800","","null","","","null","86","","","","","","","","","","","","","","","NaN",""
"","S1","","html-keyboard-response","564","543695","0.0-1.0-785.0","0","0","51800","","null","","","null","87","","","","","","","","","","","","","","","",""
"","ISI","","html-keyboard-response","565","544697","0.0-1.0-786.0","0","0","51800","","769","","","75","87","k","","","","","","","","","","","","","","",""
"","S2","","html-keyboard-response","566","544713","0.0-1.0-787.0","0","0","51800","","14","","","68","87","","d","2","87","training","adjacent","FE","6","5","M.jpg","O.jpg","1","0","0","",""
"","feedback","","html-keyboard-response","567","545716","0.0-1.0-789.0-0.0","0","0","51800","","null","","","null","87","","","","","","","","","","","","","","","",""
"","time_out","","html-keyboard-response","568","547718","0.0-1.0-791.0-0.0","0","0","51800","","null","","","null","87","","","","","","","","","","","","","","","",""
"","ITI","","html-keyboard-response","569","548721","0.0-1.0-792.0","0","0","51800","","324","","","75","87","","","","","","","","","","","","","","","k",""
"","S1","","html-keyboard-response","570","548992","0.0-1.0-794.0","0","0","51800","","null","","","null","88","","","","","","","","","","","","","","","",""
"","ISI","","html-keyboard-response","571","549995","0.0-1.0-795.0","0","0","51800","","44","","","68","88","d","","","","","","","","","","","","","","",""
"","S2","","html-keyboard-response","572","550096","0.0-1.0-796.0","0","0","51800","","99","","","68","88","","d","2","88","training","adjacent","GF","7","6","L.jpg","M.jpg","1","0","0","",""
"","feedback","","html-keyboard-response","573","551112","0.0-1.0-798.0-0.0","0","0","51800","","null","","","null","88","","","","","","","","","","","","","","","",""
"","time_out","","html-keyboard-response","574","553114","0.0-1.0-800.0-0.0","0","0","51800","","null","","","null","88","","","","","","","","","","","","","","","",""
"","ITI","","html-keyboard-response","575","554116","0.0-1.0-801.0","0","0","51800","","638","","","68","88","","","","","","","","","","","","","","","d",""
"","S1","","html-keyboard-response","576","554369","0.0-1.0-803.0","0","0","51800","","null","","","null","89","","","","","","","","","","","","","","","",""
"","ISI","","html-keyboard-response","577","555380","0.0-1.0-804.0","0","0","51800","","653","","","75","89","k","","","","","","","","","","","","","","",""
"","S2","","html-keyboard-response","578","555424","0.0-1.0-805.0","0","0","51800","","41","","","68","89","","d","2","89","training","adjacent","DE","4","5","Q.jpg","O.jpg","1","1","1","",""
"","feedback","","html-keyboard-response","579","556426","0.0-1.0-807.0-0.0","0","0","51800","","null","","","null","89","","","","","","","","","","","","","","","",""
"","ITI","","html-keyboard-response","580","557427","0.0-1.0-810.0","0","0","51800","","201","","","68","89","","","","","","","","","","","","","","","d",""
"","S1","","html-keyboard-response","581","557680","0.0-1.0-812.0","0","0","51800","","null","","","null","90","","","","","","","","","","","","","","","",""
"","ISI","","html-keyboard-response","582","558707","0.0-1.0-813.0","0","0","51800","","null","","","null","90","NaN","","","","","","","","","","","","","","",""
"","S2","","html-keyboard-response","583","558976","0.0-1.0-814.0","0","0","51800","","null","","","null","90","","NaN","","","","","","","","","","","","","",""
"","response","","html-keyboard-response","584","559716","0.0-1.0-815.0-0.0","0","0","51800","","738","","","75","90","","","2","90","training","adjacent","FE","6","5","M.jpg","O.jpg","0","0","1","",""
"","feedback","","html-keyboard-response","585","560719","0.0-1.0-816.0-0.0","0","0","51800","","null","","","null","90","","","","","","","","","","","","","","","",""
