"success","ttype","start_time","trial_type","trial_index","time_elapsed","internal_node_id","warning","missed_checkup","PID","view_history","rt","responses","repeat_instructions","key_press","index","keypress_isi","keypress_S2","block","trial_num","phase","group_type","pair_type","S1_stim","S2_stim","S1_img","S2_img","S1_chosen","S1_higher","accuracy","keypress_iti","total_bonus_tally"
"true","full_screen","d04062023hr2217","fullscreen","0","3393","0.0-0.0","0","0","95460","","","","","","","","","","","","","","","","","","","","","",""
"","instructions","","instructions","1","24920","0.0-1.0-0.0-0.0","0","0","95460","[{""page_index"":0,""viewing_time"":3195},{""page_index"":1,""viewing_time"":12743},{""page_index"":2,""viewing_time"":4021},{""page_index"":3,""viewing_time"":1563}]","21523","","","","","","","","","","","","","","","","","","","",""
"","comprehension_check","","survey-multi-choice","2","44730","0.0-1.0-0.0-1.0","0","0","95460","","19801","{""Q0"":""True"",""Q1"":""D"",""Q2"":""Only when the screen 'MAKE A CHOICE' is shown"",""Q3"":""Green mark"",""Q4"":""either D or K""}","1","","","","","","","","","","","","","","","","","",""
"","missed_instruction_checkup","","html-keyboard-response","3","47185","0.0-1.0-0.0-2.0-0.0","0","1","95460","","2452","","","32","","","","","","","","","","","","","","","","",""
"","instructions","","instructions","4","66656","0.0-1.0-0.1-0.1","0","0","95460","[{""page_index"":0,""viewing_time"":2107},{""page_index"":1,""viewing_time"":12231},{""page_index"":2,""viewing_time"":4250},{""page_index"":3,""viewing_time"":880}]","19468","","","","","","","","","","","","","","","","","","","",""
"","comprehension_check","","survey-multi-choice","5","88623","0.0-1.0-0.1-1.1","0","0","95460","","21959","{""Q0"":""False"",""Q1"":""D"",""Q2"":""Once the second image appears and while the screen 'MAKE A CHOICE' is shown"",""Q3"":""Green mark"",""Q4"":""either D or K""}","1","","","","","","","","","","","","","","","","","",""
"","missed_instruction_checkup","","html-keyboard-response","6","100954","0.0-1.0-0.1-2.1-0.1","0","1","95460","","12327","","","32","","","","","","","","","","","","","","","","",""
"","instructions","","instructions","7","108112","0.0-1.0-0.2-0.2","0","0","95460","[{""page_index"":0,""viewing_time"":1530},{""page_index"":1,""viewing_time"":1226},{""page_index"":2,""viewing_time"":3389},{""page_index"":3,""viewing_time"":1011}]","7157","","","","","","","","","","","","","","","","","","","",""
"","comprehension_check","","survey-multi-choice","8","128062","0.0-1.0-0.2-1.2","0","0","95460","","19943","{""Q0"":""True"",""Q1"":""D"",""Q2"":""Once the second image appears and while the screen 'MAKE A CHOICE' is shown"",""Q3"":""Green mark"",""Q4"":""either D or K""}","0","","","","","","","","","","","","","","","","","",""
"","start_exp","","html-keyboard-response","9","129699","0.0-1.0-1.0","0","0","95460","","1633","","","32","","","","","","","","","","","","","","","","",""
"","S1","","html-keyboard-response","10","129853","0.0-1.0-2.0","0","0","95460","","null","","","null","0","","","","","","","","","","","","","","","",""
"","ISI","","html-keyboard-response","11","131856","0.0-1.0-3.0","0","0","95460","","1587","","","68","0","d","","","","","","","","","","","","","","",""
"","S2","","html-keyboard-response","12","132012","0.0-1.0-4.0","0","0","95460","","null","","","null","0","","NaN","","","","","","","","","","","","","",""
"","response","","html-keyboard-response","13","133866","0.0-1.0-5.0-0.0","0","0","95460","","null","","","null","0","","","1","0","training","adjacent","DE","4","5","L.jpg","O.jpg","NaN","1","0","",""
"","too_slow_prompt","","html-keyboard-response","14","134869","0.0-1.0-7.0-0.0","1","0","95460","","null","","","null","","","","","","","","","","","","","","","","",""
"","time_out","","html-keyboard-response","15","136873","0.0-1.0-8.0-0.0","0","0","95460","","null","","","null","0","","","","","","","","","","","","","","","",""
"","ITI","","html-keyboard-response","16","137875","0.0-1.0-9.0","0","0","95460","","904","","","68","0","","","","","","","","","","","","","","","d",""
"","S1","","html-keyboard-response","17","138029","0.0-1.0-11.0","0","0","95460","","null","","","null","1","","","","","","","","","","","","","","","",""
"","ISI","","html-keyboard-response","18","140033","0.0-1.0-12.0","0","0","95460","","null","","","null","1","NaN","","","","","","","","","","","","","","",""
"","S2","","html-keyboard-response","19","140185","0.0-1.0-13.0","0","0","95460","","null","","","null","1","","NaN","","","","","","","","","","","","","",""
"","response","","html-keyboard-response","20","140802","0.0-1.0-14.0-0.0","0","0","95460","","615","","","75","1","","","1","1","training","adjacent","DC","4","3","L.jpg","N.jpg","0","0","1","",""
"","feedback","","html-keyboard-response","21","141806","0.0-1.0-15.0-0.0","0","0","95460","","null","","","null","1","","","","","","","","","","","","","","","",""
"","ITI","","html-keyboard-response","22","142808","0.0-1.0-18.0","0","0","95460","","null","","","null","1","","","","","","","","","","","","","","","NaN",""
"","S1","","html-keyboard-response","23","142961","0.0-1.0-20.0","0","0","95460","","null","","","null","2","","","","","","","","","","","","","","","",""
"","ISI","","html-keyboard-response","24","144963","0.0-1.0-21.0","0","0","95460","","1376","","","68","2","d","","","","","","","","","","","","","","",""
"","S2","","html-keyboard-response","25","145117","0.0-1.0-22.0","0","0","95460","","null","","","null","2","","NaN","","","","","","","","","","","","","",""
"","response","","html-keyboard-response","26","145698","0.0-1.0-23.0-0.0","0","0","95460","","579","","","75","2","","","1","2","training","adjacent","AB","1","2","P.jpg","R.jpg","0","1","0","",""
"","feedback","","html-keyboard-response","27","146702","0.0-1.0-24.0-0.0","0","0","95460","","null","","","null","2","","","","","","","","","","","","","","","",""
"","time_out","","html-keyboard-response","28","148706","0.0-1.0-26.0-0.0","0","0","95460","","null","","","null","2","","","","","","","","","","","","","","","",""
"","ITI","","html-keyboard-response","29","149709","0.0-1.0-27.0","0","0","95460","","502","","","68","2","","","","","","","","","","","","","","","d",""
"","S1","","html-keyboard-response","30","149863","0.0-1.0-29.0","0","0","95460","","null","","","null","3","","","","","","","","","","","","","","","",""
"","ISI","","html-keyboard-response","31","151865","0.0-1.0-30.0","0","0","95460","","null","","","null","3","NaN","","","","","","","","","","","","","","",""
"","S2","","html-keyboard-response","32","152019","0.0-1.0-31.0","0","0","95460","","null","","","null","3","","NaN","","","","","","","","","","","","","",""
"","response","","html-keyboard-response","33","153035","0.0-1.0-32.0-0.0","0","0","95460","","1014","","","68","3","","","1","3","training","adjacent","FG","6","7","Q.jpg","M.jpg","1","1","1","",""
"","feedback","","html-keyboard-response","34","154038","0.0-1.0-33.0-0.0","0","0","95460","","null","","","null","3","","","","","","","","","","","","","","","",""
"","ITI","","html-keyboard-response","35","155041","0.0-1.0-36.0","0","0","95460","","null","","","null","3","","","","","","","","","","","","","","","NaN",""
"","S1","","html-keyboard-response","36","155195","0.0-1.0-38.0","0","0","95460","","null","","","null","4","","","","","","","","","","","","","","","",""
"","ISI","","html-keyboard-response","37","157198","0.0-1.0-39.0","0","0","95460","","null","","","null","4","NaN","","","","","","","","","","","","","","",""
"","S2","","html-keyboard-response","38","157352","0.0-1.0-40.0","0","0","95460","","null","","","null","4","","NaN","","","","","","","","","","","","","",""
"","response","","html-keyboard-response","39","158291","0.0-1.0-41.0-0.0","0","0","95460","","937","","","68","4","","","1","4","training","adjacent","ED","5","4","O.jpg","L.jpg","1","0","0","",""
"","feedback","","html-keyboard-response","40","159294","0.0-1.0-42.0-0.0","0","0","95460","","null","","","null","4","","","","","","","","","","","","","","","",""
"","time_out","","html-keyboard-response","41","161297","0.0-1.0-44.0-0.0","0","0","95460","","null","","","null","4","","","","","","","","","","","","","","","",""
"","ITI","","html-keyboard-response","42","162301","0.0-1.0-45.0","0","0","95460","","352","","","68","4","","","","","","","","","","","","","","","d",""
"","S1","","html-keyboard-response","43","162453","0.0-1.0-47.0","0","0","95460","","null","","","null","5","","","","","","","","","","","","","","","",""
"","ISI","","html-keyboard-response","44","164456","0.0-1.0-48.0","0","0","95460","","null","","","null","5","NaN","","","","","","","","","","","","","","",""
"","S2","","html-keyboard-response","45","164610","0.0-1.0-49.0","0","0","95460","","null","","","null","5","","NaN","","","","","","","","","","","","","",""
"","response","","html-keyboard-response","46","165347","0.0-1.0-50.0-0.0","0","0","95460","","735","","","75","5","","","1","5","training","adjacent","CD","3","4","N.jpg","L.jpg","0","1","0","",""
"","feedback","","html-keyboard-response","47","166351","0.0-1.0-51.0-0.0","0","0","95460","","null","","","null","5","","","","","","","","","","","","","","","",""
"","time_out","","html-keyboard-response","48","168353","0.0-1.0-53.0-0.0","0","0","95460","","null","","","null","5","","","","","","","","","","","","","","","",""
"","ITI","","html-keyboard-response","49","169357","0.0-1.0-54.0","0","0","95460","","null","","","null","5","","","","","","","","","","","","","","","NaN",""
"","S1","","html-keyboard-response","50","169510","0.0-1.0-56.0","0","0","95460","","null","","","null","6","","","","","","","","","","","","","","","",""
"","ISI","","html-keyboard-response","51","171513","0.0-1.0-57.0","0","0","95460","","147","","","68","6","d","","","","","","","","","","","","","","",""
"","S2","","html-keyboard-response","52","171666","0.0-1.0-58.0","0","0","95460","","null","","","null","6","","NaN","","","","","","","","","","","","","",""
"","response","","html-keyboard-response","53","171940","0.0-1.0-59.0-0.0","0","0","95460","","271","","","68","6","","","1","6","training","adjacent","FG","6","7","Q.jpg","M.jpg","1","1","1","",""
"","feedback","","html-keyboard-response","54","172944","0.0-1.0-60.0-0.0","0","0","95460","","null","","","null","6","","","","","","","","","","","","","","","",""
"","ITI","","html-keyboard-response","55","173947","0.0-1.0-63.0","0","0","95460","","null","","","null","6","","","","","","","","","","","","","","","NaN",""
"","S1","","html-keyboard-response","56","174100","0.0-1.0-65.0","0","0","95460","","null","","","null","7","","","","","","","","","","","","","","","",""
"","ISI","","html-keyboard-response","57","176104","0.0-1.0-66.0","0","0","95460","","null","","","null","7","NaN","","","","","","","","","","","","","","",""
"","S2","","html-keyboard-response","58","176257","0.0-1.0-67.0","0","0","95460","","null","","","null","7","","NaN","","","","","","","","","","","","","",""
"","response","","html-keyboard-response","59","176692","0.0-1.0-68.0-0.0","0","0","95460","","432","","","68","7","","","1","7","training","adjacent","FE","6","5","Q.jpg","O.jpg","1","0","0","",""
"","feedback","","html-keyboard-response","60","177695","0.0-1.0-69.0-0.0","0","0","95460","","null","","","null","7","","","","","","","","","","","","","","","",""
"","time_out","","html-keyboard-response","61","179698","0.0-1.0-71.0-0.0","0","0","95460","","null","","","null","7","","","","","","","","","","","","","","","",""
"","ITI","","html-keyboard-response","62","180715","0.0-1.0-72.0","0","0","95460","","null","","","null","7","","","","","","","","","","","","","","","NaN",""
"","S1","","html-keyboard-response","63","180870","0.0-1.0-74.0","0","0","95460","","null","","","null","8","","","","","","","","","","","","","","","",""
"","ISI","","html-keyboard-response","64","182873","0.0-1.0-75.0","0","0","95460","","null","","","null","8","NaN","","","","","","","","","","","","","","",""
"","S2","","html-keyboard-response","65","183026","0.0-1.0-76.0","0","0","95460","","null","","","null","8","","NaN","","","","","","","","","","","","","",""
"","response","","html-keyboard-response","66","183172","0.0-1.0-77.0-0.0","0","0","95460","","143","","","75","8","","","1","8","training","adjacent","CD","3","4","N.jpg","L.jpg","0","1","0","",""
"","feedback","","html-keyboard-response","67","184174","0.0-1.0-78.0-0.0","0","0","95460","","null","","","null","8","","","","","","","","","","","","","","","",""
"","time_out","","html-keyboard-response","68","186177","0.0-1.0-80.0-0.0","0","0","95460","","null","","","null","8","","","","","","","","","","","","","","","",""
"","ITI","","html-keyboard-response","69","187180","0.0-1.0-81.0","0","0","95460","","null","","","null","8","","","","","","","","","","","","","","","NaN",""
"","S1","","html-keyboard-response","70","187334","0.0-1.0-83.0","0","0","95460","","null","","","null","9","","","","","","","","","","","","","","","",""
"","ISI","","html-keyboard-response","71","189337","0.0-1.0-84.0","0","0","95460","","null","","","null","9","NaN","","","","","","","","","","","","","","",""
"","S2","","html-keyboard-response","72","189491","0.0-1.0-85.0","0","0","95460","","null","","","null","9","","NaN","","","","","","","","","","","","","",""
"","response","","html-keyboard-response","73","190404","0.0-1.0-86.0-0.0","0","0","95460","","910","","","75","9","","","1","9","training","adjacent","BC","2","3","R.jpg","N.jpg","0","1","0","",""
"","feedback","","html-keyboard-response","74","191407","0.0-1.0-87.0-0.0","0","0","95460","","null","","","null","9","","","","","","","","","","","","","","","",""
"","time_out","","html-keyboard-response","75","193411","0.0-1.0-89.0-0.0","0","0","95460","","null","","","null","9","","","","","","","","","","","","","","","",""
"","ITI","","html-keyboard-response","76","194414","0.0-1.0-90.0","0","0","95460","","null","","","null","9","","","","","","","","","","","","","","","NaN",""
"","S1","","html-keyboard-response","77","194567","0.0-1.0-92.0","0","0","95460","","null","","","null","10","","","","","","","","","","","","","","","",""
"","ISI","","html-keyboard-response","78","196570","0.0-1.0-93.0","0","0","95460","","null","","","null","10","NaN","","","","","","","","","","","","","","",""
"","S2","","html-keyboard-response","79","196725","0.0-1.0-94.0","0","0","95460","","null","","","null","10","","NaN","","","","","","","","","","","","","",""
"","response","","html-keyboard-response","80","196900","0.0-1.0-95.0-0.0","0","0","95460","","173","","","68","10","","","1","10","training","adjacent","CD","3","4","N.jpg","L.jpg","1","1","1","",""
"","feedback","","html-keyboard-response","81","197905","0.0-1.0-96.0-0.0","0","0","95460","","null","","","null","10","","","","","","","","","","","","","","","",""
"","ITI","","html-keyboard-response","82","198909","0.0-1.0-99.0","0","0","95460","","null","","","null","10","","","","","","","","","","","","","","","NaN",""
"","S1","","html-keyboard-response","83","199062","0.0-1.0-101.0","0","0","95460","","null","","","null","11","","","","","","","","","","","","","","","",""
"","ISI","","html-keyboard-response","84","201066","0.0-1.0-102.0","0","0","95460","","null","","","null","11","NaN","","","","","","","","","","","","","","",""
"","S2","","html-keyboard-response","85","201219","0.0-1.0-103.0","0","0","95460","","null","","","null","11","","NaN","","","","","","","","","","","","","",""
"","response","","html-keyboard-response","86","201564","0.0-1.0-104.0-0.0","0","0","95460","","343","","","68","11","","","1","11","training","adjacent","BC","2","3","R.jpg","N.jpg","1","1","1","",""
"","feedback","","html-keyboard-response","87","202567","0.0-1.0-105.0-0.0","0","0","95460","","null","","","null","11","","","","","","","","","","","","","","","",""
"","ITI","","html-keyboard-response","88","203571","0.0-1.0-108.0","0","0","95460","","null","","","null","11","","","","","","","","","","","","","","","NaN",""
"","S1","","html-keyboard-response","89","203724","0.0-1.0-110.0","0","0","95460","","null","","","null","12","","","","","","","","","","","","","","","",""
"","ISI","","html-keyboard-response","90","205727","0.0-1.0-111.0","0","0","95460","","null","","","null","12","NaN","","","","","","","","","","","","","","",""
"","S2","","html-keyboard-response","91","205894","0.0-1.0-112.0","0","0","95460","","null","","","null","12","","NaN","","","","","","","","","","","","","",""
"","response","","html-keyboard-response","92","206012","0.0-1.0-113.0-0.0","0","0","95460","","116","","","75","12","","","1","12","training","adjacent","ED","5","4","O.jpg","L.jpg","0","0","1","",""
"","feedback","","html-keyboard-response","93","207016","0.0-1.0-114.0-0.0","0","0","95460","","null","","","null","12","","","","","","","","","","","","","","","",""
"","ITI","","html-keyboard-response","94","208020","0.0-1.0-117.0","0","0","95460","","null","","","null","12","","","","","","","","","","","","","","","NaN",""
"","S1","","html-keyboard-response","95","208172","0.0-1.0-119.0","0","0","95460","","null","","","null","13","","","","","","","","","","","","","","","",""
"","ISI","","html-keyboard-response","96","210175","0.0-1.0-120.0","0","0","95460","","null","","","null","13","NaN","","","","","","","","","","","","","","",""
"","S2","","html-keyboard-response","97","210328","0.0-1.0-121.0","0","0","95460","","null","","","null","13","","NaN","","","","","","","","","","","","","",""
"","response","","html-keyboard-response","98","210885","0.0-1.0-122.0-0.0","0","0","95460","","554","","","68","13","","","1","13","training","adjacent","ED","5","4","O.jpg","L.jpg","1","0","0","",""
"","feedback","","html-keyboard-response","99","211889","0.0-1.0-123.0-0.0","0","0","95460","","null","","","null","13","","","","","","","","","","","","","","","",""
"","time_out","","html-keyboard-response","100","213892","0.0-1.0-125.0-0.0","0","0","95460","","null","","","null","13","","","","","","","","","","","","","","","",""
"","ITI","","html-keyboard-response","101","214895","0.0-1.0-126.0","0","0","95460","","null","","","null","13","","","","","","","","","","","","","","","NaN",""
"","S1","","html-keyboard-response","102","215054","0.0-1.0-128.0","0","0","95460","","null","","","null","14","","","","","","","","","","","","","","","",""
"","ISI","","html-keyboard-response","103","217057","0.0-1.0-129.0","0","0","95460","","661","","","75","14","k","","","","","","","","","","","","","","",""
"","S2","","html-keyboard-response","104","217211","0.0-1.0-130.0","0","0","95460","","null","","","null","14","","NaN","","","","","","","","","","","","","",""
"","response","","html-keyboard-response","105","217525","0.0-1.0-131.0-0.0","0","0","95460","","312","","","75","14","","","1","14","training","adjacent","CB","3","2","N.jpg","R.jpg","0","0","1","",""
"","feedback","","html-keyboard-response","106","218528","0.0-1.0-132.0-0.0","0","0","95460","","null","","","null","14","","","","","","","","","","","","","","","",""
"","ITI","","html-keyboard-response","107","219531","0.0-1.0-135.0","0","0","95460","","null","","","null","14","","","","","","","","","","","","","","","NaN",""
"","S1","","html-keyboard-response","108","219685","0.0-1.0-137.0","0","0","95460","","null","","","null","15","","","","","","","","","","","","","","","",""
"","ISI","","html-keyboard-response","109","221687","0.0-1.0-138.0","0","0","95460","","null","","","null","15","NaN","","","","","","","","","","","","","","",""
"","S2","","html-keyboard-response","110","221841","0.0-1.0-139.0","0","0","95460","","null","","","null","15","","NaN","","","","","","","","","","","","","",""
"","response","","html-keyboard-response","111","222589","0.0-1.0-140.0-0.0","0","0","95460","","746","","","68","15","","","1","15","training","adjacent","FE","6","5","Q.jpg","O.jpg","1","0","0","",""
"","feedback","","html-keyboard-response","112","223592","0.0-1.0-141.0-0.0","0","0","95460","","null","","","null","15","","","","","","","","","","","","","","","",""
"","time_out","","html-keyboard-response","113","225596","0.0-1.0-143.0-0.0","0","0","95460","","null","","","null","15","","","","","","","","","","","","","","","",""
"","ITI","","html-keyboard-response","114","226600","0.0-1.0-144.0","0","0","95460","","null","","","null","15","","","","","","","","","","","","","","","NaN",""
"","S1","","html-keyboard-response","115","226752","0.0-1.0-146.0","0","0","95460","","null","","","null","16","","","","","","","","","","","","","","","",""
"","ISI","","html-keyboard-response","116","228757","0.0-1.0-147.0","0","0","95460","","null","","","null","16","NaN","","","","","","","","","","","","","","",""
"","S2","","html-keyboard-response","117","228911","0.0-1.0-148.0","0","0","95460","","null","","","null","16","","NaN","","","","","","","","","","","","","",""
"","response","","html-keyboard-response","118","230764","0.0-1.0-149.0-0.0","0","0","95460","","null","","","null","16","","","1","16","training","adjacent","FE","6","5","Q.jpg","O.jpg","NaN","0","0","",""
"","too_slow_prompt","","html-keyboard-response","119","231767","0.0-1.0-151.0-0.0","1","0","95460","","null","","","null","","","","","","","","","","","","","","","","",""
"","time_out","","html-keyboard-response","120","233771","0.0-1.0-152.0-0.0","0","0","95460","","null","","","null","16","","","","","","","","","","","","","","","",""
"","ITI","","html-keyboard-response","121","234775","0.0-1.0-153.0","0","0","95460","","111","","","75","16","","","","","","","","","","","","","","","k",""
"","S1","","html-keyboard-response","122","234929","0.0-1.0-155.0","0","0","95460","","null","","","null","17","","","","","","","","","","","","","","","",""
"","ISI","","html-keyboard-response","123","236932","0.0-1.0-156.0","0","0","95460","","289","","","75","17","k","","","","","","","","","","","","","","",""
"","S2","","html-keyboard-response","124","237085","0.0-1.0-157.0","0","0","95460","","null","","","null","17","","NaN","","","","","","","","","","","","","",""
"","response","","html-keyboard-response","125","237349","0.0-1.0-158.0-0.0","0","0","95460","","261","","","75","17","","","1","17","training","adjacent","BA","2","1","R.jpg","P.jpg","0","0","1","",""
"","feedback","","html-keyboard-response","126","238354","0.0-1.0-159.0-0.0","0","0","95460","","null","","","null","17","","","","","","","","","","","","","","","",""
"","ITI","","html-keyboard-response","127","239356","0.0-1.0-162.0","0","0","95460","","null","","","null","17","","","","","","","","","","","","","","","NaN",""
"","S1","","html-keyboard-response","128","239520","0.0-1.0-164.0","0","0","95460","","null","","","null","18","","","","","","","","","","","","","","","",""
"","ISI","","html-keyboard-response","129","241523","0.0-1.0-165.0","0","0","95460","","null","","","null","18","NaN","","","","","","","","","","","","","","",""
"","S2","","html-keyboard-response","130","241678","0.0-1.0-166.0","0","0","95460","","null","","","null","18","","NaN","","","","","","","","","","","","","",""
"","response","","html-keyboard-response","131","243486","0.0-1.0-167.0-0.0","0","0","95460","","1805","","","75","18","","","1","18","training","adjacent","EF","5","6","O.jpg","Q.jpg","0","1","0","",""
"","feedback","","html-keyboard-response","132","244489","0.0-1.0-168.0-0.0","0","0","95460","","null","","","null","18","","","","","","","","","","","","","","","",""
"","time_out","","html-keyboard-response","133","246492","0.0-1.0-170.0-0.0","0","0","95460","","null","","","null","18","","","","","","","","","","","","","","","",""
"","ITI","","html-keyboard-response","134","247495","0.0-1.0-171.0","0","0","95460","","null","","","null","18","","","","","","","","","","","","","","","NaN",""
"","S1","","html-keyboard-response","135","247649","0.0-1.0-173.0","0","0","95460","","null","","","null","19","","","","","","","","","","","","","","","",""
"","ISI","","html-keyboard-response","136","249651","0.0-1.0-174.0","0","0","95460","","1235","","","68","19","d","","","","","","","","","","","","","","",""
"","S2","","html-keyboard-response","137","249804","0.0-1.0-175.0","0","0","95460","","null","","","null","19","","NaN","","","","","","","","","","","","","",""
"","response","","html-keyboard-response","138","250061","0.0-1.0-176.0-0.0","0","0","95460","","256","","","68","19","","","1","19","training","adjacent","CD","3","4","N.jpg","L.jpg","1","1","1","",""
"","feedback","","html-keyboard-response","139","251065","0.0-1.0-177.0-0.0","0","0","95460","","null","","","null","19","","","","","","","","","","","","","","","",""
"","ITI","","html-keyboard-response","140","252068","0.0-1.0-180.0","0","0","95460","","null","","","null","19","","","","","","","","","","","","","","","NaN",""
"","S1","","html-keyboard-response","141","252222","0.0-1.0-182.0","0","0","95460","","null","","","null","20","","","","","","","","","","","","","","","",""
"","ISI","","html-keyboard-response","142","254227","0.0-1.0-183.0","0","0","95460","","null","","","null","20","NaN","","","","","","","","","","","","","","",""
"","S2","","html-keyboard-response","143","254380","0.0-1.0-184.0","0","0","95460","","null","","","null","20","","NaN","","","","","","","","","","","","","",""
"","response","","html-keyboard-response","144","256233","0.0-1.0-185.0-0.0","0","0","95460","","null","","","null","20","","","1","20","training","adjacent","EF","5","6","O.jpg","Q.jpg","NaN","1","0","",""
"","too_slow_prompt","","html-keyboard-response","145","257237","0.0-1.0-187.0-0.0","1","0","95460","","null","","","null","","","","","","","","","","","","","","","","",""
"","time_out","","html-keyboard-response","146","259239","0.0-1.0-188.0-0.0","0","0","95460","","null","","","null","20","","","","","","","","","","","","","","","",""
"","ITI","","html-keyboard-response","147","260242","0.0-1.0-189.0","0","0","95460","","null","","","null","20","","","","","","","","","","","","","","","NaN",""
"","S1","","html-keyboard-response","148","260396","0.0-1.0-191.0","0","0","95460","","null","","","null","21","","","","","","","","","","","","","","","",""
"","ISI","","html-keyboard-response","149","262398","0.0-1.0-192.0","0","0","95460","","null","","","null","21","NaN","","","","","","","","","","","","","","",""
"","S2","","html-keyboard-response","150","262552","0.0-1.0-193.0","0","0","95460","","null","","","null","21","","NaN","","","","","","","","","","","","","",""
"","response","","html-keyboard-response","151","262757","0.0-1.0-194.0-0.0","0","0","95460","","204","","","68","21","","","1","21","training","adjacent","EF","5","6","O.jpg","Q.jpg","1","1","1","",""
"","feedback","","html-keyboard-response","152","263761","0.0-1.0-195.0-0.0","0","0","95460","","null","","","null","21","","","","","","","","","","","","","","","",""
"","ITI","","html-keyboard-response","153","264764","0.0-1.0-198.0","0","0","95460","","null","","","null","21","","","","","","","","","","","","","","","NaN",""
"","S1","","html-keyboard-response","154","264917","0.0-1.0-200.0","0","0","95460","","null","","","null","22","","","","","","","","","","","","","","","",""
"","ISI","","html-keyboard-response","155","266920","0.0-1.0-201.0","0","0","95460","","null","","","null","22","NaN","","","","","","","","","","","","","","",""
"","S2","","html-keyboard-response","156","267074","0.0-1.0-202.0","0","0","95460","","null","","","null","22","","NaN","","","","","","","","","","","","","",""
"","response","","html-keyboard-response","157","267590","0.0-1.0-203.0-0.0","0","0","95460","","515","","","68","22","","","1","22","training","adjacent","GF","7","6","M.jpg","Q.jpg","1","0","0","",""
"","feedback","","html-keyboard-response","158","268593","0.0-1.0-204.0-0.0","0","0","95460","","null","","","null","22","","","","","","","","","","","","","","","",""
"","time_out","","html-keyboard-response","159","270597","0.0-1.0-206.0-0.0","0","0","95460","","null","","","null","22","","","","","","","","","","","","","","","",""
"","ITI","","html-keyboard-response","160","271600","0.0-1.0-207.0","0","0","95460","","null","","","null","22","","","","","","","","","","","","","","","NaN",""
"","S1","","html-keyboard-response","161","271752","0.0-1.0-209.0","0","0","95460","","null","","","null","23","","","","","","","","","","","","","","","",""
"","ISI","","html-keyboard-response","162","273754","0.0-1.0-210.0","0","0","95460","","165","","","75","23","k","","","","","","","","","","","","","","",""
"","S2","","html-keyboard-response","163","273908","0.0-1.0-211.0","0","0","95460","","null","","","null","23","","NaN","","","","","","","","","","","","","",""
"","response","","html-keyboard-response","164","274222","0.0-1.0-212.0-0.0","0","0","95460","","312","","","75","23","","","1","23","training","adjacent","GF","7","6","M.jpg","Q.jpg","0","0","1","",""
"","feedback","","html-keyboard-response","165","275225","0.0-1.0-213.0-0.0","0","0","95460","","null","","","null","23","","","","","","","","","","","","","","","",""
"","ITI","","html-keyboard-response","166","276228","0.0-1.0-216.0","0","0","95460","","null","","","null","23","","","","","","","","","","","","","","","NaN",""
"","S1","","html-keyboard-response","167","276382","0.0-1.0-218.0","0","0","95460","","null","","","null","24","","","","","","","","","","","","","","","",""
"","ISI","","html-keyboard-response","168","278385","0.0-1.0-219.0","0","0","95460","","null","","","null","24","NaN","","","","","","","","","","","","","","",""
"","S2","","html-keyboard-response","169","278538","0.0-1.0-220.0","0","0","95460","","null","","","null","24","","NaN","","","","","","","","","","","","","",""
"","response","","html-keyboard-response","170","278952","0.0-1.0-221.0-0.0","0","0","95460","","411","","","68","24","","","1","24","training","adjacent","EF","5","6","O.jpg","Q.jpg","1","1","1","",""
"","feedback","","html-keyboard-response","171","279955","0.0-1.0-222.0-0.0","0","0","95460","","null","","","null","24","","","","","","","","","","","","","","","",""
"","ITI","","html-keyboard-response","172","280958","0.0-1.0-225.0","0","0","95460","","null","","","null","24","","","","","","","","","","","","","","","NaN",""
"","S1","","html-keyboard-response","173","281112","0.0-1.0-227.0","0","0","95460","","null","","","null","25","","","","","","","","","","","","","","","",""
"","ISI","","html-keyboard-response","174","283115","0.0-1.0-228.0","0","0","95460","","null","","","null","25","NaN","","","","","","","","","","","","","","",""
"","S2","","html-keyboard-response","175","283269","0.0-1.0-229.0","0","0","95460","","null","","","null","25","","NaN","","","","","","","","","","","","","",""
"","response","","html-keyboard-response","176","283894","0.0-1.0-230.0-0.0","0","0","95460","","622","","","75","25","","","1","25","training","adjacent","DC","4","3","L.jpg","N.jpg","0","0","1","",""
"","feedback","","html-keyboard-response","177","284898","0.0-1.0-231.0-0.0","0","0","95460","","null","","","null","25","","","","","","","","","","","","","","","",""
"","ITI","","html-keyboard-response","178","285901","0.0-1.0-234.0","0","0","95460","","null","","","null","25","","","","","","","","","","","","","","","NaN",""
"","S1","","html-keyboard-response","179","286055","0.0-1.0-236.0","0","0","95460","","null","","","null","26","","","","","","","","","","","","","","","",""
"","ISI","","html-keyboard-response","180","288058","0.0-1.0-237.0","0","0","95460","","null","","","null","26","NaN","","","","","","","","","","","","","","",""
"","S2","","html-keyboard-response","181","288211","0.0-1.0-238.0","0","0","95460","","null","","","null","26","","NaN","","","","","","","","","","","","","",""
"","response","","html-keyboard-response","182","289319","0.0-1.0-239.0-0.0","0","0","95460","","1105","","","75","26","","","1","26","training","adjacent","CB","3","2","N.jpg","R.jpg","0","0","1","",""
"","feedback","","html-keyboard-response","183","290323","0.0-1.0-240.0-0.0","0","0","95460","","null","","","null","26","","","","","","","","","","","","","","","",""
"","ITI","","html-keyboard-response","184","291326","0.0-1.0-243.0","0","0","95460","","null","","","null","26","","","","","","","","","","","","","","","NaN",""
"","S1","","html-keyboard-response","185","291479","0.0-1.0-245.0","0","0","95460","","null","","","null","27","","","","","","","","","","","","","","","",""
"","ISI","","html-keyboard-response","186","293482","0.0-1.0-246.0","0","0","95460","","null","","","null","27","NaN","","","","","","","","","","","","","","",""
"","S2","","html-keyboard-response","187","293635","0.0-1.0-247.0","0","0","95460","","null","","","null","27","","NaN","","","","","","","","","","","","","",""
"","response","","html-keyboard-response","188","295334","0.0-1.0-248.0-0.0","0","0","95460","","1697","","","68","27","","","1","27","training","adjacent","DE","4","5","L.jpg","O.jpg","1","1","1","",""
"","feedback","","html-keyboard-response","189","296337","0.0-1.0-249.0-0.0","0","0","95460","","null","","","null","27","","","","","","","","","","","","","","","",""
"","ITI","","html-keyboard-response","190","297340","0.0-1.0-252.0","0","0","95460","","null","","","null","27","","","","","","","","","","","","","","","NaN",""
"","S1","","html-keyboard-response","191","297493","0.0-1.0-254.0","0","0","95460","","null","","","null","28","","","","","","","","","","","","","","","",""
"","ISI","","html-keyboard-response","192","299497","0.0-1.0-255.0","0","0","95460","","null","","","null","28","NaN","","","","","","","","","","","","","","",""
"","S2","","html-keyboard-response","193","299650","0.0-1.0-256.0","0","0","95460","","null","","","null","28","","NaN","","","","","","","","","","","","","",""
"","response","","html-keyboard-response","194","301279","0.0-1.0-257.0-0.0","0","0","95460","","1626","","","75","28","","","1","28","training","adjacent","BA","2","1","R.jpg","P.jpg","0","0","1","",""
"","feedback","","html-keyboard-response","195","302282","0.0-1.0-258.0-0.0","0","0","95460","","null","","","null","28","","","","","","","","","","","","","","","",""
"","ITI","","html-keyboard-response","196","303286","0.0-1.0-261.0","0","0","95460","","null","","","null","28","","","","","","","","","","","","","","","NaN",""
"","S1","","html-keyboard-response","197","303439","0.0-1.0-263.0","0","0","95460","","null","","","null","29","","","","","","","","","","","","","","","",""
"","ISI","","html-keyboard-response","198","305441","0.0-1.0-264.0","0","0","95460","","null","","","null","29","NaN","","","","","","","","","","","","","","",""
"","S2","","html-keyboard-response","199","305594","0.0-1.0-265.0","0","0","95460","","null","","","null","29","","NaN","","","","","","","","","","","","","",""
"","response","","html-keyboard-response","200","306343","0.0-1.0-266.0-0.0","0","0","95460","","746","","","68","29","","","1","29","training","adjacent","BA","2","1","R.jpg","P.jpg","1","0","0","",""
"","feedback","","html-keyboard-response","201","307346","0.0-1.0-267.0-0.0","0","0","95460","","null","","","null","29","","","","","","","","","","","","","","","",""
"","time_out","","html-keyboard-response","202","309350","0.0-1.0-269.0-0.0","0","0","95460","","null","","","null","29","","","","","","","","","","","","","","","",""
"","ITI","","html-keyboard-response","203","310352","0.0-1.0-270.0","0","0","95460","","null","","","null","29","","","","","","","","","","","","","","","NaN",""
"","S1","","html-keyboard-response","204","310504","0.0-1.0-272.0","0","0","95460","","null","","","null","30","","","","","","","","","","","","","","","",""
"","ISI","","html-keyboard-response","205","312508","0.0-1.0-273.0","0","0","95460","","null","","","null","30","NaN","","","","","","","","","","","","","","",""
"","S2","","html-keyboard-response","206","312661","0.0-1.0-274.0","0","0","95460","","null","","","null","30","","NaN","","","","","","","","","","","","","",""
"","response","","html-keyboard-response","207","313255","0.0-1.0-275.0-0.0","0","0","95460","","592","","","68","30","","","1","30","training","adjacent","BC","2","3","R.jpg","N.jpg","1","1","1","",""
"","feedback","","html-keyboard-response","208","314259","0.0-1.0-276.0-0.0","0","0","95460","","null","","","null","30","","","","","","","","","","","","","","","",""
"","ITI","","html-keyboard-response","209","315261","0.0-1.0-279.0","0","0","95460","","null","","","null","30","","","","","","","","","","","","","","","NaN",""
"","S1","","html-keyboard-response","210","315415","0.0-1.0-281.0","0","0","95460","","null","","","null","31","","","","","","","","","","","","","","","",""
"","ISI","","html-keyboard-response","211","317417","0.0-1.0-282.0","0","0","95460","","null","","","null","31","NaN","","","","","","","","","","","","","","",""
"","S2","","html-keyboard-response","212","317571","0.0-1.0-283.0","0","0","95460","","null","","","null","31","","NaN","","","","","","","","","","","","","",""
"","response","","html-keyboard-response","213","318335","0.0-1.0-284.0-0.0","0","0","95460","","762","","","75","31","","","1","31","training","adjacent","FG","6","7","Q.jpg","M.jpg","0","1","0","",""
"","feedback","","html-keyboard-response","214","319338","0.0-1.0-285.0-0.0","0","0","95460","","null","","","null","31","","","","","","","","","","","","","","","",""
"","time_out","","html-keyboard-response","215","321341","0.0-1.0-287.0-0.0","0","0","95460","","null","","","null","31","","","","","","","","","","","","","","","",""
"","ITI","","html-keyboard-response","216","322343","0.0-1.0-288.0","0","0","95460","","null","","","null","31","","","","","","","","","","","","","","","NaN",""
"","S1","","html-keyboard-response","217","322497","0.0-1.0-290.0","0","0","95460","","null","","","null","32","","","","","","","","","","","","","","","",""
"","ISI","","html-keyboard-response","218","324500","0.0-1.0-291.0","0","0","95460","","null","","","null","32","NaN","","","","","","","","","","","","","","",""
"","S2","","html-keyboard-response","219","324654","0.0-1.0-292.0","0","0","95460","","null","","","null","32","","NaN","","","","","","","","","","","","","",""
"","response","","html-keyboard-response","220","326407","0.0-1.0-293.0-0.0","0","0","95460","","1752","","","68","32","","","1","32","training","adjacent","FE","6","5","Q.jpg","O.jpg","1","0","0","",""
"","feedback","","html-keyboard-response","221","327411","0.0-1.0-294.0-0.0","0","0","95460","","null","","","null","32","","","","","","","","","","","","","","","",""
"","time_out","","html-keyboard-response","222","329415","0.0-1.0-296.0-0.0","0","0","95460","","null","","","null","32","","","","","","","","","","","","","","","",""
"","ITI","","html-keyboard-response","223","330418","0.0-1.0-297.0","0","0","95460","","null","","","null","32","","","","","","","","","","","","","","","NaN",""
"","S1","","html-keyboard-response","224","330571","0.0-1.0-299.0","0","0","95460","","null","","","null","33","","","","","","","","","","","","","","","",""
"","ISI","","html-keyboard-response","225","332573","0.0-1.0-300.0","0","0","95460","","null","","","null","33","NaN","","","","","","","","","","","","","","",""
"","S2","","html-keyboard-response","226","332727","0.0-1.0-301.0","0","0","95460","","null","","","null","33","","NaN","","","","","","","","","","","","","",""
"","response","","html-keyboard-response","227","333951","0.0-1.0-302.0-0.0","0","0","95460","","1222","","","68","33","","","1","33","training","adjacent","DC","4","3","L.jpg","N.jpg","1","0","0","",""
"","feedback","","html-keyboard-response","228","334954","0.0-1.0-303.0-0.0","0","0","95460","","null","","","null","33","","","","","","","","","","","","","","","",""
"","time_out","","html-keyboard-response","229","336958","0.0-1.0-305.0-0.0","0","0","95460","","null","","","null","33","","","","","","","","","","","","","","","",""
"","ITI","","html-keyboard-response","230","337961","0.0-1.0-306.0","0","0","95460","","null","","","null","33","","","","","","","","","","","","","","","NaN",""
"","S1","","html-keyboard-response","231","338114","0.0-1.0-308.0","0","0","95460","","null","","","null","34","","","","","","","","","","","","","","","",""
"","ISI","","html-keyboard-response","232","340117","0.0-1.0-309.0","0","0","95460","","null","","","null","34","NaN","","","","","","","","","","","","","","",""
"","S2","","html-keyboard-response","233","340271","0.0-1.0-310.0","0","0","95460","","null","","","null","34","","NaN","","","","","","","","","","","","","",""
"","response","","html-keyboard-response","234","341696","0.0-1.0-311.0-0.0","0","0","95460","","1423","","","68","34","","","1","34","training","adjacent","FG","6","7","Q.jpg","M.jpg","1","1","1","",""
"","feedback","","html-keyboard-response","235","342701","0.0-1.0-312.0-0.0","0","0","95460","","null","","","null","34","","","","","","","","","","","","","","","",""
"","ITI","","html-keyboard-response","236","343705","0.0-1.0-315.0","0","0","95460","","null","","","null","34","","","","","","","","","","","","","","","NaN",""
"","S1","","html-keyboard-response","237","343858","0.0-1.0-317.0","0","0","95460","","null","","","null","35","","","","","","","","","","","","","","","",""
"","ISI","","html-keyboard-response","238","345862","0.0-1.0-318.0","0","0","95460","","null","","","null","35","NaN","","","","","","","","","","","","","","",""
"","S2","","html-keyboard-response","239","346016","0.0-1.0-319.0","0","0","95460","","null","","","null","35","","NaN","","","","","","","","","","","","","",""
"","response","","html-keyboard-response","240","346274","0.0-1.0-320.0-0.0","0","0","95460","","254","","","75","35","","","1","35","training","adjacent","CB","3","2","N.jpg","R.jpg","0","0","1","",""
"","feedback","","html-keyboard-response","241","347279","0.0-1.0-321.0-0.0","0","0","95460","","null","","","null","35","","","","","","","","","","","","","","","",""
"","ITI","","html-keyboard-response","242","348282","0.0-1.0-324.0","0","0","95460","","null","","","null","35","","","","","","","","","","","","","","","NaN",""
"","S1","","html-keyboard-response","243","348435","0.0-1.0-326.0","0","0","95460","","null","","","null","36","","","","","","","","","","","","","","","",""
"","ISI","","html-keyboard-response","244","350438","0.0-1.0-327.0","0","0","95460","","null","","","null","36","NaN","","","","","","","","","","","","","","",""
"","S2","","html-keyboard-response","245","350591","0.0-1.0-328.0","0","0","95460","","null","","","null","36","","NaN","","","","","","","","","","","","","",""
"","response","","html-keyboard-response","246","350888","0.0-1.0-329.0-0.0","0","0","95460","","295","","","68","36","","","1","36","training","adjacent","AB","1","2","P.jpg","R.jpg","1","1","1","",""
"","feedback","","html-keyboard-response","247","351892","0.0-1.0-330.0-0.0","0","0","95460","","null","","","null","36","","","","","","","","","","","","","","","",""
"","ITI","","html-keyboard-response","248","352895","0.0-1.0-333.0","0","0","95460","","null","","","null","36","","","","","","","","","","","","","","","NaN",""
"","S1","","html-keyboard-response","249","353049","0.0-1.0-335.0","0","0","95460","","null","","","null","37","","","","","","","","","","","","","","","",""
"","ISI","","html-keyboard-response","250","355052","0.0-1.0-336.0","0","0","95460","","null","","","null","37","NaN","","","","","","","","","","","","","","",""
"","S2","","html-keyboard-response","251","355205","0.0-1.0-337.0","0","0","95460","","null","","","null","37","","NaN","","","","","","","","","","","","","",""
"","response","","html-keyboard-response","252","355961","0.0-1.0-338.0-0.0","0","0","95460","","754","","","75","37","","","1","37","training","adjacent","DC","4","3","L.jpg","N.jpg","0","0","1","",""
"","feedback","","html-keyboard-response","253","356965","0.0-1.0-339.0-0.0","0","0","95460","","null","","","null","37","","","","","","","","","","","","","","","",""
"","ITI","","html-keyboard-response","254","357969","0.0-1.0-342.0","0","0","95460","","null","","","null","37","","","","","","","","","","","","","","","NaN",""
"","S1","","html-keyboard-response","255","358123","0.0-1.0-344.0","0","0","95460","","null","","","null","38","","","","","","","","","","","","","","","",""
"","ISI","","html-keyboard-response","256","360127","0.0-1.0-345.0","0","0","95460","","null","","","null","38","NaN","","","","","","","","","","","","","","",""
"","S2","","html-keyboard-response","257","360281","0.0-1.0-346.0","0","0","95460","","null","","","null","38","","NaN","","","","","","","","","","","","","",""
"","response","","html-keyboard-response","258","360625","0.0-1.0-347.0-0.0","0","0","95460","","342","","","75","38","","","1","38","training","adjacent","GF","7","6","M.jpg","Q.jpg","0","0","1","",""
"","feedback","","html-keyboard-response","259","361629","0.0-1.0-348.0-0.0","0","0","95460","","null","","","null","38","","","","","","","","","","","","","","","",""
"","ITI","","html-keyboard-response","260","362632","0.0-1.0-351.0","0","0","95460","","null","","","null","38","","","","","","","","","","","","","","","NaN",""
"","S1","","html-keyboard-response","261","362785","0.0-1.0-353.0","0","0","95460","","null","","","null","39","","","","","","","","","","","","","","","",""
"","ISI","","html-keyboard-response","262","364788","0.0-1.0-354.0","0","0","95460","","null","","","null","39","NaN","","","","","","","","","","","","","","",""
"","S2","","html-keyboard-response","263","364941","0.0-1.0-355.0","0","0","95460","","null","","","null","39","","NaN","","","","","","","","","","","","","",""
"","response","","html-keyboard-response","264","365337","0.0-1.0-356.0-0.0","0","0","95460","","394","","","68","39","","","1","39","training","adjacent","BA","2","1","R.jpg","P.jpg","1","0","0","",""
"","feedback","","html-keyboard-response","265","366340","0.0-1.0-357.0-0.0","0","0","95460","","null","","","null","39","","","","","","","","","","","","","","","",""
"","time_out","","html-keyboard-response","266","368344","0.0-1.0-359.0-0.0","0","0","95460","","null","","","null","39","","","","","","","","","","","","","","","",""
"","ITI","","html-keyboard-response","267","369348","0.0-1.0-360.0","0","0","95460","","null","","","null","39","","","","","","","","","","","","","","","NaN",""
"","S1","","html-keyboard-response","268","369501","0.0-1.0-362.0","0","0","95460","","null","","","null","40","","","","","","","","","","","","","","","",""
"","ISI","","html-keyboard-response","269","371504","0.0-1.0-363.0","0","0","95460","","474","","","75","40","k","","","","","","","","","","","","","","",""
"","S2","","html-keyboard-response","270","371657","0.0-1.0-364.0","0","0","95460","","null","","","null","40","","NaN","","","","","","","","","","","","","",""
"","response","","html-keyboard-response","271","371921","0.0-1.0-365.0-0.0","0","0","95460","","261","","","75","40","","","1","40","training","adjacent","DE","4","5","L.jpg","O.jpg","0","1","0","",""
"","feedback","","html-keyboard-response","272","372925","0.0-1.0-366.0-0.0","0","0","95460","","null","","","null","40","","","","","","","","","","","","","","","",""
"","time_out","","html-keyboard-response","273","374927","0.0-1.0-368.0-0.0","0","0","95460","","null","","","null","40","","","","","","","","","","","","","","","",""
"","ITI","","html-keyboard-response","274","375930","0.0-1.0-369.0","0","0","95460","","null","","","null","40","","","","","","","","","","","","","","","NaN",""
"","S1","","html-keyboard-response","275","376084","0.0-1.0-371.0","0","0","95460","","null","","","null","41","","","","","","","","","","","","","","","",""
"","ISI","","html-keyboard-response","276","378087","0.0-1.0-372.0","0","0","95460","","null","","","null","41","NaN","","","","","","","","","","","","","","",""
"","S2","","html-keyboard-response","277","378242","0.0-1.0-373.0","0","0","95460","","null","","","null","41","","NaN","","","","","","","","","","","","","",""
"","response","","html-keyboard-response","278","379274","0.0-1.0-374.0-0.0","0","0","95460","","1029","","","75","41","","","1","41","training","adjacent","CB","3","2","N.jpg","R.jpg","0","0","1","",""
"","feedback","","html-keyboard-response","279","380277","0.0-1.0-375.0-0.0","0","0","95460","","null","","","null","41","","","","","","","","","","","","","","","",""
"","ITI","","html-keyboard-response","280","381280","0.0-1.0-378.0","0","0","95460","","null","","","null","41","","","","","","","","","","","","","","","NaN",""
"","S1","","html-keyboard-response","281","381434","0.0-1.0-380.0","0","0","95460","","null","","","null","42","","","","","","","","","","","","","","","",""
"","ISI","","html-keyboard-response","282","383436","0.0-1.0-381.0","0","0","95460","","null","","","null","42","NaN","","","","","","","","","","","","","","",""
"","S2","","html-keyboard-response","283","383590","0.0-1.0-382.0","0","0","95460","","null","","","null","42","","NaN","","","","","","","","","","","","","",""
"","response","","html-keyboard-response","284","384730","0.0-1.0-383.0-0.0","0","0","95460","","1137","","","68","42","","","1","42","training","adjacent","ED","5","4","O.jpg","L.jpg","1","0","0","",""
"","feedback","","html-keyboard-response","285","385734","0.0-1.0-384.0-0.0","0","0","95460","","null","","","null","42","","","","","","","","","","","","","","","",""
"","time_out","","html-keyboard-response","286","387737","0.0-1.0-386.0-0.0","0","0","95460","","null","","","null","42","","","","","","","","","","","","","","","",""
"","ITI","","html-keyboard-response","287","388741","0.0-1.0-387.0","0","0","95460","","null","","","null","42","","","","","","","","","","","","","","","NaN",""
"","S1","","html-keyboard-response","288","388894","0.0-1.0-389.0","0","0","95460","","null","","","null","43","","","","","","","","","","","","","","","",""
"","ISI","","html-keyboard-response","289","390897","0.0-1.0-390.0","0","0","95460","","null","","","null","43","NaN","","","","","","","","","","","","","","",""
"","S2","","html-keyboard-response","290","391062","0.0-1.0-391.0","0","0","95460","","null","","","null","43","","NaN","","","","","","","","","","","","","",""
"","response","","html-keyboard-response","291","391738","0.0-1.0-392.0-0.0","0","0","95460","","674","","","75","43","","","1","43","training","adjacent","BC","2","3","R.jpg","N.jpg","0","1","0","",""
"","feedback","","html-keyboard-response","292","392742","0.0-1.0-393.0-0.0","0","0","95460","","null","","","null","43","","","","","","","","","","","","","","","",""
"","time_out","","html-keyboard-response","293","394746","0.0-1.0-395.0-0.0","0","0","95460","","null","","","null","43","","","","","","","","","","","","","","","",""
"","ITI","","html-keyboard-response","294","395748","0.0-1.0-396.0","0","0","95460","","null","","","null","43","","","","","","","","","","","","","","","NaN",""
"","S1","","html-keyboard-response","295","395903","0.0-1.0-398.0","0","0","95460","","null","","","null","44","","","","","","","","","","","","","","","",""
"","ISI","","html-keyboard-response","296","397906","0.0-1.0-399.0","0","0","95460","","null","","","null","44","NaN","","","","","","","","","","","","","","",""
"","S2","","html-keyboard-response","297","398060","0.0-1.0-400.0","0","0","95460","","null","","","null","44","","NaN","","","","","","","","","","","","","",""
"","response","","html-keyboard-response","298","398411","0.0-1.0-401.0-0.0","0","0","95460","","348","","","68","44","","","1","44","training","adjacent","AB","1","2","P.jpg","R.jpg","1","1","1","",""
"","feedback","","html-keyboard-response","299","399414","0.0-1.0-402.0-0.0","0","0","95460","","null","","","null","44","","","","","","","","","","","","","","","",""
"","ITI","","html-keyboard-response","300","400418","0.0-1.0-405.0","0","0","95460","","null","","","null","44","","","","","","","","","","","","","","","NaN",""
"","S1","","html-keyboard-response","301","400572","0.0-1.0-407.0","0","0","95460","","null","","","null","45","","","","","","","","","","","","","","","",""
"","ISI","","html-keyboard-response","302","402575","0.0-1.0-408.0","0","0","95460","","null","","","null","45","NaN","","","","","","","","","","","","","","",""
"","S2","","html-keyboard-response","303","402728","0.0-1.0-409.0","0","0","95460","","null","","","null","45","","NaN","","","","","","","","","","","","","",""
"","response","","html-keyboard-response","304","403793","0.0-1.0-410.0-0.0","0","0","95460","","1063","","","68","45","","","1","45","training","adjacent","GF","7","6","M.jpg","Q.jpg","1","0","0","",""
"","feedback","","html-keyboard-response","305","404797","0.0-1.0-411.0-0.0","0","0","95460","","null","","","null","45","","","","","","","","","","","","","","","",""
"","time_out","","html-keyboard-response","306","406801","0.0-1.0-413.0-0.0","0","0","95460","","null","","","null","45","","","","","","","","","","","","","","","",""
"","ITI","","html-keyboard-response","307","407804","0.0-1.0-414.0","0","0","95460","","null","","","null","45","","","","","","","","","","","","","","","NaN",""
"","S1","","html-keyboard-response","308","407956","0.0-1.0-416.0","0","0","95460","","null","","","null","46","","","","","","","","","","","","","","","",""
"","ISI","","html-keyboard-response","309","409958","0.0-1.0-417.0","0","0","95460","","null","","","null","46","NaN","","","","","","","","","","","","","","",""
"","S2","","html-keyboard-response","310","410118","0.0-1.0-418.0","0","0","95460","","null","","","null","46","","NaN","","","","","","","","","","","","","",""
"","response","","html-keyboard-response","311","411354","0.0-1.0-419.0-0.0","0","0","95460","","1234","","","75","46","","","1","46","training","adjacent","DE","4","5","L.jpg","O.jpg","0","1","0","",""
"","feedback","","html-keyboard-response","312","412359","0.0-1.0-420.0-0.0","0","0","95460","","null","","","null","46","","","","","","","","","","","","","","","",""
"","time_out","","html-keyboard-response","313","414363","0.0-1.0-422.0-0.0","0","0","95460","","null","","","null","46","","","","","","","","","","","","","","","",""
"","ITI","","html-keyboard-response","314","415367","0.0-1.0-423.0","0","0","95460","","null","","","null","46","","","","","","","","","","","","","","","NaN",""
"","S1","","html-keyboard-response","315","415520","0.0-1.0-425.0","0","0","95460","","null","","","null","47","","","","","","","","","","","","","","","",""
"","ISI","","html-keyboard-response","316","417523","0.0-1.0-426.0","0","0","95460","","null","","","null","47","NaN","","","","","","","","","","","","","","",""
"","S2","","html-keyboard-response","317","417675","0.0-1.0-427.0","0","0","95460","","null","","","null","47","","NaN","","","","","","","","","","","","","",""
"","response","","html-keyboard-response","318","418802","0.0-1.0-428.0-0.0","0","0","95460","","1124","","","68","47","","","1","47","training","adjacent","AB","1","2","P.jpg","R.jpg","1","1","1","",""
"","feedback","","html-keyboard-response","319","419807","0.0-1.0-429.0-0.0","0","0","95460","","null","","","null","47","","","","","","","","","","","","","","","",""
"","ITI","","html-keyboard-response","320","420811","0.0-1.0-432.0","0","0","95460","","null","","","null","47","","","","","","","","","","","","","","","NaN",""
"","block_over","","html-keyboard-response","321","425731","0.0-1.0-433.0-0.0","0","0","95460","","4916","","","32","47","","","","","","","","","","","","","","","",""
"","S1","","html-keyboard-response","322","425883","0.0-1.0-434.0","0","0","95460","","null","","","null","48","","","","","","","","","","","","","","","",""
"","ISI","","html-keyboard-response","323","427886","0.0-1.0-435.0","0","0","95460","","null","","","null","48","NaN","","","","","","","","","","","","","","",""
"","S2","","html-keyboard-response","324","428050","0.0-1.0-436.0","0","0","95460","","null","","","null","48","","NaN","","","","","","","","","","","","","",""
"","response","","html-keyboard-response","325","428634","0.0-1.0-437.0-0.0","0","0","95460","","582","","","75","48","","","2","48","training","adjacent","BA","2","1","R.jpg","P.jpg","0","0","1","",""
"","feedback","","html-keyboard-response","326","429638","0.0-1.0-438.0-0.0","0","0","95460","","null","","","null","48","","","","","","","","","","","","","","","",""
"","ITI","","html-keyboard-response","327","430641","0.0-1.0-441.0","0","0","95460","","null","","","null","48","","","","","","","","","","","","","","","NaN",""
"","S1","","html-keyboard-response","328","430794","0.0-1.0-443.0","0","0","95460","","null","","","null","49","","","","","","","","","","","","","","","",""
"","ISI","","html-keyboard-response","329","432797","0.0-1.0-444.0","0","0","95460","","null","","","null","49","NaN","","","","","","","","","","","","","","",""
"","S2","","html-keyboard-response","330","432951","0.0-1.0-445.0","0","0","95460","","null","","","null","49","","NaN","","","","","","","","","","","","","",""
"","response","","html-keyboard-response","331","433346","0.0-1.0-446.0-0.0","0","0","95460","","393","","","68","49","","","2","49","training","adjacent","ED","5","4","O.jpg","L.jpg","1","0","0","",""
"","feedback","","html-keyboard-response","332","434351","0.0-1.0-447.0-0.0","0","0","95460","","null","","","null","49","","","","","","","","","","","","","","","",""
"","time_out","","html-keyboard-response","333","436355","0.0-1.0-449.0-0.0","0","0","95460","","null","","","null","49","","","","","","","","","","","","","","","",""
"","ITI","","html-keyboard-response","334","437358","0.0-1.0-450.0","0","0","95460","","null","","","null","49","","","","","","","","","","","","","","","NaN",""
"","S1","","html-keyboard-response","335","437511","0.0-1.0-452.0","0","0","95460","","null","","","null","50","","","","","","","","","","","","","","","",""
"","ISI","","html-keyboard-response","336","439514","0.0-1.0-453.0","0","0","95460","","null","","","null","50","NaN","","","","","","","","","","","","","","",""
"","S2","","html-keyboard-response","337","439667","0.0-1.0-454.0","0","0","95460","","null","","","null","50","","NaN","","","","","","","","","","","","","",""
"","response","","html-keyboard-response","338","440155","0.0-1.0-455.0-0.0","0","0","95460","","485","","","75","50","","","2","50","training","adjacent","FG","6","7","Q.jpg","M.jpg","0","1","0","",""
"","feedback","","html-keyboard-response","339","441159","0.0-1.0-456.0-0.0","0","0","95460","","null","","","null","50","","","","","","","","","","","","","","","",""
"","time_out","","html-keyboard-response","340","443163","0.0-1.0-458.0-0.0","0","0","95460","","null","","","null","50","","","","","","","","","","","","","","","",""
"","ITI","","html-keyboard-response","341","444166","0.0-1.0-459.0","0","0","95460","","null","","","null","50","","","","","","","","","","","","","","","NaN",""
"","S1","","html-keyboard-response","342","444332","0.0-1.0-461.0","0","0","95460","","null","","","null","51","","","","","","","","","","","","","","","",""
"","ISI","","html-keyboard-response","343","446335","0.0-1.0-462.0","0","0","95460","","null","","","null","51","NaN","","","","","","","","","","","","","","",""
"","S2","","html-keyboard-response","344","446487","0.0-1.0-463.0","0","0","95460","","null","","","null","51","","NaN","","","","","","","","","","","","","",""
"","response","","html-keyboard-response","345","447067","0.0-1.0-464.0-0.0","0","0","95460","","577","","","68","51","","","2","51","training","adjacent","BC","2","3","R.jpg","N.jpg","1","1","1","",""
"","feedback","","html-keyboard-response","346","448071","0.0-1.0-465.0-0.0","0","0","95460","","null","","","null","51","","","","","","","","","","","","","","","",""
"","ITI","","html-keyboard-response","347","449075","0.0-1.0-468.0","0","0","95460","","null","","","null","51","","","","","","","","","","","","","","","NaN",""
"","S1","","html-keyboard-response","348","449228","0.0-1.0-470.0","0","0","95460","","null","","","null","52","","","","","","","","","","","","","","","",""
"","ISI","","html-keyboard-response","349","451231","0.0-1.0-471.0","0","0","95460","","null","","","null","52","NaN","","","","","","","","","","","","","","",""
"","S2","","html-keyboard-response","350","451384","0.0-1.0-472.0","0","0","95460","","null","","","null","52","","NaN","","","","","","","","","","","","","",""
"","response","","html-keyboard-response","351","451819","0.0-1.0-473.0-0.0","0","0","95460","","432","","","68","52","","","2","52","training","adjacent","CB","3","2","N.jpg","R.jpg","1","0","0","",""
"","feedback","","html-keyboard-response","352","452823","0.0-1.0-474.0-0.0","0","0","95460","","null","","","null","52","","","","","","","","","","","","","","","",""
"","time_out","","html-keyboard-response","353","454828","0.0-1.0-476.0-0.0","0","0","95460","","null","","","null","52","","","","","","","","","","","","","","","",""
"","ITI","","html-keyboard-response","354","455830","0.0-1.0-477.0","0","0","95460","","null","","","null","52","","","","","","","","","","","","","","","NaN",""
"","S1","","html-keyboard-response","355","455984","0.0-1.0-479.0","0","0","95460","","null","","","null","53","","","","","","","","","","","","","","","",""
"","ISI","","html-keyboard-response","356","457986","0.0-1.0-480.0","0","0","95460","","null","","","null","53","NaN","","","","","","","","","","","","","","",""
"","S2","","html-keyboard-response","357","458140","0.0-1.0-481.0","0","0","95460","","null","","","null","53","","NaN","","","","","","","","","","","","","",""
"","response","","html-keyboard-response","358","458611","0.0-1.0-482.0-0.0","0","0","95460","","468","","","75","53","","","2","53","training","adjacent","FE","6","5","Q.jpg","O.jpg","0","0","1","",""
"","feedback","","html-keyboard-response","359","459614","0.0-1.0-483.0-0.0","0","0","95460","","null","","","null","53","","","","","","","","","","","","","","","",""
"","ITI","","html-keyboard-response","360","460616","0.0-1.0-486.0","0","0","95460","","null","","","null","53","","","","","","","","","","","","","","","NaN",""
"","S1","","html-keyboard-response","361","460770","0.0-1.0-488.0","0","0","95460","","null","","","null","54","","","","","","","","","","","","","","","",""
"","ISI","","html-keyboard-response","362","462773","0.0-1.0-489.0","0","0","95460","","null","","","null","54","NaN","","","","","","","","","","","","","","",""
"","S2","","html-keyboard-response","363","462926","0.0-1.0-490.0","0","0","95460","","null","","","null","54","","NaN","","","","","","","","","","","","","",""
"","response","","html-keyboard-response","364","463532","0.0-1.0-491.0-0.0","0","0","95460","","603","","","75","54","","","2","54","training","adjacent","BA","2","1","R.jpg","P.jpg","0","0","1","",""
"","feedback","","html-keyboard-response","365","464537","0.0-1.0-492.0-0.0","0","0","95460","","null","","","null","54","","","","","","","","","","","","","","","",""
"","ITI","","html-keyboard-response","366","465541","0.0-1.0-495.0","0","0","95460","","null","","","null","54","","","","","","","","","","","","","","","NaN",""
"","S1","","html-keyboard-response","367","465694","0.0-1.0-497.0","0","0","95460","","null","","","null","55","","","","","","","","","","","","","","","",""
"","ISI","","html-keyboard-response","368","467697","0.0-1.0-498.0","0","0","95460","","null","","","null","55","NaN","","","","","","","","","","","","","","",""
"","S2","","html-keyboard-response","369","467851","0.0-1.0-499.0","0","0","95460","","null","","","null","55","","NaN","","","","","","","","","","","","","",""
"","response","","html-keyboard-response","370","468379","0.0-1.0-500.0-0.0","0","0","95460","","527","","","68","55","","","2","55","training","adjacent","AB","1","2","P.jpg","R.jpg","1","1","1","",""
"","feedback","","html-keyboard-response","371","469383","0.0-1.0-501.0-0.0","0","0","95460","","null","","","null","55","","","","","","","","","","","","","","","",""
"","ITI","","html-keyboard-response","372","470387","0.0-1.0-504.0","0","0","95460","","null","","","null","55","","","","","","","","","","","","","","","NaN",""
"","S1","","html-keyboard-response","373","470540","0.0-1.0-506.0","0","0","95460","","null","","","null","56","","","","","","","","","","","","","","","",""
"","ISI","","html-keyboard-response","374","472543","0.0-1.0-507.0","0","0","95460","","null","","","null","56","NaN","","","","","","","","","","","","","","",""
"","S2","","html-keyboard-response","375","472697","0.0-1.0-508.0","0","0","95460","","null","","","null","56","","NaN","","","","","","","","","","","","","",""
"","response","","html-keyboard-response","376","474372","0.0-1.0-509.0-0.0","0","0","95460","","1672","","","75","56","","","2","56","training","adjacent","CB","3","2","N.jpg","R.jpg","0","0","1","",""
"","feedback","","html-keyboard-response","377","475375","0.0-1.0-510.0-0.0","0","0","95460","","null","","","null","56","","","","","","","","","","","","","","","",""
"","ITI","","html-keyboard-response","378","476379","0.0-1.0-513.0","0","0","95460","","null","","","null","56","","","","","","","","","","","","","","","NaN",""
"","S1","","html-keyboard-response","379","476532","0.0-1.0-515.0","0","0","95460","","null","","","null","57","","","","","","","","","","","","","","","",""
"","ISI","","html-keyboard-response","380","478536","0.0-1.0-516.0","0","0","95460","","null","","","null","57","NaN","","","","","","","","","","","","","","",""
"","S2","","html-keyboard-response","381","478690","0.0-1.0-517.0","0","0","95460","","null","","","null","57","","NaN","","","","","","","","","","","","","",""
"","response","","html-keyboard-response","382","479540","0.0-1.0-518.0-0.0","0","0","95460","","847","","","75","57","","","2","57","training","adjacent","FE","6","5","Q.jpg","O.jpg","0","0","1","",""
"","feedback","","html-keyboard-response","383","480543","0.0-1.0-519.0-0.0","0","0","95460","","null","","","null","57","","","","","","","","","","","","","","","",""
"","ITI","","html-keyboard-response","384","481546","0.0-1.0-522.0","0","0","95460","","null","","","null","57","","","","","","","","","","","","","","","NaN",""
"","S1","","html-keyboard-response","385","481702","0.0-1.0-524.0","0","0","95460","","null","","","null","58","","","","","","","","","","","","","","","",""
"","ISI","","html-keyboard-response","386","483705","0.0-1.0-525.0","0","0","95460","","null","","","null","58","NaN","","","","","","","","","","","","","","",""
"","S2","","html-keyboard-response","387","483858","0.0-1.0-526.0","0","0","95460","","null","","","null","58","","NaN","","","","","","","","","","","","","",""
"","response","","html-keyboard-response","388","484364","0.0-1.0-527.0-0.0","0","0","95460","","502","","","68","58","","","2","58","training","adjacent","GF","7","6","M.jpg","Q.jpg","1","0","0","",""
"","feedback","","html-keyboard-response","389","485369","0.0-1.0-528.0-0.0","0","0","95460","","null","","","null","58","","","","","","","","","","","","","","","",""
"","time_out","","html-keyboard-response","390","487372","0.0-1.0-530.0-0.0","0","0","95460","","null","","","null","58","","","","","","","","","","","","","","","",""
"","ITI","","html-keyboard-response","391","488378","0.0-1.0-531.0","0","0","95460","","null","","","null","58","","","","","","","","","","","","","","","NaN",""
"","S1","","html-keyboard-response","392","488532","0.0-1.0-533.0","0","0","95460","","null","","","null","59","","","","","","","","","","","","","","","",""
"","ISI","","html-keyboard-response","393","490535","0.0-1.0-534.0","0","0","95460","","null","","","null","59","NaN","","","","","","","","","","","","","","",""
"","S2","","html-keyboard-response","394","490689","0.0-1.0-535.0","0","0","95460","","null","","","null","59","","NaN","","","","","","","","","","","","","",""
"","response","","html-keyboard-response","395","491148","0.0-1.0-536.0-0.0","0","0","95460","","458","","","75","59","","","2","59","training","adjacent","EF","5","6","O.jpg","Q.jpg","0","1","0","",""
"","feedback","","html-keyboard-response","396","492152","0.0-1.0-537.0-0.0","0","0","95460","","null","","","null","59","","","","","","","","","","","","","","","",""
"","time_out","","html-keyboard-response","397","494154","0.0-1.0-539.0-0.0","0","0","95460","","null","","","null","59","","","","","","","","","","","","","","","",""
"","ITI","","html-keyboard-response","398","495157","0.0-1.0-540.0","0","0","95460","","null","","","null","59","","","","","","","","","","","","","","","NaN",""
"","S1","","html-keyboard-response","399","495311","0.0-1.0-542.0","0","0","95460","","null","","","null","60","","","","","","","","","","","","","","","",""
"","ISI","","html-keyboard-response","400","497314","0.0-1.0-543.0","0","0","95460","","null","","","null","60","NaN","","","","","","","","","","","","","","",""
"","S2","","html-keyboard-response","401","497467","0.0-1.0-544.0","0","0","95460","","null","","","null","60","","NaN","","","","","","","","","","","","","",""
"","response","","html-keyboard-response","402","497644","0.0-1.0-545.0-0.0","0","0","95460","","174","","","75","60","","","2","60","training","adjacent","ED","5","4","O.jpg","L.jpg","0","0","1","",""
"","feedback","","html-keyboard-response","403","498647","0.0-1.0-546.0-0.0","0","0","95460","","null","","","null","60","","","","","","","","","","","","","","","",""
"","ITI","","html-keyboard-response","404","499651","0.0-1.0-549.0","0","0","95460","","null","","","null","60","","","","","","","","","","","","","","","NaN",""
"","S1","","html-keyboard-response","405","499804","0.0-1.0-551.0","0","0","95460","","null","","","null","61","","","","","","","","","","","","","","","",""
"","ISI","","html-keyboard-response","406","501807","0.0-1.0-552.0","0","0","95460","","null","","","null","61","NaN","","","","","","","","","","","","","","",""
"","S2","","html-keyboard-response","407","501961","0.0-1.0-553.0","0","0","95460","","null","","","null","61","","NaN","","","","","","","","","","","","","",""
"","response","","html-keyboard-response","408","502310","0.0-1.0-554.0-0.0","0","0","95460","","346","","","75","61","","","2","61","training","adjacent","DC","4","3","L.jpg","N.jpg","0","0","1","",""
"","feedback","","html-keyboard-response","409","503314","0.0-1.0-555.0-0.0","0","0","95460","","null","","","null","61","","","","","","","","","","","","","","","",""
"","ITI","","html-keyboard-response","410","504317","0.0-1.0-558.0","0","0","95460","","null","","","null","61","","","","","","","","","","","","","","","NaN",""
"","S1","","html-keyboard-response","411","504471","0.0-1.0-560.0","0","0","95460","","null","","","null","62","","","","","","","","","","","","","","","",""
"","ISI","","html-keyboard-response","412","506474","0.0-1.0-561.0","0","0","95460","","null","","","null","62","NaN","","","","","","","","","","","","","","",""
"","S2","","html-keyboard-response","413","506628","0.0-1.0-562.0","0","0","95460","","null","","","null","62","","NaN","","","","","","","","","","","","","",""
"","response","","html-keyboard-response","414","507092","0.0-1.0-563.0-0.0","0","0","95460","","462","","","75","62","","","2","62","training","adjacent","ED","5","4","O.jpg","L.jpg","0","0","1","",""
"","feedback","","html-keyboard-response","415","508097","0.0-1.0-564.0-0.0","0","0","95460","","null","","","null","62","","","","","","","","","","","","","","","",""
"","ITI","","html-keyboard-response","416","509101","0.0-1.0-567.0","0","0","95460","","null","","","null","62","","","","","","","","","","","","","","","NaN",""
"","S1","","html-keyboard-response","417","509254","0.0-1.0-569.0","0","0","95460","","null","","","null","63","","","","","","","","","","","","","","","",""
"","ISI","","html-keyboard-response","418","511258","0.0-1.0-570.0","0","0","95460","","null","","","null","63","NaN","","","","","","","","","","","","","","",""
"","S2","","html-keyboard-response","419","511411","0.0-1.0-571.0","0","0","95460","","null","","","null","63","","NaN","","","","","","","","","","","","","",""
"","response","","html-keyboard-response","420","512061","0.0-1.0-572.0-0.0","0","0","95460","","647","","","75","63","","","2","63","training","adjacent","FE","6","5","Q.jpg","O.jpg","0","0","1","",""
"","feedback","","html-keyboard-response","421","513065","0.0-1.0-573.0-0.0","0","0","95460","","null","","","null","63","","","","","","","","","","","","","","","",""
"","ITI","","html-keyboard-response","422","514068","0.0-1.0-576.0","0","0","95460","","null","","","null","63","","","","","","","","","","","","","","","NaN",""
"","S1","","html-keyboard-response","423","514222","0.0-1.0-578.0","0","0","95460","","null","","","null","64","","","","","","","","","","","","","","","",""
"","ISI","","html-keyboard-response","424","516225","0.0-1.0-579.0","0","0","95460","","null","","","null","64","NaN","","","","","","","","","","","","","","",""
"","S2","","html-keyboard-response","425","516378","0.0-1.0-580.0","0","0","95460","","null","","","null","64","","NaN","","","","","","","","","","","","","",""
"","response","","html-keyboard-response","426","517109","0.0-1.0-581.0-0.0","0","0","95460","","728","","","75","64","","","2","64","training","adjacent","BC","2","3","R.jpg","N.jpg","0","1","0","",""
"","feedback","","html-keyboard-response","427","518113","0.0-1.0-582.0-0.0","0","0","95460","","null","","","null","64","","","","","","","","","","","","","","","",""
"","time_out","","html-keyboard-response","428","520117","0.0-1.0-584.0-0.0","0","0","95460","","null","","","null","64","","","","","","","","","","","","","","","",""
"","ITI","","html-keyboard-response","429","521120","0.0-1.0-585.0","0","0","95460","","null","","","null","64","","","","","","","","","","","","","","","NaN",""
"","S1","","html-keyboard-response","430","521273","0.0-1.0-587.0","0","0","95460","","null","","","null","65","","","","","","","","","","","","","","","",""
"","ISI","","html-keyboard-response","431","523275","0.0-1.0-588.0","0","0","95460","","null","","","null","65","NaN","","","","","","","","","","","","","","",""
"","S2","","html-keyboard-response","432","523429","0.0-1.0-589.0","0","0","95460","","null","","","null","65","","NaN","","","","","","","","","","","","","",""
"","response","","html-keyboard-response","433","523981","0.0-1.0-590.0-0.0","0","0","95460","","549","","","75","65","","","2","65","training","adjacent","FG","6","7","Q.jpg","M.jpg","0","1","0","",""
"","feedback","","html-keyboard-response","434","524984","0.0-1.0-591.0-0.0","0","0","95460","","null","","","null","65","","","","","","","","","","","","","","","",""
"","time_out","","html-keyboard-response","435","526988","0.0-1.0-593.0-0.0","0","0","95460","","null","","","null","65","","","","","","","","","","","","","","","",""
"","ITI","","html-keyboard-response","436","527990","0.0-1.0-594.0","0","0","95460","","null","","","null","65","","","","","","","","","","","","","","","NaN",""
"","S1","","html-keyboard-response","437","528144","0.0-1.0-596.0","0","0","95460","","null","","","null","66","","","","","","","","","","","","","","","",""
"","ISI","","html-keyboard-response","438","530147","0.0-1.0-597.0","0","0","95460","","null","","","null","66","NaN","","","","","","","","","","","","","","",""
"","S2","","html-keyboard-response","439","530301","0.0-1.0-598.0","0","0","95460","","null","","","null","66","","NaN","","","","","","","","","","","","","",""
"","response","","html-keyboard-response","440","530444","0.0-1.0-599.0-0.0","0","0","95460","","141","","","75","66","","","2","66","training","adjacent","ED","5","4","O.jpg","L.jpg","0","0","1","",""
"","feedback","","html-keyboard-response","441","531448","0.0-1.0-600.0-0.0","0","0","95460","","null","","","null","66","","","","","","","","","","","","","","","",""
"","ITI","","html-keyboard-response","442","532451","0.0-1.0-603.0","0","0","95460","","null","","","null","66","","","","","","","","","","","","","","","NaN",""
"","S1","","html-keyboard-response","443","532604","0.0-1.0-605.0","0","0","95460","","null","","","null","67","","","","","","","","","","","","","","","",""
"","ISI","","html-keyboard-response","444","534609","0.0-1.0-606.0","0","0","95460","","null","","","null","67","NaN","","","","","","","","","","","","","","",""
"","S2","","html-keyboard-response","445","534762","0.0-1.0-607.0","0","0","95460","","null","","","null","67","","NaN","","","","","","","","","","","","","",""
"","response","","html-keyboard-response","446","535380","0.0-1.0-608.0-0.0","0","0","95460","","616","","","68","67","","","2","67","training","adjacent","AB","1","2","P.jpg","R.jpg","1","1","1","",""
"","feedback","","html-keyboard-response","447","536384","0.0-1.0-609.0-0.0","0","0","95460","","null","","","null","67","","","","","","","","","","","","","","","",""
"","ITI","","html-keyboard-response","448","537387","0.0-1.0-612.0","0","0","95460","","null","","","null","67","","","","","","","","","","","","","","","NaN",""
"","S1","","html-keyboard-response","449","537541","0.0-1.0-614.0","0","0","95460","","null","","","null","68","","","","","","","","","","","","","","","",""
"","ISI","","html-keyboard-response","450","539544","0.0-1.0-615.0","0","0","95460","","null","","","null","68","NaN","","","","","","","","","","","","","","",""
"","S2","","html-keyboard-response","451","539698","0.0-1.0-616.0","0","0","95460","","null","","","null","68","","NaN","","","","","","","","","","","","","",""
"","response","","html-keyboard-response","452","540356","0.0-1.0-617.0-0.0","0","0","95460","","655","","","75","68","","","2","68","training","adjacent","CB","3","2","N.jpg","R.jpg","0","0","1","",""
"","feedback","","html-keyboard-response","453","541360","0.0-1.0-618.0-0.0","0","0","95460","","null","","","null","68","","","","","","","","","","","","","","","",""
"","ITI","","html-keyboard-response","454","542364","0.0-1.0-621.0","0","0","95460","","null","","","null","68","","","","","","","","","","","","","","","NaN",""
"","S1","","html-keyboard-response","455","542518","0.0-1.0-623.0","0","0","95460","","null","","","null","69","","","","","","","","","","","","","","","",""
"","ISI","","html-keyboard-response","456","544521","0.0-1.0-624.0","0","0","95460","","null","","","null","69","NaN","","","","","","","","","","","","","","",""
"","S2","","html-keyboard-response","457","544674","0.0-1.0-625.0","0","0","95460","","null","","","null","69","","NaN","","","","","","","","","","","","","",""
"","response","","html-keyboard-response","458","545118","0.0-1.0-626.0-0.0","0","0","95460","","441","","","75","69","","","2","69","training","adjacent","DE","4","5","L.jpg","O.jpg","0","1","0","",""
"","feedback","","html-keyboard-response","459","546121","0.0-1.0-627.0-0.0","0","0","95460","","null","","","null","69","","","","","","","","","","","","","","","",""
"","time_out","","html-keyboard-response","460","548125","0.0-1.0-629.0-0.0","0","0","95460","","null","","","null","69","","","","","","","","","","","","","","","",""
"","ITI","","html-keyboard-response","461","549128","0.0-1.0-630.0","0","0","95460","","null","","","null","69","","","","","","","","","","","","","","","NaN",""
"","S1","","html-keyboard-response","462","549282","0.0-1.0-632.0","0","0","95460","","null","","","null","70","","","","","","","","","","","","","","","",""
"","ISI","","html-keyboard-response","463","551284","0.0-1.0-633.0","0","0","95460","","null","","","null","70","NaN","","","","","","","","","","","","","","",""
"","S2","","html-keyboard-response","464","551437","0.0-1.0-634.0","0","0","95460","","null","","","null","70","","NaN","","","","","","","","","","","","","",""
"","response","","html-keyboard-response","465","551900","0.0-1.0-635.0-0.0","0","0","95460","","461","","","75","70","","","2","70","training","adjacent","BC","2","3","R.jpg","N.jpg","0","1","0","",""
"","feedback","","html-keyboard-response","466","552904","0.0-1.0-636.0-0.0","0","0","95460","","null","","","null","70","","","","","","","","","","","","","","","",""
"","time_out","","html-keyboard-response","467","554907","0.0-1.0-638.0-0.0","0","0","95460","","null","","","null","70","","","","","","","","","","","","","","","",""
"","ITI","","html-keyboard-response","468","555910","0.0-1.0-639.0","0","0","95460","","null","","","null","70","","","","","","","","","","","","","","","NaN",""
"","S1","","html-keyboard-response","469","556063","0.0-1.0-641.0","0","0","95460","","null","","","null","71","","","","","","","","","","","","","","","",""
"","ISI","","html-keyboard-response","470","558066","0.0-1.0-642.0","0","0","95460","","459","","","68","71","d","","","","","","","","","","","","","","",""
"","S2","","html-keyboard-response","471","558219","0.0-1.0-643.0","0","0","95460","","null","","","null","71","","NaN","","","","","","","","","","","","","",""
"","response","","html-keyboard-response","472","558710","0.0-1.0-644.0-0.0","0","0","95460","","488","","","68","71","","","2","71","training","adjacent","GF","7","6","M.jpg","Q.jpg","1","0","0","",""
"","feedback","","html-keyboard-response","473","559714","0.0-1.0-645.0-0.0","0","0","95460","","null","","","null","71","","","","","","","","","","","","","","","",""
"","time_out","","html-keyboard-response","474","561718","0.0-1.0-647.0-0.0","0","0","95460","","null","","","null","71","","","","","","","","","","","","","","","",""
"","ITI","","html-keyboard-response","475","562721","0.0-1.0-648.0","0","0","95460","","null","","","null","71","","","","","","","","","","","","","","","NaN",""
"","S1","","html-keyboard-response","476","562875","0.0-1.0-650.0","0","0","95460","","null","","","null","72","","","","","","","","","","","","","","","",""
"","ISI","","html-keyboard-response","477","564878","0.0-1.0-651.0","0","0","95460","","null","","","null","72","NaN","","","","","","","","","","","","","","",""
"","S2","","html-keyboard-response","478","565032","0.0-1.0-652.0","0","0","95460","","null","","","null","72","","NaN","","","","","","","","","","","","","",""
"","response","","html-keyboard-response","479","565381","0.0-1.0-653.0-0.0","0","0","95460","","346","","","75","72","","","2","72","training","adjacent","CB","3","2","N.jpg","R.jpg","0","0","1","",""
"","feedback","","html-keyboard-response","480","566385","0.0-1.0-654.0-0.0","0","0","95460","","null","","","null","72","","","","","","","","","","","","","","","",""
"","ITI","","html-keyboard-response","481","567389","0.0-1.0-657.0","0","0","95460","","null","","","null","72","","","","","","","","","","","","","","","NaN",""
"","S1","","html-keyboard-response","482","567543","0.0-1.0-659.0","0","0","95460","","null","","","null","73","","","","","","","","","","","","","","","",""
"","ISI","","html-keyboard-response","483","569546","0.0-1.0-660.0","0","0","95460","","null","","","null","73","NaN","","","","","","","","","","","","","","",""
"","S2","","html-keyboard-response","484","569699","0.0-1.0-661.0","0","0","95460","","null","","","null","73","","NaN","","","","","","","","","","","","","",""
"","response","","html-keyboard-response","485","570541","0.0-1.0-662.0-0.0","0","0","95460","","841","","","75","73","","","2","73","training","adjacent","BA","2","1","R.jpg","P.jpg","0","0","1","",""
"","feedback","","html-keyboard-response","486","571547","0.0-1.0-663.0-0.0","0","0","95460","","null","","","null","73","","","","","","","","","","","","","","","",""
"","ITI","","html-keyboard-response","487","572551","0.0-1.0-666.0","0","0","95460","","null","","","null","73","","","","","","","","","","","","","","","NaN",""
"","S1","","html-keyboard-response","488","572705","0.0-1.0-668.0","0","0","95460","","null","","","null","74","","","","","","","","","","","","","","","",""
"","ISI","","html-keyboard-response","489","574708","0.0-1.0-669.0","0","0","95460","","null","","","null","74","NaN","","","","","","","","","","","","","","",""
"","S2","","html-keyboard-response","490","574861","0.0-1.0-670.0","0","0","95460","","null","","","null","74","","NaN","","","","","","","","","","","","","",""
"","response","","html-keyboard-response","491","575445","0.0-1.0-671.0-0.0","0","0","95460","","581","","","75","74","","","2","74","training","adjacent","DE","4","5","L.jpg","O.jpg","0","1","0","",""
"","feedback","","html-keyboard-response","492","576450","0.0-1.0-672.0-0.0","0","0","95460","","null","","","null","74","","","","","","","","","","","","","","","",""
"","time_out","","html-keyboard-response","493","578453","0.0-1.0-674.0-0.0","0","0","95460","","null","","","null","74","","","","","","","","","","","","","","","",""
"","ITI","","html-keyboard-response","494","579457","0.0-1.0-675.0","0","0","95460","","null","","","null","74","","","","","","","","","","","","","","","NaN",""
"","S1","","html-keyboard-response","495","579611","0.0-1.0-677.0","0","0","95460","","null","","","null","75","","","","","","","","","","","","","","","",""
"","ISI","","html-keyboard-response","496","581614","0.0-1.0-678.0","0","0","95460","","null","","","null","75","NaN","","","","","","","","","","","","","","",""
"","S2","","html-keyboard-response","497","581768","0.0-1.0-679.0","0","0","95460","","null","","","null","75","","NaN","","","","","","","","","","","","","",""
"","response","","html-keyboard-response","498","582238","0.0-1.0-680.0-0.0","0","0","95460","","468","","","75","75","","","2","75","training","adjacent","BA","2","1","R.jpg","P.jpg","0","0","1","",""
"","feedback","","html-keyboard-response","499","583241","0.0-1.0-681.0-0.0","0","0","95460","","null","","","null","75","","","","","","","","","","","","","","","",""
"","ITI","","html-keyboard-response","500","584245","0.0-1.0-684.0","0","0","95460","","null","","","null","75","","","","","","","","","","","","","","","NaN",""
"","S1","","html-keyboard-response","501","584398","0.0-1.0-686.0","0","0","95460","","null","","","null","76","","","","","","","","","","","","","","","",""
"","ISI","","html-keyboard-response","502","586401","0.0-1.0-687.0","0","0","95460","","null","","","null","76","NaN","","","","","","","","","","","","","","",""
"","S2","","html-keyboard-response","503","586554","0.0-1.0-688.0","0","0","95460","","null","","","null","76","","NaN","","","","","","","","","","","","","",""
"","response","","html-keyboard-response","504","587094","0.0-1.0-689.0-0.0","0","0","95460","","537","","","75","76","","","2","76","training","adjacent","GF","7","6","M.jpg","Q.jpg","0","0","1","",""
"","feedback","","html-keyboard-response","505","588097","0.0-1.0-690.0-0.0","0","0","95460","","null","","","null","76","","","","","","","","","","","","","","","",""
"","ITI","","html-keyboard-response","506","589101","0.0-1.0-693.0","0","0","95460","","null","","","null","76","","","","","","","","","","","","","","","NaN",""
"","S1","","html-keyboard-response","507","589253","0.0-1.0-695.0","0","0","95460","","null","","","null","77","","","","","","","","","","","","","","","",""
"","ISI","","html-keyboard-response","508","591257","0.0-1.0-696.0","0","0","95460","","null","","","null","77","NaN","","","","","","","","","","","","","","",""
"","S2","","html-keyboard-response","509","591411","0.0-1.0-697.0","0","0","95460","","null","","","null","77","","NaN","","","","","","","","","","","","","",""
"","response","","html-keyboard-response","510","591934","0.0-1.0-698.0-0.0","0","0","95460","","520","","","75","77","","","2","77","training","adjacent","EF","5","6","O.jpg","Q.jpg","0","1","0","",""
"","feedback","","html-keyboard-response","511","592938","0.0-1.0-699.0-0.0","0","0","95460","","null","","","null","77","","","","","","","","","","","","","","","",""
"","time_out","","html-keyboard-response","512","594941","0.0-1.0-701.0-0.0","0","0","95460","","null","","","null","77","","","","","","","","","","","","","","","",""
"","ITI","","html-keyboard-response","513","595944","0.0-1.0-702.0","0","0","95460","","null","","","null","77","","","","","","","","","","","","","","","NaN",""
"","S1","","html-keyboard-response","514","596096","0.0-1.0-704.0","0","0","95460","","null","","","null","78","","","","","","","","","","","","","","","",""
"","ISI","","html-keyboard-response","515","598099","0.0-1.0-705.0","0","0","95460","","null","","","null","78","NaN","","","","","","","","","","","","","","",""
"","S2","","html-keyboard-response","516","598253","0.0-1.0-706.0","0","0","95460","","null","","","null","78","","NaN","","","","","","","","","","","","","",""
"","response","","html-keyboard-response","517","598638","0.0-1.0-707.0-0.0","0","0","95460","","383","","","68","78","","","2","78","training","adjacent","DC","4","3","L.jpg","N.jpg","1","0","0","",""
"","feedback","","html-keyboard-response","518","599643","0.0-1.0-708.0-0.0","0","0","95460","","null","","","null","78","","","","","","","","","","","","","","","",""
"","time_out","","html-keyboard-response","519","601648","0.0-1.0-710.0-0.0","0","0","95460","","null","","","null","78","","","","","","","","","","","","","","","",""
"","ITI","","html-keyboard-response","520","602651","0.0-1.0-711.0","0","0","95460","","null","","","null","78","","","","","","","","","","","","","","","NaN",""
"","S1","","html-keyboard-response","521","602805","0.0-1.0-713.0","0","0","95460","","null","","","null","79","","","","","","","","","","","","","","","",""
"","ISI","","html-keyboard-response","522","604808","0.0-1.0-714.0","0","0","95460","","null","","","null","79","NaN","","","","","","","","","","","","","","",""
"","S2","","html-keyboard-response","523","604963","0.0-1.0-715.0","0","0","95460","","null","","","null","79","","NaN","","","","","","","","","","","","","",""
"","response","","html-keyboard-response","524","605254","0.0-1.0-716.0-0.0","0","0","95460","","289","","","75","79","","","2","79","training","adjacent","GF","7","6","M.jpg","Q.jpg","0","0","1","",""
"","feedback","","html-keyboard-response","525","606259","0.0-1.0-717.0-0.0","0","0","95460","","null","","","null","79","","","","","","","","","","","","","","","",""
"","ITI","","html-keyboard-response","526","607263","0.0-1.0-720.0","0","0","95460","","null","","","null","79","","","","","","","","","","","","","","","NaN",""
"","S1","","html-keyboard-response","527","607417","0.0-1.0-722.0","0","0","95460","","null","","","null","80","","","","","","","","","","","","","","","",""
"","ISI","","html-keyboard-response","528","609419","0.0-1.0-723.0","0","0","95460","","null","","","null","80","NaN","","","","","","","","","","","","","","",""
"","S2","","html-keyboard-response","529","609572","0.0-1.0-724.0","0","0","95460","","null","","","null","80","","NaN","","","","","","","","","","","","","",""
"","response","","html-keyboard-response","530","609974","0.0-1.0-725.0-0.0","0","0","95460","","400","","","75","80","","","2","80","training","adjacent","FE","6","5","Q.jpg","O.jpg","0","0","1","",""
"","feedback","","html-keyboard-response","531","610979","0.0-1.0-726.0-0.0","0","0","95460","","null","","","null","80","","","","","","","","","","","","","","","",""
"","ITI","","html-keyboard-response","532","611983","0.0-1.0-729.0","0","0","95460","","null","","","null","80","","","","","","","","","","","","","","","NaN",""
"","S1","","html-keyboard-response","533","612136","0.0-1.0-731.0","0","0","95460","","null","","","null","81","","","","","","","","","","","","","","","",""
"","ISI","","html-keyboard-response","534","614138","0.0-1.0-732.0","0","0","95460","","null","","","null","81","NaN","","","","","","","","","","","","","","",""
"","S2","","html-keyboard-response","535","614292","0.0-1.0-733.0","0","0","95460","","null","","","null","81","","NaN","","","","","","","","","","","","","",""
"","response","","html-keyboard-response","536","614767","0.0-1.0-734.0-0.0","0","0","95460","","473","","","68","81","","","2","81","training","adjacent","DE","4","5","L.jpg","O.jpg","1","1","1","",""
"","feedback","","html-keyboard-response","537","615772","0.0-1.0-735.0-0.0","0","0","95460","","null","","","null","81","","","","","","","","","","","","","","","",""
"","ITI","","html-keyboard-response","538","616782","0.0-1.0-738.0","0","0","95460","","null","","","null","81","","","","","","","","","","","","","","","NaN",""
"","S1","","html-keyboard-response","539","616936","0.0-1.0-740.0","0","0","95460","","null","","","null","82","","","","","","","","","","","","","","","",""
"","ISI","","html-keyboard-response","540","618939","0.0-1.0-741.0","0","0","95460","","null","","","null","82","NaN","","","","","","","","","","","","","","",""
"","S2","","html-keyboard-response","541","619092","0.0-1.0-742.0","0","0","95460","","null","","","null","82","","NaN","","","","","","","","","","","","","",""
"","response","","html-keyboard-response","542","619543","0.0-1.0-743.0-0.0","0","0","95460","","448","","","75","82","","","2","82","training","adjacent","AB","1","2","P.jpg","R.jpg","0","1","0","",""
"","feedback","","html-keyboard-response","543","620547","0.0-1.0-744.0-0.0","0","0","95460","","null","","","null","82","","","","","","","","","","","","","","","",""
"","time_out","","html-keyboard-response","544","622551","0.0-1.0-746.0-0.0","0","0","95460","","null","","","null","82","","","","","","","","","","","","","","","",""
"","ITI","","html-keyboard-response","545","623556","0.0-1.0-747.0","0","0","95460","","null","","","null","82","","","","","","","","","","","","","","","NaN",""
"","S1","","html-keyboard-response","546","623716","0.0-1.0-749.0","0","0","95460","","null","","","null","83","","","","","","","","","","","","","","","",""
"","ISI","","html-keyboard-response","547","625720","0.0-1.0-750.0","0","0","95460","","null","","","null","83","NaN","","","","","","","","","","","","","","",""
"","S2","","html-keyboard-response","548","625873","0.0-1.0-751.0","0","0","95460","","null","","","null","83","","NaN","","","","","","","","","","","","","",""
"","response","","html-keyboard-response","549","626271","0.0-1.0-752.0-0.0","0","0","95460","","395","","","68","83","","","2","83","training","adjacent","EF","5","6","O.jpg","Q.jpg","1","1","1","",""
"","feedback","","html-keyboard-response","550","627275","0.0-1.0-753.0-0.0","0","0","95460","","null","","","null","83","","","","","","","","","","","","","","","",""
"","ITI","","html-keyboard-response","551","628278","0.0-1.0-756.0","0","0","95460","","null","","","null","83","","","","","","","","","","","","","","","NaN",""
"","S1","","html-keyboard-response","552","628432","0.0-1.0-758.0","0","0","95460","","null","","","null","84","","","","","","","","","","","","","","","",""
"","ISI","","html-keyboard-response","553","630435","0.0-1.0-759.0","0","0","95460","","null","","","null","84","NaN","","","","","","","","","","","","","","",""
"","S2","","html-keyboard-response","554","630588","0.0-1.0-760.0","0","0","95460","","null","","","null","84","","NaN","","","","","","","","","","","","","",""
"","response","","html-keyboard-response","555","630999","0.0-1.0-761.0-0.0","0","0","95460","","408","","","75","84","","","2","84","training","adjacent","CD","3","4","N.jpg","L.jpg","0","1","0","",""
"","feedback","","html-keyboard-response","556","632003","0.0-1.0-762.0-0.0","0","0","95460","","null","","","null","84","","","","","","","","","","","","","","","",""
"","time_out","","html-keyboard-response","557","634007","0.0-1.0-764.0-0.0","0","0","95460","","null","","","null","84","","","","","","","","","","","","","","","",""
"","ITI","","html-keyboard-response","558","635011","0.0-1.0-765.0","0","0","95460","","null","","","null","84","","","","","","","","","","","","","","","NaN",""
"","S1","","html-keyboard-response","559","635164","0.0-1.0-767.0","0","0","95460","","null","","","null","85","","","","","","","","","","","","","","","",""
"","ISI","","html-keyboard-response","560","637167","0.0-1.0-768.0","0","0","95460","","null","","","null","85","NaN","","","","","","","","","","","","","","",""
"","S2","","html-keyboard-response","561","637320","0.0-1.0-769.0","0","0","95460","","null","","","null","85","","NaN","","","","","","","","","","","","","",""
"","response","","html-keyboard-response","562","637727","0.0-1.0-770.0-0.0","0","0","95460","","405","","","68","85","","","2","85","training","adjacent","DE","4","5","L.jpg","O.jpg","1","1","1","",""
"","feedback","","html-keyboard-response","563","638731","0.0-1.0-771.0-0.0","0","0","95460","","null","","","null","85","","","","","","","","","","","","","","","",""
"","ITI","","html-keyboard-response","564","639734","0.0-1.0-774.0","0","0","95460","","null","","","null","85","","","","","","","","","","","","","","","NaN",""
"","S1","","html-keyboard-response","565","639888","0.0-1.0-776.0","0","0","95460","","null","","","null","86","","","","","","","","","","","","","","","",""
"","ISI","","html-keyboard-response","566","641891","0.0-1.0-777.0","0","0","95460","","null","","","null","86","NaN","","","","","","","","","","","","","","",""
"","S2","","html-keyboard-response","567","642044","0.0-1.0-778.0","0","0","95460","","null","","","null","86","","NaN","","","","","","","","","","","","","",""
"","response","","html-keyboard-response","568","642399","0.0-1.0-779.0-0.0","0","0","95460","","353","","","68","86","","","2","86","training","adjacent","DC","4","3","L.jpg","N.jpg","1","0","0","",""
"","feedback","","html-keyboard-response","569","643402","0.0-1.0-780.0-0.0","0","0","95460","","null","","","null","86","","","","","","","","","","","","","","","",""
"","time_out","","html-keyboard-response","570","645405","0.0-1.0-782.0-0.0","0","0","95460","","null","","","null","86","","","","","","","","","","","","","","","",""
"","ITI","","html-keyboard-response","571","646409","0.0-1.0-783.0","0","0","95460","","null","","","null","86","","","","","","","","","","","","","","","NaN",""
"","S1","","html-keyboard-response","572","646563","0.0-1.0-785.0","0","0","95460","","null","","","null","87","","","","","","","","","","","","","","","",""
"","ISI","","html-keyboard-response","573","648566","0.0-1.0-786.0","0","0","95460","","null","","","null","87","NaN","","","","","","","","","","","","","","",""
"","S2","","html-keyboard-response","574","648720","0.0-1.0-787.0","0","0","95460","","null","","","null","87","","NaN","","","","","","","","","","","","","",""
"","response","","html-keyboard-response","575","649047","0.0-1.0-788.0-0.0","0","0","95460","","325","","","75","87","","","2","87","training","adjacent","DC","4","3","L.jpg","N.jpg","0","0","1","",""
"","feedback","","html-keyboard-response","576","650053","0.0-1.0-789.0-0.0","0","0","95460","","null","","","null","87","","","","","","","","","","","","","","","",""
"","ITI","","html-keyboard-response","577","651058","0.0-1.0-792.0","0","0","95460","","null","","","null","87","","","","","","","","","","","","","","","NaN",""
"","S1","","html-keyboard-response","578","651210","0.0-1.0-794.0","0","0","95460","","null","","","null","88","","","","","","","","","","","","","","","",""
"","ISI","","html-keyboard-response","579","653213","0.0-1.0-795.0","0","0","95460","","null","","","null","88","NaN","","","","","","","","","","","","","","",""
