"success","ttype","start_time","trial_type","trial_index","time_elapsed","internal_node_id","warning","missed_checkup","PID","view_history","rt","responses","repeat_instructions","key_press","index","keypress_isi","keypress_S2","block","trial_num","phase","group_type","pair_type","S1_stim","S2_stim","S1_img","S2_img","S1_chosen","S1_higher","accuracy","keypress_iti","total_bonus_tally"
"true","full_screen","d04132023hr1352","fullscreen","0","13505","0.0-0.0","0","0","80472","","","","","","","","","","","","","","","","","","","","","",""
"","instructions","","instructions","1","77184","0.0-1.0-0.0-0.0","0","0","80472","[{""page_index"":0,""viewing_time"":30737},{""page_index"":1,""viewing_time"":16772},{""page_index"":2,""viewing_time"":12999},{""page_index"":3,""viewing_time"":3170}]","63679","","","","","","","","","","","","","","","","","","","",""
"","comprehension_check","","survey-multi-choice","2","112464","0.0-1.0-0.0-1.0","0","0","80472","","35276","{""Q0"":""True"",""Q1"":""D"",""Q2"":""Only when the screen 'MAKE A CHOICE' is shown"",""Q3"":""Green mark"",""Q4"":""either D or K""}","1","","","","","","","","","","","","","","","","","",""
"","missed_instruction_checkup","","html-keyboard-response","3","117823","0.0-1.0-0.0-2.0-0.0","0","1","80472","","5357","","","32","","","","","","","","","","","","","","","","",""
"","instructions","","instructions","4","152593","0.0-1.0-0.1-0.1","0","0","80472","[{""page_index"":0,""viewing_time"":2841},{""page_index"":1,""viewing_time"":21879},{""page_index"":2,""viewing_time"":6650},{""page_index"":3,""viewing_time"":3400}]","34770","","","","","","","","","","","","","","","","","","","",""
"","comprehension_check","","survey-multi-choice","5","181464","0.0-1.0-0.1-1.1","0","0","80472","","28867","{""Q0"":""True"",""Q1"":""D"",""Q2"":""Once the second image appears and while the screen 'MAKE A CHOICE' is shown"",""Q3"":""Green mark"",""Q4"":""either D or K""}","0","","","","","","","","","","","","","","","","","",""
"","start_exp","","html-keyboard-response","6","184964","0.0-1.0-1.0","0","0","80472","","3498","","","32","","","","","","","","","","","","","","","","",""
"","S1","","html-keyboard-response","7","185215","0.0-1.0-2.0","0","0","80472","","null","","","null","0","","","","","","","","","","","","","","","",""
"","ISI","","html-keyboard-response","8","186216","0.0-1.0-3.0","0","0","80472","","null","","","null","0","NaN","","","","","","","","","","","","","","",""
"","S2","","html-keyboard-response","9","186468","0.0-1.0-4.0","0","0","80472","","null","","","null","0","","NaN","","","","","","","","","","","","","",""
"","response","","html-keyboard-response","10","186734","0.0-1.0-5.0-0.0","0","0","80472","","264","","","68","0","","","1","0","training","adjacent","BA","2","1","M.jpg","Q.jpg","1","0","0","",""
"","feedback","","html-keyboard-response","11","187736","0.0-1.0-6.0-0.0","0","0","80472","","null","","","null","0","","","","","","","","","","","","","","","",""
"","time_out","","html-keyboard-response","12","189738","0.0-1.0-8.0-0.0","0","0","80472","","null","","","null","0","","","","","","","","","","","","","","","",""
"","ITI","","html-keyboard-response","13","190739","0.0-1.0-9.0","0","0","80472","","null","","","null","0","","","","","","","","","","","","","","","NaN",""
"","S1","","html-keyboard-response","14","190991","0.0-1.0-11.0","0","0","80472","","null","","","null","1","","","","","","","","","","","","","","","",""
"","ISI","","html-keyboard-response","15","191992","0.0-1.0-12.0","0","0","80472","","null","","","null","1","NaN","","","","","","","","","","","","","","",""
"","S2","","html-keyboard-response","16","192243","0.0-1.0-13.0","0","0","80472","","null","","","null","1","","NaN","","","","","","","","","","","","","",""
"","response","","html-keyboard-response","17","192284","0.0-1.0-14.0-0.0","0","0","80472","","39","","","68","1","","","1","1","training","adjacent","BC","2","3","M.jpg","R.jpg","1","1","1","",""
"","feedback","","html-keyboard-response","18","193285","0.0-1.0-15.0-0.0","0","0","80472","","null","","","null","1","","","","","","","","","","","","","","","",""
"","ITI","","html-keyboard-response","19","194287","0.0-1.0-18.0","0","0","80472","","null","","","null","1","","","","","","","","","","","","","","","NaN",""
"","S1","","html-keyboard-response","20","194538","0.0-1.0-20.0","0","0","80472","","null","","","null","2","","","","","","","","","","","","","","","",""
"","ISI","","html-keyboard-response","21","195540","0.0-1.0-21.0","0","0","80472","","null","","","null","2","NaN","","","","","","","","","","","","","","",""
"","S2","","html-keyboard-response","22","195792","0.0-1.0-22.0","0","0","80472","","null","","","null","2","","NaN","","","","","","","","","","","","","",""
"","response","","html-keyboard-response","23","197543","0.0-1.0-23.0-0.0","0","0","80472","","null","","","null","2","","","1","2","training","adjacent","CD","3","4","R.jpg","N.jpg","NaN","1","0","",""
"","too_slow_prompt","","html-keyboard-response","24","198544","0.0-1.0-25.0-0.0","1","0","80472","","null","","","null","","","","","","","","","","","","","","","","",""
"","time_out","","html-keyboard-response","25","200546","0.0-1.0-26.0-0.0","0","0","80472","","null","","","null","2","","","","","","","","","","","","","","","",""
"","ITI","","html-keyboard-response","26","201548","0.0-1.0-27.0","0","0","80472","","716","","","68","2","","","","","","","","","","","","","","","d",""
"","S1","","html-keyboard-response","27","201800","0.0-1.0-29.0","0","0","80472","","null","","","null","3","","","","","","","","","","","","","","","",""
"","ISI","","html-keyboard-response","28","202802","0.0-1.0-30.0","0","0","80472","","553","","","68","3","d","","","","","","","","","","","","","","",""
"","S2","","html-keyboard-response","29","203054","0.0-1.0-31.0","0","0","80472","","null","","","null","3","","NaN","","","","","","","","","","","","","",""
"","response","","html-keyboard-response","30","203893","0.0-1.0-32.0-0.0","0","0","80472","","838","","","68","3","","","1","3","training","adjacent","AB","1","2","Q.jpg","M.jpg","1","1","1","",""
"","feedback","","html-keyboard-response","31","204895","0.0-1.0-33.0-0.0","0","0","80472","","null","","","null","3","","","","","","","","","","","","","","","",""
"","ITI","","html-keyboard-response","32","205897","0.0-1.0-36.0","0","0","80472","","null","","","null","3","","","","","","","","","","","","","","","NaN",""
"","S1","","html-keyboard-response","33","206148","0.0-1.0-38.0","0","0","80472","","null","","","null","4","","","","","","","","","","","","","","","",""
"","ISI","","html-keyboard-response","34","207150","0.0-1.0-39.0","0","0","80472","","null","","","null","4","NaN","","","","","","","","","","","","","","",""
"","S2","","html-keyboard-response","35","207323","0.0-1.0-40.0","0","0","80472","","172","","","75","4","","k","1","4","training","adjacent","DE","4","5","N.jpg","L.jpg","0","1","0","",""
"","feedback","","html-keyboard-response","36","208325","0.0-1.0-42.0-0.0","0","0","80472","","null","","","null","4","","","","","","","","","","","","","","","",""
"","time_out","","html-keyboard-response","37","210326","0.0-1.0-44.0-0.0","0","0","80472","","null","","","null","4","","","","","","","","","","","","","","","",""
"","ITI","","html-keyboard-response","38","211328","0.0-1.0-45.0","0","0","80472","","null","","","null","4","","","","","","","","","","","","","","","NaN",""
"","S1","","html-keyboard-response","39","211579","0.0-1.0-47.0","0","0","80472","","null","","","null","5","","","","","","","","","","","","","","","",""
"","ISI","","html-keyboard-response","40","212581","0.0-1.0-48.0","0","0","80472","","22","","","68","5","d","","","","","","","","","","","","","","",""
"","S2","","html-keyboard-response","41","212833","0.0-1.0-49.0","0","0","80472","","null","","","null","5","","NaN","","","","","","","","","","","","","",""
"","response","","html-keyboard-response","42","213673","0.0-1.0-50.0-0.0","0","0","80472","","839","","","68","5","","","1","5","training","adjacent","CD","3","4","R.jpg","N.jpg","1","1","1","",""
"","feedback","","html-keyboard-response","43","214674","0.0-1.0-51.0-0.0","0","0","80472","","null","","","null","5","","","","","","","","","","","","","","","",""
"","ITI","","html-keyboard-response","44","215676","0.0-1.0-54.0","0","0","80472","","null","","","null","5","","","","","","","","","","","","","","","NaN",""
"","S1","","html-keyboard-response","45","215927","0.0-1.0-56.0","0","0","80472","","null","","","null","6","","","","","","","","","","","","","","","",""
"","ISI","","html-keyboard-response","46","216929","0.0-1.0-57.0","0","0","80472","","435","","","68","6","d","","","","","","","","","","","","","","",""
"","S2","","html-keyboard-response","47","217181","0.0-1.0-58.0","0","0","80472","","null","","","null","6","","NaN","","","","","","","","","","","","","",""
"","response","","html-keyboard-response","48","218203","0.0-1.0-59.0-0.0","0","0","80472","","1021","","","68","6","","","1","6","training","adjacent","CB","3","2","R.jpg","M.jpg","1","0","0","",""
"","feedback","","html-keyboard-response","49","219204","0.0-1.0-60.0-0.0","0","0","80472","","null","","","null","6","","","","","","","","","","","","","","","",""
"","time_out","","html-keyboard-response","50","221205","0.0-1.0-62.0-0.0","0","0","80472","","null","","","null","6","","","","","","","","","","","","","","","",""
"","ITI","","html-keyboard-response","51","222206","0.0-1.0-63.0","0","0","80472","","null","","","null","6","","","","","","","","","","","","","","","NaN",""
"","S1","","html-keyboard-response","52","222457","0.0-1.0-65.0","0","0","80472","","null","","","null","7","","","","","","","","","","","","","","","",""
"","ISI","","html-keyboard-response","53","223459","0.0-1.0-66.0","0","0","80472","","null","","","null","7","NaN","","","","","","","","","","","","","","",""
"","S2","","html-keyboard-response","54","223711","0.0-1.0-67.0","0","0","80472","","null","","","null","7","","NaN","","","","","","","","","","","","","",""
"","response","","html-keyboard-response","55","224053","0.0-1.0-68.0-0.0","0","0","80472","","341","","","68","7","","","1","7","training","adjacent","BC","2","3","M.jpg","R.jpg","1","1","1","",""
"","feedback","","html-keyboard-response","56","225054","0.0-1.0-69.0-0.0","0","0","80472","","null","","","null","7","","","","","","","","","","","","","","","",""
"","ITI","","html-keyboard-response","57","226056","0.0-1.0-72.0","0","0","80472","","null","","","null","7","","","","","","","","","","","","","","","NaN",""
"","S1","","html-keyboard-response","58","226307","0.0-1.0-74.0","0","0","80472","","null","","","null","8","","","","","","","","","","","","","","","",""
"","ISI","","html-keyboard-response","59","227309","0.0-1.0-75.0","0","0","80472","","null","","","null","8","NaN","","","","","","","","","","","","","","",""
"","S2","","html-keyboard-response","60","227561","0.0-1.0-76.0","0","0","80472","","null","","","null","8","","NaN","","","","","","","","","","","","","",""
"","response","","html-keyboard-response","61","227792","0.0-1.0-77.0-0.0","0","0","80472","","231","","","68","8","","","1","8","training","adjacent","FE","6","5","O.jpg","L.jpg","1","0","0","",""
"","feedback","","html-keyboard-response","62","228794","0.0-1.0-78.0-0.0","0","0","80472","","null","","","null","8","","","","","","","","","","","","","","","",""
"","time_out","","html-keyboard-response","63","230795","0.0-1.0-80.0-0.0","0","0","80472","","null","","","null","8","","","","","","","","","","","","","","","",""
"","ITI","","html-keyboard-response","64","231796","0.0-1.0-81.0","0","0","80472","","null","","","null","8","","","","","","","","","","","","","","","NaN",""
"","S1","","html-keyboard-response","65","232048","0.0-1.0-83.0","0","0","80472","","null","","","null","9","","","","","","","","","","","","","","","",""
"","ISI","","html-keyboard-response","66","233049","0.0-1.0-84.0","0","0","80472","","864","","","68","9","d","","","","","","","","","","","","","","",""
"","S2","","html-keyboard-response","67","233300","0.0-1.0-85.0","0","0","80472","","null","","","null","9","","NaN","","","","","","","","","","","","","",""
"","response","","html-keyboard-response","68","234342","0.0-1.0-86.0-0.0","0","0","80472","","1041","","","68","9","","","1","9","training","adjacent","FE","6","5","O.jpg","L.jpg","1","0","0","",""
"","feedback","","html-keyboard-response","69","235344","0.0-1.0-87.0-0.0","0","0","80472","","null","","","null","9","","","","","","","","","","","","","","","",""
"","time_out","","html-keyboard-response","70","237345","0.0-1.0-89.0-0.0","0","0","80472","","null","","","null","9","","","","","","","","","","","","","","","",""
"","ITI","","html-keyboard-response","71","238347","0.0-1.0-90.0","0","0","80472","","166","","","68","9","","","","","","","","","","","","","","","d",""
"","S1","","html-keyboard-response","72","238599","0.0-1.0-92.0","0","0","80472","","null","","","null","10","","","","","","","","","","","","","","","",""
"","ISI","","html-keyboard-response","73","239602","0.0-1.0-93.0","0","0","80472","","12","","","68","10","d","","","","","","","","","","","","","","",""
"","S2","","html-keyboard-response","74","239644","0.0-1.0-94.0","0","0","80472","","40","","","75","10","","k","1","10","training","adjacent","DC","4","3","N.jpg","R.jpg","0","0","1","",""
"","feedback","","html-keyboard-response","75","240646","0.0-1.0-96.0-0.0","0","0","80472","","null","","","null","10","","","","","","","","","","","","","","","",""
"","ITI","","html-keyboard-response","76","241647","0.0-1.0-99.0","0","0","80472","","17","","","75","10","","","","","","","","","","","","","","","k",""
"","S1","","html-keyboard-response","77","241898","0.0-1.0-101.0","0","0","80472","","null","","","null","11","","","","","","","","","","","","","","","",""
"","ISI","","html-keyboard-response","78","242900","0.0-1.0-102.0","0","0","80472","","null","","","null","11","NaN","","","","","","","","","","","","","","",""
"","S2","","html-keyboard-response","79","243151","0.0-1.0-103.0","0","0","80472","","null","","","null","11","","NaN","","","","","","","","","","","","","",""
"","response","","html-keyboard-response","80","243444","0.0-1.0-104.0-0.0","0","0","80472","","292","","","68","11","","","1","11","training","adjacent","DE","4","5","N.jpg","L.jpg","1","1","1","",""
"","feedback","","html-keyboard-response","81","244445","0.0-1.0-105.0-0.0","0","0","80472","","null","","","null","11","","","","","","","","","","","","","","","",""
"","ITI","","html-keyboard-response","82","245448","0.0-1.0-108.0","0","0","80472","","327","","","75","11","","","","","","","","","","","","","","","k",""
"","S1","","html-keyboard-response","83","245699","0.0-1.0-110.0","0","0","80472","","null","","","null","12","","","","","","","","","","","","","","","",""
"","ISI","","html-keyboard-response","84","246700","0.0-1.0-111.0","0","0","80472","","24","","","75","12","k","","","","","","","","","","","","","","",""
"","S2","","html-keyboard-response","85","246894","0.0-1.0-112.0","0","0","80472","","193","","","75","12","","k","1","12","training","adjacent","GF","7","6","P.jpg","O.jpg","0","0","1","",""
"","feedback","","html-keyboard-response","86","247897","0.0-1.0-114.0-0.0","0","0","80472","","null","","","null","12","","","","","","","","","","","","","","","",""
"","ITI","","html-keyboard-response","87","248898","0.0-1.0-117.0","0","0","80472","","106","","","68","12","","","","","","","","","","","","","","","d",""
"","S1","","html-keyboard-response","88","249149","0.0-1.0-119.0","0","0","80472","","null","","","null","13","","","","","","","","","","","","","","","",""
"","ISI","","html-keyboard-response","89","250151","0.0-1.0-120.0","0","0","80472","","null","","","null","13","NaN","","","","","","","","","","","","","","",""
"","S2","","html-keyboard-response","90","250402","0.0-1.0-121.0","0","0","80472","","null","","","null","13","","NaN","","","","","","","","","","","","","",""
"","response","","html-keyboard-response","91","252154","0.0-1.0-122.0-0.0","0","0","80472","","null","","","null","13","","","1","13","training","adjacent","EF","5","6","L.jpg","O.jpg","NaN","1","0","",""
"","too_slow_prompt","","html-keyboard-response","92","253155","0.0-1.0-124.0-0.0","1","0","80472","","null","","","null","","","","","","","","","","","","","","","","",""
"","time_out","","html-keyboard-response","93","255156","0.0-1.0-125.0-0.0","0","0","80472","","null","","","null","13","","","","","","","","","","","","","","","",""
"","ITI","","html-keyboard-response","94","256158","0.0-1.0-126.0","0","0","80472","","null","","","null","13","","","","","","","","","","","","","","","NaN",""
"","S1","","html-keyboard-response","95","256409","0.0-1.0-128.0","0","0","80472","","null","","","null","14","","","","","","","","","","","","","","","",""
"","ISI","","html-keyboard-response","96","257410","0.0-1.0-129.0","0","0","80472","","null","","","null","14","NaN","","","","","","","","","","","","","","",""
"","S2","","html-keyboard-response","97","257662","0.0-1.0-130.0","0","0","80472","","null","","","null","14","","NaN","","","","","","","","","","","","","",""
"","response","","html-keyboard-response","98","259413","0.0-1.0-131.0-0.0","0","0","80472","","null","","","null","14","","","1","14","training","adjacent","CB","3","2","R.jpg","M.jpg","NaN","0","0","",""
"","too_slow_prompt","","html-keyboard-response","99","260415","0.0-1.0-133.0-0.0","1","0","80472","","null","","","null","","","","","","","","","","","","","","","","",""
"","time_out","","html-keyboard-response","100","262943","0.0-1.0-134.0-0.0","0","0","80472","","null","","","null","14","","","","","","","","","","","","","","","",""
"","ITI","","html-keyboard-response","101","263944","0.0-1.0-135.0","0","0","80472","","null","","","null","14","","","","","","","","","","","","","","","NaN",""
"","S1","","html-keyboard-response","102","264942","0.0-1.0-137.0","0","0","80472","","null","","","null","15","","","","","","","","","","","","","","","",""
"","ISI","","html-keyboard-response","103","265944","0.0-1.0-138.0","0","0","80472","","null","","","null","15","NaN","","","","","","","","","","","","","","",""
"","S2","","html-keyboard-response","104","266943","0.0-1.0-139.0","0","0","80472","","null","","","null","15","","NaN","","","","","","","","","","","","","",""
"","response","","html-keyboard-response","105","268944","0.0-1.0-140.0-0.0","0","0","80472","","null","","","null","15","","","1","15","training","adjacent","FG","6","7","O.jpg","P.jpg","NaN","1","0","",""
"","too_slow_prompt","","html-keyboard-response","106","270943","0.0-1.0-142.0-0.0","1","0","80472","","null","","","null","","","","","","","","","","","","","","","","",""
"","time_out","","html-keyboard-response","107","273943","0.0-1.0-143.0-0.0","0","0","80472","","null","","","null","15","","","","","","","","","","","","","","","",""
"","ITI","","html-keyboard-response","108","275943","0.0-1.0-144.0","0","0","80472","","null","","","null","15","","","","","","","","","","","","","","","NaN",""
"","S1","","html-keyboard-response","109","276943","0.0-1.0-146.0","0","0","80472","","null","","","null","16","","","","","","","","","","","","","","","",""
"","ISI","","html-keyboard-response","110","277945","0.0-1.0-147.0","0","0","80472","","null","","","null","16","NaN","","","","","","","","","","","","","","",""
"","S2","","html-keyboard-response","111","278943","0.0-1.0-148.0","0","0","80472","","null","","","null","16","","NaN","","","","","","","","","","","","","",""
"","response","","html-keyboard-response","112","280942","0.0-1.0-149.0-0.0","0","0","80472","","null","","","null","16","","","1","16","training","adjacent","BC","2","3","M.jpg","R.jpg","NaN","1","0","",""
"","too_slow_prompt","","html-keyboard-response","113","281944","0.0-1.0-151.0-0.0","1","0","80472","","null","","","null","","","","","","","","","","","","","","","","",""
"","time_out","","html-keyboard-response","114","284943","0.0-1.0-152.0-0.0","0","0","80472","","null","","","null","16","","","","","","","","","","","","","","","",""
"","ITI","","html-keyboard-response","115","286943","0.0-1.0-153.0","0","0","80472","","null","","","null","16","","","","","","","","","","","","","","","NaN",""
"","S1","","html-keyboard-response","116","287943","0.0-1.0-155.0","0","0","80472","","null","","","null","17","","","","","","","","","","","","","","","",""
"","ISI","","html-keyboard-response","117","289943","0.0-1.0-156.0","0","0","80472","","null","","","null","17","NaN","","","","","","","","","","","","","","",""
"","S2","","html-keyboard-response","118","290943","0.0-1.0-157.0","0","0","80472","","null","","","null","17","","NaN","","","","","","","","","","","","","",""
"","response","","html-keyboard-response","119","292944","0.0-1.0-158.0-0.0","0","0","80472","","null","","","null","17","","","1","17","training","adjacent","CD","3","4","R.jpg","N.jpg","NaN","1","0","",""
"","too_slow_prompt","","html-keyboard-response","120","293945","0.0-1.0-160.0-0.0","1","0","80472","","null","","","null","","","","","","","","","","","","","","","","",""
"","time_out","","html-keyboard-response","121","296942","0.0-1.0-161.0-0.0","0","0","80472","","null","","","null","17","","","","","","","","","","","","","","","",""
"","ITI","","html-keyboard-response","122","297944","0.0-1.0-162.0","0","0","80472","","null","","","null","17","","","","","","","","","","","","","","","NaN",""
"","S1","","html-keyboard-response","123","298943","0.0-1.0-164.0","0","0","80472","","null","","","null","18","","","","","","","","","","","","","","","",""
"","ISI","","html-keyboard-response","124","299946","0.0-1.0-165.0","0","0","80472","","null","","","null","18","NaN","","","","","","","","","","","","","","",""
"","S2","","html-keyboard-response","125","300945","0.0-1.0-166.0","0","0","80472","","null","","","null","18","","NaN","","","","","","","","","","","","","",""
"","response","","html-keyboard-response","126","302945","0.0-1.0-167.0-0.0","0","0","80472","","null","","","null","18","","","1","18","training","adjacent","EF","5","6","L.jpg","O.jpg","NaN","1","0","",""
"","too_slow_prompt","","html-keyboard-response","127","303946","0.0-1.0-169.0-0.0","1","0","80472","","null","","","null","","","","","","","","","","","","","","","","",""
"","time_out","","html-keyboard-response","128","306945","0.0-1.0-170.0-0.0","0","0","80472","","null","","","null","18","","","","","","","","","","","","","","","",""
"","ITI","","html-keyboard-response","129","307947","0.0-1.0-171.0","0","0","80472","","null","","","null","18","","","","","","","","","","","","","","","NaN",""
"","S1","","html-keyboard-response","130","308945","0.0-1.0-173.0","0","0","80472","","null","","","null","19","","","","","","","","","","","","","","","",""
"","ISI","","html-keyboard-response","131","309946","0.0-1.0-174.0","0","0","80472","","null","","","null","19","NaN","","","","","","","","","","","","","","",""
"","S2","","html-keyboard-response","132","310945","0.0-1.0-175.0","0","0","80472","","null","","","null","19","","NaN","","","","","","","","","","","","","",""
"","response","","html-keyboard-response","133","312945","0.0-1.0-176.0-0.0","0","0","80472","","null","","","null","19","","","1","19","training","adjacent","AB","1","2","Q.jpg","M.jpg","NaN","1","0","",""
"","too_slow_prompt","","html-keyboard-response","134","313946","0.0-1.0-178.0-0.0","1","0","80472","","null","","","null","","","","","","","","","","","","","","","","",""
"","time_out","","html-keyboard-response","135","316945","0.0-1.0-179.0-0.0","0","0","80472","","null","","","null","19","","","","","","","","","","","","","","","",""
"","ITI","","html-keyboard-response","136","318945","0.0-1.0-180.0","0","0","80472","","null","","","null","19","","","","","","","","","","","","","","","NaN",""
"","S1","","html-keyboard-response","137","319945","0.0-1.0-182.0","0","0","80472","","null","","","null","20","","","","","","","","","","","","","","","",""
"","ISI","","html-keyboard-response","138","321945","0.0-1.0-183.0","0","0","80472","","null","","","null","20","NaN","","","","","","","","","","","","","","",""
"","S2","","html-keyboard-response","139","322945","0.0-1.0-184.0","0","0","80472","","null","","","null","20","","NaN","","","","","","","","","","","","","",""
"","response","","html-keyboard-response","140","324944","0.0-1.0-185.0-0.0","0","0","80472","","null","","","null","20","","","1","20","training","adjacent","BA","2","1","M.jpg","Q.jpg","NaN","0","0","",""
"","too_slow_prompt","","html-keyboard-response","141","325946","0.0-1.0-187.0-0.0","1","0","80472","","null","","","null","","","","","","","","","","","","","","","","",""
"","time_out","","html-keyboard-response","142","328945","0.0-1.0-188.0-0.0","0","0","80472","","null","","","null","20","","","","","","","","","","","","","","","",""
"","ITI","","html-keyboard-response","143","329947","0.0-1.0-189.0","0","0","80472","","null","","","null","20","","","","","","","","","","","","","","","NaN",""
"","S1","","html-keyboard-response","144","330944","0.0-1.0-191.0","0","0","80472","","null","","","null","21","","","","","","","","","","","","","","","",""
"","ISI","","html-keyboard-response","145","331945","0.0-1.0-192.0","0","0","80472","","null","","","null","21","NaN","","","","","","","","","","","","","","",""
"","S2","","html-keyboard-response","146","332944","0.0-1.0-193.0","0","0","80472","","null","","","null","21","","NaN","","","","","","","","","","","","","",""
"","response","","html-keyboard-response","147","334945","0.0-1.0-194.0-0.0","0","0","80472","","null","","","null","21","","","1","21","training","adjacent","EF","5","6","L.jpg","O.jpg","NaN","1","0","",""
"","too_slow_prompt","","html-keyboard-response","148","335946","0.0-1.0-196.0-0.0","1","0","80472","","null","","","null","","","","","","","","","","","","","","","","",""
"","time_out","","html-keyboard-response","149","338946","0.0-1.0-197.0-0.0","0","0","80472","","null","","","null","21","","","","","","","","","","","","","","","",""
"","ITI","","html-keyboard-response","150","339947","0.0-1.0-198.0","0","0","80472","","null","","","null","21","","","","","","","","","","","","","","","NaN",""
"","S1","","html-keyboard-response","151","340945","0.0-1.0-200.0","0","0","80472","","null","","","null","22","","","","","","","","","","","","","","","",""
"","ISI","","html-keyboard-response","152","341946","0.0-1.0-201.0","0","0","80472","","null","","","null","22","NaN","","","","","","","","","","","","","","",""
"","S2","","html-keyboard-response","153","342944","0.0-1.0-202.0","0","0","80472","","null","","","null","22","","NaN","","","","","","","","","","","","","",""
"","response","","html-keyboard-response","154","344945","0.0-1.0-203.0-0.0","0","0","80472","","null","","","null","22","","","1","22","training","adjacent","DC","4","3","N.jpg","R.jpg","NaN","0","0","",""
"","too_slow_prompt","","html-keyboard-response","155","345948","0.0-1.0-205.0-0.0","1","0","80472","","null","","","null","","","","","","","","","","","","","","","","",""
"","time_out","","html-keyboard-response","156","348944","0.0-1.0-206.0-0.0","0","0","80472","","null","","","null","22","","","","","","","","","","","","","","","",""
"","ITI","","html-keyboard-response","157","349947","0.0-1.0-207.0","0","0","80472","","null","","","null","22","","","","","","","","","","","","","","","NaN",""
"","S1","","html-keyboard-response","158","350945","0.0-1.0-209.0","0","0","80472","","null","","","null","23","","","","","","","","","","","","","","","",""
"","ISI","","html-keyboard-response","159","351946","0.0-1.0-210.0","0","0","80472","","null","","","null","23","NaN","","","","","","","","","","","","","","",""
"","S2","","html-keyboard-response","160","352197","0.0-1.0-211.0","0","0","80472","","null","","","null","23","","NaN","","","","","","","","","","","","","",""
"","response","","html-keyboard-response","161","353949","0.0-1.0-212.0-0.0","0","0","80472","","null","","","null","23","","","1","23","training","adjacent","DE","4","5","N.jpg","L.jpg","NaN","1","0","",""
"","too_slow_prompt","","html-keyboard-response","162","355944","0.0-1.0-214.0-0.0","1","0","80472","","null","","","null","","","","","","","","","","","","","","","","",""
"","time_out","","html-keyboard-response","163","358945","0.0-1.0-215.0-0.0","0","0","80472","","null","","","null","23","","","","","","","","","","","","","","","",""
"","ITI","","html-keyboard-response","164","359948","0.0-1.0-216.0","0","0","80472","","null","","","null","23","","","","","","","","","","","","","","","NaN",""
"","S1","","html-keyboard-response","165","360947","0.0-1.0-218.0","0","0","80472","","null","","","null","24","","","","","","","","","","","","","","","",""
"","ISI","","html-keyboard-response","166","361948","0.0-1.0-219.0","0","0","80472","","null","","","null","24","NaN","","","","","","","","","","","","","","",""
"","S2","","html-keyboard-response","167","362946","0.0-1.0-220.0","0","0","80472","","null","","","null","24","","NaN","","","","","","","","","","","","","",""
"","response","","html-keyboard-response","168","364697","0.0-1.0-221.0-0.0","0","0","80472","","null","","","null","24","","","1","24","training","adjacent","BC","2","3","M.jpg","R.jpg","NaN","1","0","",""
"","too_slow_prompt","","html-keyboard-response","169","365698","0.0-1.0-223.0-0.0","1","0","80472","","null","","","null","","","","","","","","","","","","","","","","",""
"","time_out","","html-keyboard-response","170","367701","0.0-1.0-224.0-0.0","0","0","80472","","null","","","null","24","","","","","","","","","","","","","","","",""
"","ITI","","html-keyboard-response","171","368702","0.0-1.0-225.0","0","0","80472","","22","","","68","24","","","","","","","","","","","","","","","d",""
"","S1","","html-keyboard-response","172","368954","0.0-1.0-227.0","0","0","80472","","null","","","null","25","","","","","","","","","","","","","","","",""
"","ISI","","html-keyboard-response","173","369955","0.0-1.0-228.0","0","0","80472","","209","","","68","25","d","","","","","","","","","","","","","","",""
"","S2","","html-keyboard-response","174","370103","0.0-1.0-229.0","0","0","80472","","148","","","68","25","","d","1","25","training","adjacent","BA","2","1","M.jpg","Q.jpg","1","0","0","",""
"","feedback","","html-keyboard-response","175","371105","0.0-1.0-231.0-0.0","0","0","80472","","null","","","null","25","","","","","","","","","","","","","","","",""
"","time_out","","html-keyboard-response","176","373107","0.0-1.0-233.0-0.0","0","0","80472","","null","","","null","25","","","","","","","","","","","","","","","",""
"","ITI","","html-keyboard-response","177","374108","0.0-1.0-234.0","0","0","80472","","76","","","75","25","","","","","","","","","","","","","","","k",""
"","S1","","html-keyboard-response","178","374359","0.0-1.0-236.0","0","0","80472","","null","","","null","26","","","","","","","","","","","","","","","",""
"","ISI","","html-keyboard-response","179","375360","0.0-1.0-237.0","0","0","80472","","24","","","68","26","d","","","","","","","","","","","","","","",""
"","S2","","html-keyboard-response","180","375373","0.0-1.0-238.0","0","0","80472","","12","","","68","26","","d","1","26","training","adjacent","GF","7","6","P.jpg","O.jpg","1","0","0","",""
"","feedback","","html-keyboard-response","181","376374","0.0-1.0-240.0-0.0","0","0","80472","","null","","","null","26","","","","","","","","","","","","","","","",""
"","time_out","","html-keyboard-response","182","378376","0.0-1.0-242.0-0.0","0","0","80472","","null","","","null","26","","","","","","","","","","","","","","","",""
"","ITI","","html-keyboard-response","183","379377","0.0-1.0-243.0","0","0","80472","","467","","","122","26","","","","","","","","","","","","","","","f11",""
"","S1","","html-keyboard-response","184","379629","0.0-1.0-245.0","0","0","80472","","null","","","null","27","","","","","","","","","","","","","","","",""
"","ISI","","html-keyboard-response","185","380631","0.0-1.0-246.0","0","0","80472","","null","","","null","27","NaN","","","","","","","","","","","","","","",""
"","S2","","html-keyboard-response","186","380882","0.0-1.0-247.0","0","0","80472","","null","","","null","27","","NaN","","","","","","","","","","","","","",""
"","response","","html-keyboard-response","187","382633","0.0-1.0-248.0-0.0","0","0","80472","","null","","","null","27","","","1","27","training","adjacent","ED","5","4","L.jpg","N.jpg","NaN","0","0","",""
"","too_slow_prompt","","html-keyboard-response","188","383634","0.0-1.0-250.0-0.0","1","0","80472","","null","","","null","","","","","","","","","","","","","","","","",""
"","time_out","","html-keyboard-response","189","385636","0.0-1.0-251.0-0.0","0","0","80472","","null","","","null","27","","","","","","","","","","","","","","","",""
"","ITI","","html-keyboard-response","190","386637","0.0-1.0-252.0","0","0","80472","","196","","","68","27","","","","","","","","","","","","","","","d",""
"","S1","","html-keyboard-response","191","386889","0.0-1.0-254.0","0","0","80472","","null","","","null","28","","","","","","","","","","","","","","","",""
"","ISI","","html-keyboard-response","192","387891","0.0-1.0-255.0","0","0","80472","","null","","","null","28","NaN","","","","","","","","","","","","","","",""
"","S2","","html-keyboard-response","193","388142","0.0-1.0-256.0","0","0","80472","","null","","","null","28","","NaN","","","","","","","","","","","","","",""
"","response","","html-keyboard-response","194","388263","0.0-1.0-257.0-0.0","0","0","80472","","120","","","68","28","","","1","28","training","adjacent","GF","7","6","P.jpg","O.jpg","1","0","0","",""
"","feedback","","html-keyboard-response","195","389265","0.0-1.0-258.0-0.0","0","0","80472","","null","","","null","28","","","","","","","","","","","","","","","",""
"","time_out","","html-keyboard-response","196","391267","0.0-1.0-260.0-0.0","0","0","80472","","null","","","null","28","","","","","","","","","","","","","","","",""
"","ITI","","html-keyboard-response","197","392268","0.0-1.0-261.0","0","0","80472","","null","","","null","28","","","","","","","","","","","","","","","NaN",""
"","S1","","html-keyboard-response","198","392519","0.0-1.0-263.0","0","0","80472","","null","","","null","29","","","","","","","","","","","","","","","",""
"","ISI","","html-keyboard-response","199","393520","0.0-1.0-264.0","0","0","80472","","563","","","68","29","d","","","","","","","","","","","","","","",""
"","S2","","html-keyboard-response","200","393772","0.0-1.0-265.0","0","0","80472","","null","","","null","29","","NaN","","","","","","","","","","","","","",""
"","response","","html-keyboard-response","201","395524","0.0-1.0-266.0-0.0","0","0","80472","","null","","","null","29","","","1","29","training","adjacent","FE","6","5","O.jpg","L.jpg","NaN","0","0","",""
"","too_slow_prompt","","html-keyboard-response","202","396526","0.0-1.0-268.0-0.0","1","0","80472","","null","","","null","","","","","","","","","","","","","","","","",""
"","time_out","","html-keyboard-response","203","398528","0.0-1.0-269.0-0.0","0","0","80472","","null","","","null","29","","","","","","","","","","","","","","","",""
"","ITI","","html-keyboard-response","204","399529","0.0-1.0-270.0","0","0","80472","","null","","","null","29","","","","","","","","","","","","","","","NaN",""
"","S1","","html-keyboard-response","205","399780","0.0-1.0-272.0","0","0","80472","","null","","","null","30","","","","","","","","","","","","","","","",""
"","ISI","","html-keyboard-response","206","400782","0.0-1.0-273.0","0","0","80472","","null","","","null","30","NaN","","","","","","","","","","","","","","",""
"","S2","","html-keyboard-response","207","401034","0.0-1.0-274.0","0","0","80472","","null","","","null","30","","NaN","","","","","","","","","","","","","",""
"","response","","html-keyboard-response","208","402543","0.0-1.0-275.0-0.0","0","0","80472","","1508","","","68","30","","","1","30","training","adjacent","CB","3","2","R.jpg","M.jpg","1","0","0","",""
"","feedback","","html-keyboard-response","209","403545","0.0-1.0-276.0-0.0","0","0","80472","","null","","","null","30","","","","","","","","","","","","","","","",""
"","time_out","","html-keyboard-response","210","405547","0.0-1.0-278.0-0.0","0","0","80472","","null","","","null","30","","","","","","","","","","","","","","","",""
"","ITI","","html-keyboard-response","211","406549","0.0-1.0-279.0","0","0","80472","","null","","","null","30","","","","","","","","","","","","","","","NaN",""
"","S1","","html-keyboard-response","212","406800","0.0-1.0-281.0","0","0","80472","","null","","","null","31","","","","","","","","","","","","","","","",""
"","ISI","","html-keyboard-response","213","407801","0.0-1.0-282.0","0","0","80472","","302","","","68","31","d","","","","","","","","","","","","","","",""
"","S2","","html-keyboard-response","214","407902","0.0-1.0-283.0","0","0","80472","","100","","","75","31","","k","1","31","training","adjacent","EF","5","6","L.jpg","O.jpg","0","1","0","",""
"","feedback","","html-keyboard-response","215","408904","0.0-1.0-285.0-0.0","0","0","80472","","null","","","null","31","","","","","","","","","","","","","","","",""
"","time_out","","html-keyboard-response","216","410905","0.0-1.0-287.0-0.0","0","0","80472","","null","","","null","31","","","","","","","","","","","","","","","",""
"","ITI","","html-keyboard-response","217","411907","0.0-1.0-288.0","0","0","80472","","26","","","68","31","","","","","","","","","","","","","","","d",""
"","S1","","html-keyboard-response","218","412158","0.0-1.0-290.0","0","0","80472","","null","","","null","32","","","","","","","","","","","","","","","",""
"","ISI","","html-keyboard-response","219","413159","0.0-1.0-291.0","0","0","80472","","134","","","68","32","d","","","","","","","","","","","","","","",""
"","S2","","html-keyboard-response","220","413202","0.0-1.0-292.0","0","0","80472","","42","","","68","32","","d","1","32","training","adjacent","DC","4","3","N.jpg","R.jpg","1","0","0","",""
"","feedback","","html-keyboard-response","221","414204","0.0-1.0-294.0-0.0","0","0","80472","","null","","","null","32","","","","","","","","","","","","","","","",""
"","time_out","","html-keyboard-response","222","416205","0.0-1.0-296.0-0.0","0","0","80472","","null","","","null","32","","","","","","","","","","","","","","","",""
"","ITI","","html-keyboard-response","223","417207","0.0-1.0-297.0","0","0","80472","","137","","","68","32","","","","","","","","","","","","","","","d",""
"","S1","","html-keyboard-response","224","417458","0.0-1.0-299.0","0","0","80472","","null","","","null","33","","","","","","","","","","","","","","","",""
"","ISI","","html-keyboard-response","225","418459","0.0-1.0-300.0","0","0","80472","","43","","","75","33","k","","","","","","","","","","","","","","",""
"","S2","","html-keyboard-response","226","418532","0.0-1.0-301.0","0","0","80472","","71","","","68","33","","d","1","33","training","adjacent","AB","1","2","Q.jpg","M.jpg","1","1","1","",""
"","feedback","","html-keyboard-response","227","419535","0.0-1.0-303.0-0.0","0","0","80472","","null","","","null","33","","","","","","","","","","","","","","","",""
"","ITI","","html-keyboard-response","228","420537","0.0-1.0-306.0","0","0","80472","","16","","","68","33","","","","","","","","","","","","","","","d",""
"","S1","","html-keyboard-response","229","420789","0.0-1.0-308.0","0","0","80472","","null","","","null","34","","","","","","","","","","","","","","","",""
"","ISI","","html-keyboard-response","230","421790","0.0-1.0-309.0","0","0","80472","","34","","","75","34","k","","","","","","","","","","","","","","",""
"","S2","","html-keyboard-response","231","421914","0.0-1.0-310.0","0","0","80472","","122","","","75","34","","k","1","34","training","adjacent","FG","6","7","O.jpg","P.jpg","0","1","0","",""
"","feedback","","html-keyboard-response","232","422915","0.0-1.0-312.0-0.0","0","0","80472","","null","","","null","34","","","","","","","","","","","","","","","",""
"","time_out","","html-keyboard-response","233","424917","0.0-1.0-314.0-0.0","0","0","80472","","null","","","null","34","","","","","","","","","","","","","","","",""
"","ITI","","html-keyboard-response","234","425919","0.0-1.0-315.0","0","0","80472","","96","","","68","34","","","","","","","","","","","","","","","d",""
"","S1","","html-keyboard-response","235","426170","0.0-1.0-317.0","0","0","80472","","null","","","null","35","","","","","","","","","","","","","","","",""
"","ISI","","html-keyboard-response","236","427172","0.0-1.0-318.0","0","0","80472","","193","","","68","35","d","","","","","","","","","","","","","","",""
"","S2","","html-keyboard-response","237","427193","0.0-1.0-319.0","0","0","80472","","21","","","68","35","","d","1","35","training","adjacent","GF","7","6","P.jpg","O.jpg","1","0","0","",""
"","feedback","","html-keyboard-response","238","428195","0.0-1.0-321.0-0.0","0","0","80472","","null","","","null","35","","","","","","","","","","","","","","","",""
"","time_out","","html-keyboard-response","239","430196","0.0-1.0-323.0-0.0","0","0","80472","","null","","","null","35","","","","","","","","","","","","","","","",""
"","ITI","","html-keyboard-response","240","431197","0.0-1.0-324.0","0","0","80472","","106","","","68","35","","","","","","","","","","","","","","","d",""
"","S1","","html-keyboard-response","241","431449","0.0-1.0-326.0","0","0","80472","","null","","","null","36","","","","","","","","","","","","","","","",""
"","ISI","","html-keyboard-response","242","432451","0.0-1.0-327.0","0","0","80472","","864","","","68","36","d","","","","","","","","","","","","","","",""
"","S2","","html-keyboard-response","243","432703","0.0-1.0-328.0","0","0","80472","","null","","","null","36","","NaN","","","","","","","","","","","","","",""
"","response","","html-keyboard-response","244","433193","0.0-1.0-329.0-0.0","0","0","80472","","490","","","68","36","","","1","36","training","adjacent","FE","6","5","O.jpg","L.jpg","1","0","0","",""
"","feedback","","html-keyboard-response","245","434195","0.0-1.0-330.0-0.0","0","0","80472","","null","","","null","36","","","","","","","","","","","","","","","",""
"","time_out","","html-keyboard-response","246","436196","0.0-1.0-332.0-0.0","0","0","80472","","null","","","null","36","","","","","","","","","","","","","","","",""
"","ITI","","html-keyboard-response","247","437197","0.0-1.0-333.0","0","0","80472","","177","","","68","36","","","","","","","","","","","","","","","d",""
"","S1","","html-keyboard-response","248","437448","0.0-1.0-335.0","0","0","80472","","null","","","null","37","","","","","","","","","","","","","","","",""
"","ISI","","html-keyboard-response","249","438449","0.0-1.0-336.0","0","0","80472","","375","","","68","37","d","","","","","","","","","","","","","","",""
"","S2","","html-keyboard-response","250","438701","0.0-1.0-337.0","0","0","80472","","null","","","null","37","","NaN","","","","","","","","","","","","","",""
"","response","","html-keyboard-response","251","438703","0.0-1.0-338.0-0.0","0","0","80472","","1","","","75","37","","","1","37","training","adjacent","ED","5","4","L.jpg","N.jpg","0","0","1","",""
"","feedback","","html-keyboard-response","252","439704","0.0-1.0-339.0-0.0","0","0","80472","","null","","","null","37","","","","","","","","","","","","","","","",""
"","ITI","","html-keyboard-response","253","440705","0.0-1.0-342.0","0","0","80472","","119","","","75","37","","","","","","","","","","","","","","","k",""
"","S1","","html-keyboard-response","254","440956","0.0-1.0-344.0","0","0","80472","","null","","","null","38","","","","","","","","","","","","","","","",""
"","ISI","","html-keyboard-response","255","441958","0.0-1.0-345.0","0","0","80472","","76","","","75","38","k","","","","","","","","","","","","","","",""
"","S2","","html-keyboard-response","256","442210","0.0-1.0-346.0","0","0","80472","","null","","","null","38","","NaN","","","","","","","","","","","","","",""
"","response","","html-keyboard-response","257","442223","0.0-1.0-347.0-0.0","0","0","80472","","12","","","68","38","","","1","38","training","adjacent","BA","2","1","M.jpg","Q.jpg","1","0","0","",""
"","feedback","","html-keyboard-response","258","443224","0.0-1.0-348.0-0.0","0","0","80472","","null","","","null","38","","","","","","","","","","","","","","","",""
"","time_out","","html-keyboard-response","259","445227","0.0-1.0-350.0-0.0","0","0","80472","","null","","","null","38","","","","","","","","","","","","","","","",""
"","ITI","","html-keyboard-response","260","446228","0.0-1.0-351.0","0","0","80472","","436","","","68","38","","","","","","","","","","","","","","","d",""
"","S1","","html-keyboard-response","261","446480","0.0-1.0-353.0","0","0","80472","","null","","","null","39","","","","","","","","","","","","","","","",""
"","ISI","","html-keyboard-response","262","447481","0.0-1.0-354.0","0","0","80472","","12","","","68","39","d","","","","","","","","","","","","","","",""
"","S2","","html-keyboard-response","263","447583","0.0-1.0-355.0","0","0","80472","","101","","","68","39","","d","1","39","training","adjacent","CB","3","2","R.jpg","M.jpg","1","0","0","",""
"","feedback","","html-keyboard-response","264","448585","0.0-1.0-357.0-0.0","0","0","80472","","null","","","null","39","","","","","","","","","","","","","","","",""
"","time_out","","html-keyboard-response","265","450587","0.0-1.0-359.0-0.0","0","0","80472","","null","","","null","39","","","","","","","","","","","","","","","",""
"","ITI","","html-keyboard-response","266","451588","0.0-1.0-360.0","0","0","80472","","75","","","68","39","","","","","","","","","","","","","","","d",""
"","S1","","html-keyboard-response","267","451840","0.0-1.0-362.0","0","0","80472","","null","","","null","40","","","","","","","","","","","","","","","",""
"","ISI","","html-keyboard-response","268","452841","0.0-1.0-363.0","0","0","80472","","102","","","68","40","d","","","","","","","","","","","","","","",""
"","S2","","html-keyboard-response","269","453093","0.0-1.0-364.0","0","0","80472","","null","","","null","40","","NaN","","","","","","","","","","","","","",""
"","response","","html-keyboard-response","270","453103","0.0-1.0-365.0-0.0","0","0","80472","","9","","","68","40","","","1","40","training","adjacent","FG","6","7","O.jpg","P.jpg","1","1","1","",""
"","feedback","","html-keyboard-response","271","454105","0.0-1.0-366.0-0.0","0","0","80472","","null","","","null","40","","","","","","","","","","","","","","","",""
"","ITI","","html-keyboard-response","272","455106","0.0-1.0-369.0","0","0","80472","","457","","","68","40","","","","","","","","","","","","","","","d",""
"","S1","","html-keyboard-response","273","455357","0.0-1.0-371.0","0","0","80472","","null","","","null","41","","","","","","","","","","","","","","","",""
"","ISI","","html-keyboard-response","274","456358","0.0-1.0-372.0","0","0","80472","","866","","","68","41","d","","","","","","","","","","","","","","",""
"","S2","","html-keyboard-response","275","456609","0.0-1.0-373.0","0","0","80472","","null","","","null","41","","NaN","","","","","","","","","","","","","",""
"","response","","html-keyboard-response","276","457483","0.0-1.0-374.0-0.0","0","0","80472","","872","","","68","41","","","1","41","training","adjacent","ED","5","4","L.jpg","N.jpg","1","0","0","",""
"","feedback","","html-keyboard-response","277","458485","0.0-1.0-375.0-0.0","0","0","80472","","null","","","null","41","","","","","","","","","","","","","","","",""
"","time_out","","html-keyboard-response","278","460487","0.0-1.0-377.0-0.0","0","0","80472","","null","","","null","41","","","","","","","","","","","","","","","",""
"","ITI","","html-keyboard-response","279","461489","0.0-1.0-378.0","0","0","80472","","null","","","null","41","","","","","","","","","","","","","","","NaN",""
"","S1","","html-keyboard-response","280","461740","0.0-1.0-380.0","0","0","80472","","null","","","null","42","","","","","","","","","","","","","","","",""
"","ISI","","html-keyboard-response","281","462741","0.0-1.0-381.0","0","0","80472","","682","","","68","42","d","","","","","","","","","","","","","","",""
"","S2","","html-keyboard-response","282","462992","0.0-1.0-382.0","0","0","80472","","null","","","null","42","","NaN","","","","","","","","","","","","","",""
"","response","","html-keyboard-response","283","464343","0.0-1.0-383.0-0.0","0","0","80472","","1350","","","75","42","","","1","42","training","adjacent","AB","1","2","Q.jpg","M.jpg","0","1","0","",""
"","feedback","","html-keyboard-response","284","465345","0.0-1.0-384.0-0.0","0","0","80472","","null","","","null","42","","","","","","","","","","","","","","","",""
"","time_out","","html-keyboard-response","285","467348","0.0-1.0-386.0-0.0","0","0","80472","","null","","","null","42","","","","","","","","","","","","","","","",""
"","ITI","","html-keyboard-response","286","468349","0.0-1.0-387.0","0","0","80472","","434","","","68","42","","","","","","","","","","","","","","","d",""
"","S1","","html-keyboard-response","287","468601","0.0-1.0-389.0","0","0","80472","","null","","","null","43","","","","","","","","","","","","","","","",""
"","ISI","","html-keyboard-response","288","469602","0.0-1.0-390.0","0","0","80472","","null","","","null","43","NaN","","","","","","","","","","","","","","",""
"","S2","","html-keyboard-response","289","469672","0.0-1.0-391.0","0","0","80472","","70","","","68","43","","d","1","43","training","adjacent","FG","6","7","O.jpg","P.jpg","1","1","1","",""
"","feedback","","html-keyboard-response","290","470674","0.0-1.0-393.0-0.0","0","0","80472","","null","","","null","43","","","","","","","","","","","","","","","",""
"","ITI","","html-keyboard-response","291","471676","0.0-1.0-396.0","0","0","80472","","null","","","null","43","","","","","","","","","","","","","","","NaN",""
"","S1","","html-keyboard-response","292","471928","0.0-1.0-398.0","0","0","80472","","null","","","null","44","","","","","","","","","","","","","","","",""
"","ISI","","html-keyboard-response","293","472930","0.0-1.0-399.0","0","0","80472","","null","","","null","44","NaN","","","","","","","","","","","","","","",""
"","S2","","html-keyboard-response","294","473181","0.0-1.0-400.0","0","0","80472","","null","","","null","44","","NaN","","","","","","","","","","","","","",""
"","response","","html-keyboard-response","295","473892","0.0-1.0-401.0-0.0","0","0","80472","","710","","","68","44","","","1","44","training","adjacent","CD","3","4","R.jpg","N.jpg","1","1","1","",""
"","feedback","","html-keyboard-response","296","474894","0.0-1.0-402.0-0.0","0","0","80472","","null","","","null","44","","","","","","","","","","","","","","","",""
"","ITI","","html-keyboard-response","297","475895","0.0-1.0-405.0","0","0","80472","","null","","","null","44","","","","","","","","","","","","","","","NaN",""
"","S1","","html-keyboard-response","298","476146","0.0-1.0-407.0","0","0","80472","","null","","","null","45","","","","","","","","","","","","","","","",""
"","ISI","","html-keyboard-response","299","477148","0.0-1.0-408.0","0","0","80472","","725","","","75","45","k","","","","","","","","","","","","","","",""
"","S2","","html-keyboard-response","300","477400","0.0-1.0-409.0","0","0","80472","","null","","","null","45","","NaN","","","","","","","","","","","","","",""
"","response","","html-keyboard-response","301","478472","0.0-1.0-410.0-0.0","0","0","80472","","1071","","","68","45","","","1","45","training","adjacent","DE","4","5","N.jpg","L.jpg","1","1","1","",""
"","feedback","","html-keyboard-response","302","479475","0.0-1.0-411.0-0.0","0","0","80472","","null","","","null","45","","","","","","","","","","","","","","","",""
"","ITI","","html-keyboard-response","303","480477","0.0-1.0-414.0","0","0","80472","","null","","","null","45","","","","","","","","","","","","","","","NaN",""
"","S1","","html-keyboard-response","304","480731","0.0-1.0-416.0","0","0","80472","","null","","","null","46","","","","","","","","","","","","","","","",""
"","ISI","","html-keyboard-response","305","481733","0.0-1.0-417.0","0","0","80472","","null","","","null","46","NaN","","","","","","","","","","","","","","",""
"","S2","","html-keyboard-response","306","481985","0.0-1.0-418.0","0","0","80472","","null","","","null","46","","NaN","","","","","","","","","","","","","",""
"","response","","html-keyboard-response","307","482984","0.0-1.0-419.0-0.0","0","0","80472","","998","","","75","46","","","1","46","training","adjacent","DC","4","3","N.jpg","R.jpg","0","0","1","",""
"","feedback","","html-keyboard-response","308","483986","0.0-1.0-420.0-0.0","0","0","80472","","null","","","null","46","","","","","","","","","","","","","","","",""
"","ITI","","html-keyboard-response","309","484988","0.0-1.0-423.0","0","0","80472","","null","","","null","46","","","","","","","","","","","","","","","NaN",""
"","S1","","html-keyboard-response","310","485239","0.0-1.0-425.0","0","0","80472","","null","","","null","47","","","","","","","","","","","","","","","",""
"","ISI","","html-keyboard-response","311","486241","0.0-1.0-426.0","0","0","80472","","743","","","68","47","d","","","","","","","","","","","","","","",""
"","S2","","html-keyboard-response","312","486492","0.0-1.0-427.0","0","0","80472","","null","","","null","47","","NaN","","","","","","","","","","","","","",""
"","response","","html-keyboard-response","313","487264","0.0-1.0-428.0-0.0","0","0","80472","","771","","","68","47","","","1","47","training","adjacent","ED","5","4","L.jpg","N.jpg","1","0","0","",""
"","feedback","","html-keyboard-response","314","488266","0.0-1.0-429.0-0.0","0","0","80472","","null","","","null","47","","","","","","","","","","","","","","","",""
"","time_out","","html-keyboard-response","315","490268","0.0-1.0-431.0-0.0","0","0","80472","","null","","","null","47","","","","","","","","","","","","","","","",""
"","ITI","","html-keyboard-response","316","491269","0.0-1.0-432.0","0","0","80472","","null","","","null","47","","","","","","","","","","","","","","","NaN",""
"","block_over","","html-keyboard-response","317","503434","0.0-1.0-433.0-0.0","0","0","80472","","12163","","","32","47","","","","","","","","","","","","","","","",""
"","S1","","html-keyboard-response","318","503685","0.0-1.0-434.0","0","0","80472","","null","","","null","48","","","","","","","","","","","","","","","",""
"","ISI","","html-keyboard-response","319","504687","0.0-1.0-435.0","0","0","80472","","null","","","null","48","NaN","","","","","","","","","","","","","","",""
"","S2","","html-keyboard-response","320","504939","0.0-1.0-436.0","0","0","80472","","null","","","null","48","","NaN","","","","","","","","","","","","","",""
"","response","","html-keyboard-response","321","506691","0.0-1.0-437.0-0.0","0","0","80472","","null","","","null","48","","","2","48","training","adjacent","CD","3","4","R.jpg","N.jpg","NaN","1","0","",""
"","too_slow_prompt","","html-keyboard-response","322","507692","0.0-1.0-439.0-0.0","1","0","80472","","null","","","null","","","","","","","","","","","","","","","","",""
"","time_out","","html-keyboard-response","323","509694","0.0-1.0-440.0-0.0","0","0","80472","","null","","","null","48","","","","","","","","","","","","","","","",""
"","ITI","","html-keyboard-response","324","510695","0.0-1.0-441.0","0","0","80472","","null","","","null","48","","","","","","","","","","","","","","","NaN",""
"","S1","","html-keyboard-response","325","510947","0.0-1.0-443.0","0","0","80472","","null","","","null","49","","","","","","","","","","","","","","","",""
"","ISI","","html-keyboard-response","326","511949","0.0-1.0-444.0","0","0","80472","","564","","","68","49","d","","","","","","","","","","","","","","",""
"","S2","","html-keyboard-response","327","512201","0.0-1.0-445.0","0","0","80472","","null","","","null","49","","NaN","","","","","","","","","","","","","",""
"","response","","html-keyboard-response","328","512773","0.0-1.0-446.0-0.0","0","0","80472","","570","","","68","49","","","2","49","training","adjacent","DE","4","5","N.jpg","L.jpg","1","1","1","",""
"","feedback","","html-keyboard-response","329","513775","0.0-1.0-447.0-0.0","0","0","80472","","null","","","null","49","","","","","","","","","","","","","","","",""
"","ITI","","html-keyboard-response","330","514777","0.0-1.0-450.0","0","0","80472","","null","","","null","49","","","","","","","","","","","","","","","NaN",""
"","S1","","html-keyboard-response","331","515029","0.0-1.0-452.0","0","0","80472","","null","","","null","50","","","","","","","","","","","","","","","",""
"","ISI","","html-keyboard-response","332","516030","0.0-1.0-453.0","0","0","80472","","null","","","null","50","NaN","","","","","","","","","","","","","","",""
"","S2","","html-keyboard-response","333","516123","0.0-1.0-454.0","0","0","80472","","92","","","68","50","","d","2","50","training","adjacent","BA","2","1","M.jpg","Q.jpg","1","0","0","",""
"","feedback","","html-keyboard-response","334","517125","0.0-1.0-456.0-0.0","0","0","80472","","null","","","null","50","","","","","","","","","","","","","","","",""
"","time_out","","html-keyboard-response","335","519127","0.0-1.0-458.0-0.0","0","0","80472","","null","","","null","50","","","","","","","","","","","","","","","",""
"","ITI","","html-keyboard-response","336","520129","0.0-1.0-459.0","0","0","80472","","null","","","null","50","","","","","","","","","","","","","","","NaN",""
"","S1","","html-keyboard-response","337","520380","0.0-1.0-461.0","0","0","80472","","null","","","null","51","","","","","","","","","","","","","","","",""
"","ISI","","html-keyboard-response","338","521382","0.0-1.0-462.0","0","0","80472","","981","","","68","51","d","","","","","","","","","","","","","","",""
"","S2","","html-keyboard-response","339","521634","0.0-1.0-463.0","0","0","80472","","null","","","null","51","","NaN","","","","","","","","","","","","","",""
"","response","","html-keyboard-response","340","522113","0.0-1.0-464.0-0.0","0","0","80472","","478","","","68","51","","","2","51","training","adjacent","BC","2","3","M.jpg","R.jpg","1","1","1","",""
"","feedback","","html-keyboard-response","341","523114","0.0-1.0-465.0-0.0","0","0","80472","","null","","","null","51","","","","","","","","","","","","","","","",""
"","ITI","","html-keyboard-response","342","524116","0.0-1.0-468.0","0","0","80472","","null","","","null","51","","","","","","","","","","","","","","","NaN",""
"","S1","","html-keyboard-response","343","524368","0.0-1.0-470.0","0","0","80472","","null","","","null","52","","","","","","","","","","","","","","","",""
"","ISI","","html-keyboard-response","344","525369","0.0-1.0-471.0","0","0","80472","","604","","","68","52","d","","","","","","","","","","","","","","",""
"","S2","","html-keyboard-response","345","525621","0.0-1.0-472.0","0","0","80472","","null","","","null","52","","NaN","","","","","","","","","","","","","",""
"","response","","html-keyboard-response","346","526193","0.0-1.0-473.0-0.0","0","0","80472","","570","","","68","52","","","2","52","training","adjacent","GF","7","6","P.jpg","O.jpg","1","0","0","",""
"","feedback","","html-keyboard-response","347","527195","0.0-1.0-474.0-0.0","0","0","80472","","null","","","null","52","","","","","","","","","","","","","","","",""
"","time_out","","html-keyboard-response","348","529197","0.0-1.0-476.0-0.0","0","0","80472","","null","","","null","52","","","","","","","","","","","","","","","",""
"","ITI","","html-keyboard-response","349","530198","0.0-1.0-477.0","0","0","80472","","null","","","null","52","","","","","","","","","","","","","","","NaN",""
"","S1","","html-keyboard-response","350","530450","0.0-1.0-479.0","0","0","80472","","null","","","null","53","","","","","","","","","","","","","","","",""
"","ISI","","html-keyboard-response","351","531452","0.0-1.0-480.0","0","0","80472","","762","","","68","53","d","","","","","","","","","","","","","","",""
"","S2","","html-keyboard-response","352","531703","0.0-1.0-481.0","0","0","80472","","null","","","null","53","","NaN","","","","","","","","","","","","","",""
"","response","","html-keyboard-response","353","532533","0.0-1.0-482.0-0.0","0","0","80472","","829","","","68","53","","","2","53","training","adjacent","DC","4","3","N.jpg","R.jpg","1","0","0","",""
"","feedback","","html-keyboard-response","354","533534","0.0-1.0-483.0-0.0","0","0","80472","","null","","","null","53","","","","","","","","","","","","","","","",""
"","time_out","","html-keyboard-response","355","535536","0.0-1.0-485.0-0.0","0","0","80472","","null","","","null","53","","","","","","","","","","","","","","","",""
"","ITI","","html-keyboard-response","356","536538","0.0-1.0-486.0","0","0","80472","","675","","","75","53","","","","","","","","","","","","","","","k",""
"","S1","","html-keyboard-response","357","536790","0.0-1.0-488.0","0","0","80472","","null","","","null","54","","","","","","","","","","","","","","","",""
"","ISI","","html-keyboard-response","358","537791","0.0-1.0-489.0","0","0","80472","","272","","","75","54","k","","","","","","","","","","","","","","",""
"","S2","","html-keyboard-response","359","538043","0.0-1.0-490.0","0","0","80472","","null","","","null","54","","NaN","","","","","","","","","","","","","",""
"","response","","html-keyboard-response","360","538172","0.0-1.0-491.0-0.0","0","0","80472","","127","","","75","54","","","2","54","training","adjacent","ED","5","4","L.jpg","N.jpg","0","0","1","",""
"","feedback","","html-keyboard-response","361","539174","0.0-1.0-492.0-0.0","0","0","80472","","null","","","null","54","","","","","","","","","","","","","","","",""
"","ITI","","html-keyboard-response","362","540175","0.0-1.0-495.0","0","0","80472","","null","","","null","54","","","","","","","","","","","","","","","NaN",""
"","S1","","html-keyboard-response","363","540426","0.0-1.0-497.0","0","0","80472","","null","","","null","55","","","","","","","","","","","","","","","",""
"","ISI","","html-keyboard-response","364","541430","0.0-1.0-498.0","0","0","80472","","516","","","68","55","d","","","","","","","","","","","","","","",""
"","S2","","html-keyboard-response","365","541682","0.0-1.0-499.0","0","0","80472","","null","","","null","55","","NaN","","","","","","","","","","","","","",""
"","response","","html-keyboard-response","366","542144","0.0-1.0-500.0-0.0","0","0","80472","","462","","","68","55","","","2","55","training","adjacent","ED","5","4","L.jpg","N.jpg","1","0","0","",""
"","feedback","","html-keyboard-response","367","543147","0.0-1.0-501.0-0.0","0","0","80472","","null","","","null","55","","","","","","","","","","","","","","","",""
"","time_out","","html-keyboard-response","368","545149","0.0-1.0-503.0-0.0","0","0","80472","","null","","","null","55","","","","","","","","","","","","","","","",""
"","ITI","","html-keyboard-response","369","546151","0.0-1.0-504.0","0","0","80472","","null","","","null","55","","","","","","","","","","","","","","","NaN",""
"","S1","","html-keyboard-response","370","546403","0.0-1.0-506.0","0","0","80472","","null","","","null","56","","","","","","","","","","","","","","","",""
"","ISI","","html-keyboard-response","371","547404","0.0-1.0-507.0","0","0","80472","","null","","","null","56","NaN","","","","","","","","","","","","","","",""
"","S2","","html-keyboard-response","372","547524","0.0-1.0-508.0","0","0","80472","","118","","","75","56","","k","2","56","training","adjacent","GF","7","6","P.jpg","O.jpg","0","0","1","",""
"","feedback","","html-keyboard-response","373","548526","0.0-1.0-510.0-0.0","0","0","80472","","null","","","null","56","","","","","","","","","","","","","","","",""
"","ITI","","html-keyboard-response","374","549528","0.0-1.0-513.0","0","0","80472","","null","","","null","56","","","","","","","","","","","","","","","NaN",""
"","S1","","html-keyboard-response","375","549780","0.0-1.0-515.0","0","0","80472","","null","","","null","57","","","","","","","","","","","","","","","",""
"","ISI","","html-keyboard-response","376","550781","0.0-1.0-516.0","0","0","80472","","983","","","75","57","k","","","","","","","","","","","","","","",""
"","S2","","html-keyboard-response","377","551032","0.0-1.0-517.0","0","0","80472","","null","","","null","57","","NaN","","","","","","","","","","","","","",""
"","response","","html-keyboard-response","378","551594","0.0-1.0-518.0-0.0","0","0","80472","","561","","","75","57","","","2","57","training","adjacent","DE","4","5","N.jpg","L.jpg","0","1","0","",""
"","feedback","","html-keyboard-response","379","552597","0.0-1.0-519.0-0.0","0","0","80472","","null","","","null","57","","","","","","","","","","","","","","","",""
"","time_out","","html-keyboard-response","380","554599","0.0-1.0-521.0-0.0","0","0","80472","","null","","","null","57","","","","","","","","","","","","","","","",""
"","ITI","","html-keyboard-response","381","555601","0.0-1.0-522.0","0","0","80472","","244","","","68","57","","","","","","","","","","","","","","","d",""
"","S1","","html-keyboard-response","382","555853","0.0-1.0-524.0","0","0","80472","","null","","","null","58","","","","","","","","","","","","","","","",""
"","ISI","","html-keyboard-response","383","556854","0.0-1.0-525.0","0","0","80472","","80","","","68","58","d","","","","","","","","","","","","","","",""
"","S2","","html-keyboard-response","384","557106","0.0-1.0-526.0","0","0","80472","","null","","","null","58","","NaN","","","","","","","","","","","","","",""
"","response","","html-keyboard-response","385","558858","0.0-1.0-527.0-0.0","0","0","80472","","null","","","null","58","","","2","58","training","adjacent","BA","2","1","M.jpg","Q.jpg","NaN","0","0","",""
"","too_slow_prompt","","html-keyboard-response","386","559859","0.0-1.0-529.0-0.0","1","0","80472","","null","","","null","","","","","","","","","","","","","","","","",""
"","time_out","","html-keyboard-response","387","561861","0.0-1.0-530.0-0.0","0","0","80472","","null","","","null","58","","","","","","","","","","","","","","","",""
"","ITI","","html-keyboard-response","388","562863","0.0-1.0-531.0","0","0","80472","","null","","","null","58","","","","","","","","","","","","","","","NaN",""
"","S1","","html-keyboard-response","389","563114","0.0-1.0-533.0","0","0","80472","","null","","","null","59","","","","","","","","","","","","","","","",""
"","ISI","","html-keyboard-response","390","564116","0.0-1.0-534.0","0","0","80472","","null","","","null","59","NaN","","","","","","","","","","","","","","",""
"","S2","","html-keyboard-response","391","564368","0.0-1.0-535.0","0","0","80472","","null","","","null","59","","NaN","","","","","","","","","","","","","",""
"","response","","html-keyboard-response","392","565114","0.0-1.0-536.0-0.0","0","0","80472","","745","","","68","59","","","2","59","training","adjacent","DE","4","5","N.jpg","L.jpg","1","1","1","",""
"","feedback","","html-keyboard-response","393","566115","0.0-1.0-537.0-0.0","0","0","80472","","null","","","null","59","","","","","","","","","","","","","","","",""
"","ITI","","html-keyboard-response","394","567117","0.0-1.0-540.0","0","0","80472","","null","","","null","59","","","","","","","","","","","","","","","NaN",""
"","S1","","html-keyboard-response","395","567368","0.0-1.0-542.0","0","0","80472","","null","","","null","60","","","","","","","","","","","","","","","",""
"","ISI","","html-keyboard-response","396","568370","0.0-1.0-543.0","0","0","80472","","null","","","null","60","NaN","","","","","","","","","","","","","","",""
"","S2","","html-keyboard-response","397","568622","0.0-1.0-544.0","0","0","80472","","null","","","null","60","","NaN","","","","","","","","","","","","","",""
"","response","","html-keyboard-response","398","569273","0.0-1.0-545.0-0.0","0","0","80472","","650","","","75","60","","","2","60","training","adjacent","CD","3","4","R.jpg","N.jpg","0","1","0","",""
"","feedback","","html-keyboard-response","399","570275","0.0-1.0-546.0-0.0","0","0","80472","","null","","","null","60","","","","","","","","","","","","","","","",""
"","time_out","","html-keyboard-response","400","572277","0.0-1.0-548.0-0.0","0","0","80472","","null","","","null","60","","","","","","","","","","","","","","","",""
"","ITI","","html-keyboard-response","401","573280","0.0-1.0-549.0","0","0","80472","","null","","","null","60","","","","","","","","","","","","","","","NaN",""
"","S1","","html-keyboard-response","402","573531","0.0-1.0-551.0","0","0","80472","","null","","","null","61","","","","","","","","","","","","","","","",""
"","ISI","","html-keyboard-response","403","574533","0.0-1.0-552.0","0","0","80472","","null","","","null","61","NaN","","","","","","","","","","","","","","",""
"","S2","","html-keyboard-response","404","574785","0.0-1.0-553.0","0","0","80472","","null","","","null","61","","NaN","","","","","","","","","","","","","",""
"","response","","html-keyboard-response","405","575463","0.0-1.0-554.0-0.0","0","0","80472","","678","","","68","61","","","2","61","training","adjacent","EF","5","6","L.jpg","O.jpg","1","1","1","",""
"","feedback","","html-keyboard-response","406","576465","0.0-1.0-555.0-0.0","0","0","80472","","null","","","null","61","","","","","","","","","","","","","","","",""
"","ITI","","html-keyboard-response","407","577467","0.0-1.0-558.0","0","0","80472","","null","","","null","61","","","","","","","","","","","","","","","NaN",""
"","S1","","html-keyboard-response","408","577719","0.0-1.0-560.0","0","0","80472","","null","","","null","62","","","","","","","","","","","","","","","",""
"","ISI","","html-keyboard-response","409","578721","0.0-1.0-561.0","0","0","80472","","null","","","null","62","NaN","","","","","","","","","","","","","","",""
"","S2","","html-keyboard-response","410","578972","0.0-1.0-562.0","0","0","80472","","null","","","null","62","","NaN","","","","","","","","","","","","","",""
"","response","","html-keyboard-response","411","579673","0.0-1.0-563.0-0.0","0","0","80472","","700","","","68","62","","","2","62","training","adjacent","BA","2","1","M.jpg","Q.jpg","1","0","0","",""
"","feedback","","html-keyboard-response","412","580675","0.0-1.0-564.0-0.0","0","0","80472","","null","","","null","62","","","","","","","","","","","","","","","",""
"","time_out","","html-keyboard-response","413","582677","0.0-1.0-566.0-0.0","0","0","80472","","null","","","null","62","","","","","","","","","","","","","","","",""
"","ITI","","html-keyboard-response","414","583678","0.0-1.0-567.0","0","0","80472","","null","","","null","62","","","","","","","","","","","","","","","NaN",""
"","S1","","html-keyboard-response","415","583931","0.0-1.0-569.0","0","0","80472","","null","","","null","63","","","","","","","","","","","","","","","",""
"","ISI","","html-keyboard-response","416","584932","0.0-1.0-570.0","0","0","80472","","null","","","null","63","NaN","","","","","","","","","","","","","","",""
"","S2","","html-keyboard-response","417","585184","0.0-1.0-571.0","0","0","80472","","null","","","null","63","","NaN","","","","","","","","","","","","","",""
"","response","","html-keyboard-response","418","585853","0.0-1.0-572.0-0.0","0","0","80472","","667","","","68","63","","","2","63","training","adjacent","DC","4","3","N.jpg","R.jpg","1","0","0","",""
"","feedback","","html-keyboard-response","419","586855","0.0-1.0-573.0-0.0","0","0","80472","","null","","","null","63","","","","","","","","","","","","","","","",""
"","time_out","","html-keyboard-response","420","588856","0.0-1.0-575.0-0.0","0","0","80472","","null","","","null","63","","","","","","","","","","","","","","","",""
"","ITI","","html-keyboard-response","421","589858","0.0-1.0-576.0","0","0","80472","","375","","","68","63","","","","","","","","","","","","","","","d",""
"","S1","","html-keyboard-response","422","590110","0.0-1.0-578.0","0","0","80472","","null","","","null","64","","","","","","","","","","","","","","","",""
"","ISI","","html-keyboard-response","423","591111","0.0-1.0-579.0","0","0","80472","","72","","","75","64","k","","","","","","","","","","","","","","",""
"","S2","","html-keyboard-response","424","591202","0.0-1.0-580.0","0","0","80472","","90","","","75","64","","k","2","64","training","adjacent","CB","3","2","R.jpg","M.jpg","0","0","1","",""
"","feedback","","html-keyboard-response","425","592204","0.0-1.0-582.0-0.0","0","0","80472","","null","","","null","64","","","","","","","","","","","","","","","",""
"","ITI","","html-keyboard-response","426","593206","0.0-1.0-585.0","0","0","80472","","117","","","75","64","","","","","","","","","","","","","","","k",""
"","S1","","html-keyboard-response","427","593458","0.0-1.0-587.0","0","0","80472","","null","","","null","65","","","","","","","","","","","","","","","",""
"","ISI","","html-keyboard-response","428","594459","0.0-1.0-588.0","0","0","80472","","134","","","75","65","k","","","","","","","","","","","","","","",""
"","S2","","html-keyboard-response","429","594572","0.0-1.0-589.0","0","0","80472","","112","","","75","65","","k","2","65","training","adjacent","BC","2","3","M.jpg","R.jpg","0","1","0","",""
"","feedback","","html-keyboard-response","430","595574","0.0-1.0-591.0-0.0","0","0","80472","","null","","","null","65","","","","","","","","","","","","","","","",""
"","time_out","","html-keyboard-response","431","597575","0.0-1.0-593.0-0.0","0","0","80472","","null","","","null","65","","","","","","","","","","","","","","","",""
"","ITI","","html-keyboard-response","432","598576","0.0-1.0-594.0","0","0","80472","","147","","","68","65","","","","","","","","","","","","","","","d",""
"","S1","","html-keyboard-response","433","598828","0.0-1.0-596.0","0","0","80472","","null","","","null","66","","","","","","","","","","","","","","","",""
"","ISI","","html-keyboard-response","434","599829","0.0-1.0-597.0","0","0","80472","","113","","","68","66","d","","","","","","","","","","","","","","",""
"","S2","","html-keyboard-response","435","600081","0.0-1.0-598.0","0","0","80472","","null","","","null","66","","NaN","","","","","","","","","","","","","",""
"","response","","html-keyboard-response","436","600352","0.0-1.0-599.0-0.0","0","0","80472","","270","","","68","66","","","2","66","training","adjacent","ED","5","4","L.jpg","N.jpg","1","0","0","",""
"","feedback","","html-keyboard-response","437","601357","0.0-1.0-600.0-0.0","0","0","80472","","null","","","null","66","","","","","","","","","","","","","","","",""
"","time_out","","html-keyboard-response","438","603358","0.0-1.0-602.0-0.0","0","0","80472","","null","","","null","66","","","","","","","","","","","","","","","",""
"","ITI","","html-keyboard-response","439","604359","0.0-1.0-603.0","0","0","80472","","75","","","75","66","","","","","","","","","","","","","","","k",""
"","S1","","html-keyboard-response","440","604611","0.0-1.0-605.0","0","0","80472","","null","","","null","67","","","","","","","","","","","","","","","",""
"","ISI","","html-keyboard-response","441","605613","0.0-1.0-606.0","0","0","80472","","932","","","68","67","d","","","","","","","","","","","","","","",""
"","S2","","html-keyboard-response","442","605864","0.0-1.0-607.0","0","0","80472","","null","","","null","67","","NaN","","","","","","","","","","","","","",""
"","response","","html-keyboard-response","443","606744","0.0-1.0-608.0-0.0","0","0","80472","","878","","","68","67","","","2","67","training","adjacent","CB","3","2","R.jpg","M.jpg","1","0","0","",""
"","feedback","","html-keyboard-response","444","607745","0.0-1.0-609.0-0.0","0","0","80472","","null","","","null","67","","","","","","","","","","","","","","","",""
"","time_out","","html-keyboard-response","445","609747","0.0-1.0-611.0-0.0","0","0","80472","","null","","","null","67","","","","","","","","","","","","","","","",""
"","ITI","","html-keyboard-response","446","610749","0.0-1.0-612.0","0","0","80472","","146","","","68","67","","","","","","","","","","","","","","","d",""
"","S1","","html-keyboard-response","447","611000","0.0-1.0-614.0","0","0","80472","","null","","","null","68","","","","","","","","","","","","","","","",""
"","ISI","","html-keyboard-response","448","612001","0.0-1.0-615.0","0","0","80472","","23","","","75","68","k","","","","","","","","","","","","","","",""
"","S2","","html-keyboard-response","449","612194","0.0-1.0-616.0","0","0","80472","","192","","","68","68","","d","2","68","training","adjacent","EF","5","6","L.jpg","O.jpg","1","1","1","",""
"","feedback","","html-keyboard-response","450","613196","0.0-1.0-618.0-0.0","0","0","80472","","null","","","null","68","","","","","","","","","","","","","","","",""
"","ITI","","html-keyboard-response","451","614198","0.0-1.0-621.0","0","0","80472","","77","","","75","68","","","","","","","","","","","","","","","k",""
"","S1","","html-keyboard-response","452","614449","0.0-1.0-623.0","0","0","80472","","null","","","null","69","","","","","","","","","","","","","","","",""
"","ISI","","html-keyboard-response","453","615450","0.0-1.0-624.0","0","0","80472","","64","","","75","69","k","","","","","","","","","","","","","","",""
"","S2","","html-keyboard-response","454","615573","0.0-1.0-625.0","0","0","80472","","122","","","75","69","","k","2","69","training","adjacent","BA","2","1","M.jpg","Q.jpg","0","0","1","",""
"","feedback","","html-keyboard-response","455","616575","0.0-1.0-627.0-0.0","0","0","80472","","null","","","null","69","","","","","","","","","","","","","","","",""
"","ITI","","html-keyboard-response","456","617576","0.0-1.0-630.0","0","0","80472","","138","","","68","69","","","","","","","","","","","","","","","d",""
"","S1","","html-keyboard-response","457","617828","0.0-1.0-632.0","0","0","80472","","null","","","null","70","","","","","","","","","","","","","","","",""
"","ISI","","html-keyboard-response","458","618830","0.0-1.0-633.0","0","0","80472","","5","","","75","70","k","","","","","","","","","","","","","","",""
"","S2","","html-keyboard-response","459","618953","0.0-1.0-634.0","0","0","80472","","123","","","68","70","","d","2","70","training","adjacent","CD","3","4","R.jpg","N.jpg","1","1","1","",""
"","feedback","","html-keyboard-response","460","619955","0.0-1.0-636.0-0.0","0","0","80472","","null","","","null","70","","","","","","","","","","","","","","","",""
"","ITI","","html-keyboard-response","461","620956","0.0-1.0-639.0","0","0","80472","","78","","","75","70","","","","","","","","","","","","","","","k",""
"","S1","","html-keyboard-response","462","621207","0.0-1.0-641.0","0","0","80472","","null","","","null","71","","","","","","","","","","","","","","","",""
"","ISI","","html-keyboard-response","463","622208","0.0-1.0-642.0","0","0","80472","","95","","","75","71","k","","","","","","","","","","","","","","",""
"","S2","","html-keyboard-response","464","622233","0.0-1.0-643.0","0","0","80472","","25","","","75","71","","k","2","71","training","adjacent","GF","7","6","P.jpg","O.jpg","0","0","1","",""
"","feedback","","html-keyboard-response","465","623234","0.0-1.0-645.0-0.0","0","0","80472","","null","","","null","71","","","","","","","","","","","","","","","",""
"","ITI","","html-keyboard-response","466","624236","0.0-1.0-648.0","0","0","80472","","18","","","68","71","","","","","","","","","","","","","","","d",""
"","S1","","html-keyboard-response","467","624488","0.0-1.0-650.0","0","0","80472","","null","","","null","72","","","","","","","","","","","","","","","",""
"","ISI","","html-keyboard-response","468","625489","0.0-1.0-651.0","0","0","80472","","75","","","75","72","k","","","","","","","","","","","","","","",""
"","S2","","html-keyboard-response","469","625523","0.0-1.0-652.0","0","0","80472","","32","","","75","72","","k","2","72","training","adjacent","FG","6","7","O.jpg","P.jpg","0","1","0","",""
"","feedback","","html-keyboard-response","470","626524","0.0-1.0-654.0-0.0","0","0","80472","","null","","","null","72","","","","","","","","","","","","","","","",""
"","time_out","","html-keyboard-response","471","628526","0.0-1.0-656.0-0.0","0","0","80472","","null","","","null","72","","","","","","","","","","","","","","","",""
"","ITI","","html-keyboard-response","472","629527","0.0-1.0-657.0","0","0","80472","","15","","","75","72","","","","","","","","","","","","","","","k",""
"","S1","","html-keyboard-response","473","629779","0.0-1.0-659.0","0","0","80472","","null","","","null","73","","","","","","","","","","","","","","","",""
"","ISI","","html-keyboard-response","474","630781","0.0-1.0-660.0","0","0","80472","","null","","","null","73","NaN","","","","","","","","","","","","","","",""
"","S2","","html-keyboard-response","475","631033","0.0-1.0-661.0","0","0","80472","","null","","","null","73","","NaN","","","","","","","","","","","","","",""
"","response","","html-keyboard-response","476","631493","0.0-1.0-662.0-0.0","0","0","80472","","459","","","68","73","","","2","73","training","adjacent","FE","6","5","O.jpg","L.jpg","1","0","0","",""
"","feedback","","html-keyboard-response","477","632495","0.0-1.0-663.0-0.0","0","0","80472","","null","","","null","73","","","","","","","","","","","","","","","",""
"","time_out","","html-keyboard-response","478","634497","0.0-1.0-665.0-0.0","0","0","80472","","null","","","null","73","","","","","","","","","","","","","","","",""
"","ITI","","html-keyboard-response","479","635498","0.0-1.0-666.0","0","0","80472","","75","","","68","73","","","","","","","","","","","","","","","d",""
"","S1","","html-keyboard-response","480","635750","0.0-1.0-668.0","0","0","80472","","null","","","null","74","","","","","","","","","","","","","","","",""
"","ISI","","html-keyboard-response","481","636751","0.0-1.0-669.0","0","0","80472","","947","","","68","74","d","","","","","","","","","","","","","","",""
"","S2","","html-keyboard-response","482","637002","0.0-1.0-670.0","0","0","80472","","null","","","null","74","","NaN","","","","","","","","","","","","","",""
"","response","","html-keyboard-response","483","637443","0.0-1.0-671.0-0.0","0","0","80472","","440","","","68","74","","","2","74","training","adjacent","DC","4","3","N.jpg","R.jpg","1","0","0","",""
"","feedback","","html-keyboard-response","484","638444","0.0-1.0-672.0-0.0","0","0","80472","","null","","","null","74","","","","","","","","","","","","","","","",""
"","time_out","","html-keyboard-response","485","640445","0.0-1.0-674.0-0.0","0","0","80472","","null","","","null","74","","","","","","","","","","","","","","","",""
"","ITI","","html-keyboard-response","486","641448","0.0-1.0-675.0","0","0","80472","","96","","","68","74","","","","","","","","","","","","","","","d",""
"","S1","","html-keyboard-response","487","641699","0.0-1.0-677.0","0","0","80472","","null","","","null","75","","","","","","","","","","","","","","","",""
"","ISI","","html-keyboard-response","488","642700","0.0-1.0-678.0","0","0","80472","","23","","","68","75","d","","","","","","","","","","","","","","",""
"","S2","","html-keyboard-response","489","642773","0.0-1.0-679.0","0","0","80472","","71","","","68","75","","d","2","75","training","adjacent","FE","6","5","O.jpg","L.jpg","1","0","0","",""
"","feedback","","html-keyboard-response","490","643775","0.0-1.0-681.0-0.0","0","0","80472","","null","","","null","75","","","","","","","","","","","","","","","",""
"","time_out","","html-keyboard-response","491","645776","0.0-1.0-683.0-0.0","0","0","80472","","null","","","null","75","","","","","","","","","","","","","","","",""
"","ITI","","html-keyboard-response","492","646777","0.0-1.0-684.0","0","0","80472","","16","","","75","75","","","","","","","","","","","","","","","k",""
"","S1","","html-keyboard-response","493","647028","0.0-1.0-686.0","0","0","80472","","null","","","null","76","","","","","","","","","","","","","","","",""
"","ISI","","html-keyboard-response","494","648030","0.0-1.0-687.0","0","0","80472","","763","","","75","76","k","","","","","","","","","","","","","","",""
"","S2","","html-keyboard-response","495","648282","0.0-1.0-688.0","0","0","80472","","null","","","null","76","","NaN","","","","","","","","","","","","","",""
"","response","","html-keyboard-response","496","648653","0.0-1.0-689.0-0.0","0","0","80472","","370","","","75","76","","","2","76","training","adjacent","BC","2","3","M.jpg","R.jpg","0","1","0","",""
"","feedback","","html-keyboard-response","497","649655","0.0-1.0-690.0-0.0","0","0","80472","","null","","","null","76","","","","","","","","","","","","","","","",""
"","time_out","","html-keyboard-response","498","651656","0.0-1.0-692.0-0.0","0","0","80472","","null","","","null","76","","","","","","","","","","","","","","","",""
"","ITI","","html-keyboard-response","499","652657","0.0-1.0-693.0","0","0","80472","","6","","","68","76","","","","","","","","","","","","","","","d",""
"","S1","","html-keyboard-response","500","652909","0.0-1.0-695.0","0","0","80472","","null","","","null","77","","","","","","","","","","","","","","","",""
"","ISI","","html-keyboard-response","501","653911","0.0-1.0-696.0","0","0","80472","","153","","","68","77","d","","","","","","","","","","","","","","",""
"","S2","","html-keyboard-response","502","654163","0.0-1.0-697.0","0","0","80472","","null","","","null","77","","NaN","","","","","","","","","","","","","",""
"","response","","html-keyboard-response","503","654182","0.0-1.0-698.0-0.0","0","0","80472","","19","","","68","77","","","2","77","training","adjacent","FG","6","7","O.jpg","P.jpg","1","1","1","",""
"","feedback","","html-keyboard-response","504","655184","0.0-1.0-699.0-0.0","0","0","80472","","null","","","null","77","","","","","","","","","","","","","","","",""
"","ITI","","html-keyboard-response","505","656185","0.0-1.0-702.0","0","0","80472","","367","","","68","77","","","","","","","","","","","","","","","d",""
"","S1","","html-keyboard-response","506","656437","0.0-1.0-704.0","0","0","80472","","null","","","null","78","","","","","","","","","","","","","","","",""
"","ISI","","html-keyboard-response","507","657438","0.0-1.0-705.0","0","0","80472","","265","","","68","78","d","","","","","","","","","","","","","","",""
"","S2","","html-keyboard-response","508","657632","0.0-1.0-706.0","0","0","80472","","192","","","68","78","","d","2","78","training","adjacent","DE","4","5","N.jpg","L.jpg","1","1","1","",""
"","feedback","","html-keyboard-response","509","658634","0.0-1.0-708.0-0.0","0","0","80472","","null","","","null","78","","","","","","","","","","","","","","","",""
"","ITI","","html-keyboard-response","510","659635","0.0-1.0-711.0","0","0","80472","","268","","","68","78","","","","","","","","","","","","","","","d",""
"","S1","","html-keyboard-response","511","659888","0.0-1.0-713.0","0","0","80472","","null","","","null","79","","","","","","","","","","","","","","","",""
"","ISI","","html-keyboard-response","512","660889","0.0-1.0-714.0","0","0","80472","","null","","","null","79","NaN","","","","","","","","","","","","","","",""
"","S2","","html-keyboard-response","513","660902","0.0-1.0-715.0","0","0","80472","","12","","","68","79","","d","2","79","training","adjacent","FE","6","5","O.jpg","L.jpg","1","0","0","",""
"","feedback","","html-keyboard-response","514","661906","0.0-1.0-717.0-0.0","0","0","80472","","null","","","null","79","","","","","","","","","","","","","","","",""
"","time_out","","html-keyboard-response","515","663907","0.0-1.0-719.0-0.0","0","0","80472","","null","","","null","79","","","","","","","","","","","","","","","",""
"","ITI","","html-keyboard-response","516","664910","0.0-1.0-720.0","0","0","80472","","245","","","68","79","","","","","","","","","","","","","","","d",""
"","S1","","html-keyboard-response","517","665162","0.0-1.0-722.0","0","0","80472","","null","","","null","80","","","","","","","","","","","","","","","",""
"","ISI","","html-keyboard-response","518","666164","0.0-1.0-723.0","0","0","80472","","41","","","68","80","d","","","","","","","","","","","","","","",""
"","S2","","html-keyboard-response","519","666416","0.0-1.0-724.0","0","0","80472","","null","","","null","80","","NaN","","","","","","","","","","","","","",""
"","response","","html-keyboard-response","520","666463","0.0-1.0-725.0-0.0","0","0","80472","","47","","","68","80","","","2","80","training","adjacent","ED","5","4","L.jpg","N.jpg","1","0","0","",""
"","feedback","","html-keyboard-response","521","667465","0.0-1.0-726.0-0.0","0","0","80472","","null","","","null","80","","","","","","","","","","","","","","","",""
"","time_out","","html-keyboard-response","522","669467","0.0-1.0-728.0-0.0","0","0","80472","","null","","","null","80","","","","","","","","","","","","","","","",""
"","ITI","","html-keyboard-response","523","670468","0.0-1.0-729.0","0","0","80472","","635","","","68","80","","","","","","","","","","","","","","","d",""
"","S1","","html-keyboard-response","524","670720","0.0-1.0-731.0","0","0","80472","","null","","","null","81","","","","","","","","","","","","","","","",""
"","ISI","","html-keyboard-response","525","671721","0.0-1.0-732.0","0","0","80472","","33","","","68","81","d","","","","","","","","","","","","","","",""
"","S2","","html-keyboard-response","526","671954","0.0-1.0-733.0","0","0","80472","","231","","","68","81","","d","2","81","training","adjacent","GF","7","6","P.jpg","O.jpg","1","0","0","",""
"","feedback","","html-keyboard-response","527","672955","0.0-1.0-735.0-0.0","0","0","80472","","null","","","null","81","","","","","","","","","","","","","","","",""
"","time_out","","html-keyboard-response","528","674958","0.0-1.0-737.0-0.0","0","0","80472","","null","","","null","81","","","","","","","","","","","","","","","",""
"","ITI","","html-keyboard-response","529","675959","0.0-1.0-738.0","0","0","80472","","175","","","75","81","","","","","","","","","","","","","","","k",""
"","S1","","html-keyboard-response","530","676211","0.0-1.0-740.0","0","0","80472","","null","","","null","82","","","","","","","","","","","","","","","",""
"","ISI","","html-keyboard-response","531","677212","0.0-1.0-741.0","0","0","80472","","422","","","75","82","k","","","","","","","","","","","","","","",""
"","S2","","html-keyboard-response","532","677263","0.0-1.0-742.0","0","0","80472","","50","","","75","82","","k","2","82","training","adjacent","CB","3","2","R.jpg","M.jpg","0","0","1","",""
"","feedback","","html-keyboard-response","533","678264","0.0-1.0-744.0-0.0","0","0","80472","","null","","","null","82","","","","","","","","","","","","","","","",""
"","ITI","","html-keyboard-response","534","679267","0.0-1.0-747.0","0","0","80472","","null","","","null","82","","","","","","","","","","","","","","","NaN",""
"","S1","","html-keyboard-response","535","679519","0.0-1.0-749.0","0","0","80472","","null","","","null","83","","","","","","","","","","","","","","","",""
"","ISI","","html-keyboard-response","536","680520","0.0-1.0-750.0","0","0","80472","","834","","","75","83","k","","","","","","","","","","","","","","",""
"","S2","","html-keyboard-response","537","680772","0.0-1.0-751.0","0","0","80472","","null","","","null","83","","NaN","","","","","","","","","","","","","",""
"","response","","html-keyboard-response","538","681253","0.0-1.0-752.0-0.0","0","0","80472","","481","","","75","83","","","2","83","training","adjacent","EF","5","6","L.jpg","O.jpg","0","1","0","",""
"","feedback","","html-keyboard-response","539","682255","0.0-1.0-753.0-0.0","0","0","80472","","null","","","null","83","","","","","","","","","","","","","","","",""
"","time_out","","html-keyboard-response","540","684257","0.0-1.0-755.0-0.0","0","0","80472","","null","","","null","83","","","","","","","","","","","","","","","",""
"","ITI","","html-keyboard-response","541","685258","0.0-1.0-756.0","0","0","80472","","null","","","null","83","","","","","","","","","","","","","","","NaN",""
"","S1","","html-keyboard-response","542","685510","0.0-1.0-758.0","0","0","80472","","null","","","null","84","","","","","","","","","","","","","","","",""
"","ISI","","html-keyboard-response","543","686511","0.0-1.0-759.0","0","0","80472","","null","","","null","84","NaN","","","","","","","","","","","","","","",""
"","S2","","html-keyboard-response","544","686693","0.0-1.0-760.0","0","0","80472","","181","","","68","84","","d","2","84","training","adjacent","CB","3","2","R.jpg","M.jpg","1","0","0","",""
"","feedback","","html-keyboard-response","545","687695","0.0-1.0-762.0-0.0","0","0","80472","","null","","","null","84","","","","","","","","","","","","","","","",""
"","time_out","","html-keyboard-response","546","689697","0.0-1.0-764.0-0.0","0","0","80472","","null","","","null","84","","","","","","","","","","","","","","","",""
"","ITI","","html-keyboard-response","547","690698","0.0-1.0-765.0","0","0","80472","","null","","","null","84","","","","","","","","","","","","","","","NaN",""
"","S1","","html-keyboard-response","548","690949","0.0-1.0-767.0","0","0","80472","","null","","","null","85","","","","","","","","","","","","","","","",""
"","ISI","","html-keyboard-response","549","691950","0.0-1.0-768.0","0","0","80472","","null","","","null","85","NaN","","","","","","","","","","","","","","",""
"","S2","","html-keyboard-response","550","692201","0.0-1.0-769.0","0","0","80472","","null","","","null","85","","NaN","","","","","","","","","","","","","",""
"","response","","html-keyboard-response","551","693956","0.0-1.0-770.0-0.0","0","0","80472","","null","","","null","85","","","2","85","training","adjacent","FG","6","7","O.jpg","P.jpg","NaN","1","0","",""
"","too_slow_prompt","","html-keyboard-response","552","695956","0.0-1.0-772.0-0.0","1","0","80472","","null","","","null","","","","","","","","","","","","","","","","",""
"","time_out","","html-keyboard-response","553","698957","0.0-1.0-773.0-0.0","0","0","80472","","null","","","null","85","","","","","","","","","","","","","","","",""
"","ITI","","html-keyboard-response","554","699958","0.0-1.0-774.0","0","0","80472","","null","","","null","85","","","","","","","","","","","","","","","NaN",""
"","S1","","html-keyboard-response","555","700956","0.0-1.0-776.0","0","0","80472","","null","","","null","86","","","","","","","","","","","","","","","",""
"","ISI","","html-keyboard-response","556","701957","0.0-1.0-777.0","0","0","80472","","null","","","null","86","NaN","","","","","","","","","","","","","","",""
"","S2","","html-keyboard-response","557","702957","0.0-1.0-778.0","0","0","80472","","null","","","null","86","","NaN","","","","","","","","","","","","","",""
"","response","","html-keyboard-response","558","704708","0.0-1.0-779.0-0.0","0","0","80472","","null","","","null","86","","","2","86","training","adjacent","DC","4","3","N.jpg","R.jpg","NaN","0","0","",""
"","too_slow_prompt","","html-keyboard-response","559","705710","0.0-1.0-781.0-0.0","1","0","80472","","null","","","null","","","","","","","","","","","","","","","","",""
"","time_out","","html-keyboard-response","560","707711","0.0-1.0-782.0-0.0","0","0","80472","","null","","","null","86","","","","","","","","","","","","","","","",""
"","ITI","","html-keyboard-response","561","708712","0.0-1.0-783.0","0","0","80472","","null","","","null","86","","","","","","","","","","","","","","","NaN",""
"","S1","","html-keyboard-response","562","708965","0.0-1.0-785.0","0","0","80472","","null","","","null","87","","","","","","","","","","","","","","","",""
"","ISI","","html-keyboard-response","563","709966","0.0-1.0-786.0","0","0","80472","","null","","","null","87","NaN","","","","","","","","","","","","","","",""
"","S2","","html-keyboard-response","564","710217","0.0-1.0-787.0","0","0","80472","","null","","","null","87","","NaN","","","","","","","","","","","","","",""
"","response","","html-keyboard-response","565","710632","0.0-1.0-788.0-0.0","0","0","80472","","415","","","68","87","","","2","87","training","adjacent","AB","1","2","Q.jpg","M.jpg","1","1","1","",""
"","feedback","","html-keyboard-response","566","711634","0.0-1.0-789.0-0.0","0","0","80472","","null","","","null","87","","","","","","","","","","","","","","","",""
"","ITI","","html-keyboard-response","567","712636","0.0-1.0-792.0","0","0","80472","","null","","","null","87","","","","","","","","","","","","","","","NaN",""
"","S1","","html-keyboard-response","568","712888","0.0-1.0-794.0","0","0","80472","","null","","","null","88","","","","","","","","","","","","","","","",""
"","ISI","","html-keyboard-response","569","713889","0.0-1.0-795.0","0","0","80472","","null","","","null","88","NaN","","","","","","","","","","","","","","",""
"","S2","","html-keyboard-response","570","714141","0.0-1.0-796.0","0","0","80472","","null","","","null","88","","NaN","","","","","","","","","","","","","",""
"","response","","html-keyboard-response","571","715062","0.0-1.0-797.0-0.0","0","0","80472","","921","","","68","88","","","2","88","training","adjacent","BC","2","3","M.jpg","R.jpg","1","1","1","",""
"","feedback","","html-keyboard-response","572","716065","0.0-1.0-798.0-0.0","0","0","80472","","null","","","null","88","","","","","","","","","","","","","","","",""
"","ITI","","html-keyboard-response","573","717067","0.0-1.0-801.0","0","0","80472","","null","","","null","88","","","","","","","","","","","","","","","NaN",""
"","S1","","html-keyboard-response","574","717318","0.0-1.0-803.0","0","0","80472","","null","","","null","89","","","","","","","","","","","","","","","",""
"","ISI","","html-keyboard-response","575","718320","0.0-1.0-804.0","0","0","80472","","null","","","null","89","NaN","","","","","","","","","","","","","","",""
"","S2","","html-keyboard-response","576","718572","0.0-1.0-805.0","0","0","80472","","null","","","null","89","","NaN","","","","","","","","","","","","","",""
"","response","","html-keyboard-response","577","719252","0.0-1.0-806.0-0.0","0","0","80472","","679","","","68","89","","","2","89","training","adjacent","AB","1","2","Q.jpg","M.jpg","1","1","1","",""
"","feedback","","html-keyboard-response","578","720254","0.0-1.0-807.0-0.0","0","0","80472","","null","","","null","89","","","","","","","","","","","","","","","",""
"","ITI","","html-keyboard-response","579","721257","0.0-1.0-810.0","0","0","80472","","null","","","null","89","","","","","","","","","","","","","","","NaN",""
"","S1","","html-keyboard-response","580","721509","0.0-1.0-812.0","0","0","80472","","null","","","null","90","","","","","","","","","","","","","","","",""
"","ISI","","html-keyboard-response","581","722513","0.0-1.0-813.0","0","0","80472","","null","","","null","90","NaN","","","","","","","","","","","","","","",""
"","S2","","html-keyboard-response","582","722765","0.0-1.0-814.0","0","0","80472","","null","","","null","90","","NaN","","","","","","","","","","","","","",""
