"success","ttype","start_time","trial_type","trial_index","time_elapsed","internal_node_id","warning","missed_checkup","PID","view_history","rt","responses","repeat_instructions","key_press","index","keypress_isi","keypress_S2","block","trial_num","phase","group_type","pair_type","S1_stim","S2_stim","S1_img","S2_img","S1_chosen","S1_higher","accuracy","keypress_iti","total_bonus_tally"
"true","full_screen","d03032023hr2049","fullscreen","0","9755","0.0-0.0","0","0","95423","","","","","","","","","","","","","","","","","","","","","",""
"","instructions","","instructions","1","54580","0.0-1.0-0.0-0.0","0","0","95423","[{""page_index"":0,""viewing_time"":7174},{""page_index"":1,""viewing_time"":21797},{""page_index"":2,""viewing_time"":7800},{""page_index"":3,""viewing_time"":8043}]","44816","","","","","","","","","","","","","","","","","","","",""
"","comprehension_check","","survey-multi-choice","2","125273","0.0-1.0-0.0-1.0","0","0","95423","","70677","{""Q0"":""True"",""Q1"":""D"",""Q2"":""Once the second image appears and while the screen 'MAKE A CHOICE' is shown"",""Q3"":""Green mark"",""Q4"":""either D or K""}","1","","","","","","","","","","","","","","","","","",""
"","missed_instruction_checkup","","html-keyboard-response","3","144402","0.0-1.0-0.0-2.0-0.0","0","1","95423","","19113","","","32","","","","","","","","","","","","","","","","",""
"","instructions","","instructions","4","164399","0.0-1.0-0.1-0.1","0","0","95423","[{""page_index"":0,""viewing_time"":2757},{""page_index"":1,""viewing_time"":13958},{""page_index"":2,""viewing_time"":1540},{""page_index"":3,""viewing_time"":1737}]","19992","","","","","","","","","","","","","","","","","","","",""
"","comprehension_check","","survey-multi-choice","5","196472","0.0-1.0-0.1-1.1","0","0","95423","","32060","{""Q0"":""True"",""Q1"":""D"",""Q2"":""Once the second image appears and while the screen 'MAKE A CHOICE' is shown"",""Q3"":""Green mark"",""Q4"":""either D or K""}","1","","","","","","","","","","","","","","","","","",""
"","missed_instruction_checkup","","html-keyboard-response","6","200616","0.0-1.0-0.1-2.1-0.1","0","1","95423","","4133","","","32","","","","","","","","","","","","","","","","",""
"","instructions","","instructions","7","215436","0.0-1.0-0.2-0.2","0","0","95423","[{""page_index"":0,""viewing_time"":4314},{""page_index"":1,""viewing_time"":7570},{""page_index"":2,""viewing_time"":1311},{""page_index"":3,""viewing_time"":1619}]","14815","","","","","","","","","","","","","","","","","","","",""
"","comprehension_check","","survey-multi-choice","8","228071","0.0-1.0-0.2-1.2","0","0","95423","","12622","{""Q0"":""True"",""Q1"":""K"",""Q2"":""Once the second image appears and while the screen 'MAKE A CHOICE' is shown"",""Q3"":""Green mark"",""Q4"":""either D or K""}","0","","","","","","","","","","","","","","","","","",""
"","start_exp","","html-keyboard-response","9","232859","0.0-1.0-1.0","0","0","95423","","4778","","","32","","","","","","","","","","","","","","","","",""
"","S1","","html-keyboard-response","10","233115","0.0-1.0-2.0","0","0","95423","","null","","","null","0","","","","","","","","","","","","","","","",""
"","ISI","","html-keyboard-response","11","233617","0.0-1.0-3.0","0","0","95423","","null","","","null","0","NaN","","","","","","","","","","","","","","",""
"","S2","","html-keyboard-response","12","233878","0.0-1.0-4.0","0","0","95423","","null","","","null","0","","NaN","","","","","","","","","","","","","",""
"","response","","html-keyboard-response","13","235638","0.0-1.0-5.0-0.0","0","0","95423","","null","","","null","0","","","1","0","training","adjacent","EF","5","6","L.jpg","R.jpg","NaN","1","0","",""
"","too_slow_prompt","","html-keyboard-response","14","236654","0.0-1.0-7.0-0.0","1","0","95423","","null","","","null","","","","","","","","","","","","","","","","",""
"","time_out","","html-keyboard-response","15","238663","0.0-1.0-8.0-0.0","0","0","95423","","null","","","null","0","","","","","","","","","","","","","","","",""
"","ITI","","html-keyboard-response","16","239667","0.0-1.0-9.0","0","0","95423","","46","","","68","0","","","","","","","","","","","","","","","d",""
"","S1","","html-keyboard-response","17","239923","0.0-1.0-11.0","0","0","95423","","null","","","null","1","","","","","","","","","","","","","","","",""
"","ISI","","html-keyboard-response","18","240426","0.0-1.0-12.0","0","0","95423","","96","","","68","1","d","","","","","","","","","","","","","","",""
"","S2","","html-keyboard-response","19","240440","0.0-1.0-13.0","0","0","95423","","10","","","68","1","","d","1","1","training","adjacent","DE","4","5","N.jpg","L.jpg","0","1","0","",""
"","feedback","","html-keyboard-response","20","241444","0.0-1.0-15.0-0.0","0","0","95423","","null","","","null","1","","","","","","","","","","","","","","","",""
"","time_out","","html-keyboard-response","21","243450","0.0-1.0-17.0-0.0","0","0","95423","","null","","","null","1","","","","","","","","","","","","","","","",""
"","ITI","","html-keyboard-response","22","244454","0.0-1.0-18.0","0","0","95423","","null","","","null","1","","","","","","","","","","","","","","","NaN",""
"","S1","","html-keyboard-response","23","244708","0.0-1.0-20.0","0","0","95423","","null","","","null","2","","","","","","","","","","","","","","","",""
"","ISI","","html-keyboard-response","24","245212","0.0-1.0-21.0","0","0","95423","","null","","","null","2","NaN","","","","","","","","","","","","","","",""
"","S2","","html-keyboard-response","25","245467","0.0-1.0-22.0","0","0","95423","","null","","","null","2","","NaN","","","","","","","","","","","","","",""
"","response","","html-keyboard-response","26","247223","0.0-1.0-23.0-0.0","0","0","95423","","null","","","null","2","","","1","2","training","adjacent","ED","5","4","L.jpg","N.jpg","NaN","0","0","",""
"","too_slow_prompt","","html-keyboard-response","27","248225","0.0-1.0-25.0-0.0","1","0","95423","","null","","","null","","","","","","","","","","","","","","","","",""
"","time_out","","html-keyboard-response","28","250228","0.0-1.0-26.0-0.0","0","0","95423","","null","","","null","2","","","","","","","","","","","","","","","",""
"","ITI","","html-keyboard-response","29","251232","0.0-1.0-27.0","0","0","95423","","null","","","null","2","","","","","","","","","","","","","","","NaN",""
"","S1","","html-keyboard-response","30","251485","0.0-1.0-29.0","0","0","95423","","null","","","null","3","","","","","","","","","","","","","","","",""
"","ISI","","html-keyboard-response","31","251990","0.0-1.0-30.0","0","0","95423","","null","","","null","3","NaN","","","","","","","","","","","","","","",""
"","S2","","html-keyboard-response","32","252244","0.0-1.0-31.0","0","0","95423","","null","","","null","3","","NaN","","","","","","","","","","","","","",""
"","response","","html-keyboard-response","33","254000","0.0-1.0-32.0-0.0","0","0","95423","","null","","","null","3","","","1","3","training","adjacent","ED","5","4","L.jpg","N.jpg","NaN","0","0","",""
"","too_slow_prompt","","html-keyboard-response","34","255005","0.0-1.0-34.0-0.0","1","0","95423","","null","","","null","","","","","","","","","","","","","","","","",""
"","time_out","","html-keyboard-response","35","257012","0.0-1.0-35.0-0.0","0","0","95423","","null","","","null","3","","","","","","","","","","","","","","","",""
"","ITI","","html-keyboard-response","36","258016","0.0-1.0-36.0","0","0","95423","","null","","","null","3","","","","","","","","","","","","","","","NaN",""
"","S1","","html-keyboard-response","37","258270","0.0-1.0-38.0","0","0","95423","","null","","","null","4","","","","","","","","","","","","","","","",""
"","ISI","","html-keyboard-response","38","258776","0.0-1.0-39.0","0","0","95423","","417","","","75","4","k","","","","","","","","","","","","","","",""
"","S2","","html-keyboard-response","39","259037","0.0-1.0-40.0","0","0","95423","","null","","","null","4","","NaN","","","","","","","","","","","","","",""
"","response","","html-keyboard-response","40","259673","0.0-1.0-41.0-0.0","0","0","95423","","632","","","75","4","","","1","4","training","adjacent","GF","7","6","P.jpg","R.jpg","1","0","0","",""
"","feedback","","html-keyboard-response","41","260679","0.0-1.0-42.0-0.0","0","0","95423","","null","","","null","4","","","","","","","","","","","","","","","",""
"","time_out","","html-keyboard-response","42","262684","0.0-1.0-44.0-0.0","0","0","95423","","null","","","null","4","","","","","","","","","","","","","","","",""
"","ITI","","html-keyboard-response","43","263688","0.0-1.0-45.0","0","0","95423","","415","","","68","4","","","","","","","","","","","","","","","d",""
"","S1","","html-keyboard-response","44","263942","0.0-1.0-47.0","0","0","95423","","null","","","null","5","","","","","","","","","","","","","","","",""
"","ISI","","html-keyboard-response","45","264447","0.0-1.0-48.0","0","0","95423","","66","","","75","5","k","","","","","","","","","","","","","","",""
"","S2","","html-keyboard-response","46","264451","0.0-1.0-49.0","0","0","95423","","1","","","68","5","","d","1","5","training","adjacent","BC","2","3","M.jpg","Q.jpg","0","1","0","",""
"","feedback","","html-keyboard-response","47","265499","0.0-1.0-51.0-0.0","0","0","95423","","null","","","null","5","","","","","","","","","","","","","","","",""
"","time_out","","html-keyboard-response","48","267503","0.0-1.0-53.0-0.0","0","0","95423","","null","","","null","5","","","","","","","","","","","","","","","",""
"","ITI","","html-keyboard-response","49","268507","0.0-1.0-54.0","0","0","95423","","176","","","68","5","","","","","","","","","","","","","","","d",""
"","S1","","html-keyboard-response","50","268761","0.0-1.0-56.0","0","0","95423","","null","","","null","6","","","","","","","","","","","","","","","",""
"","ISI","","html-keyboard-response","51","269289","0.0-1.0-57.0","0","0","95423","","178","","","68","6","d","","","","","","","","","","","","","","",""
"","S2","","html-keyboard-response","52","269358","0.0-1.0-58.0","0","0","95423","","58","","","68","6","","d","1","6","training","adjacent","CD","3","4","Q.jpg","N.jpg","0","1","0","",""
"","feedback","","html-keyboard-response","53","270363","0.0-1.0-60.0-0.0","0","0","95423","","null","","","null","6","","","","","","","","","","","","","","","",""
"","time_out","","html-keyboard-response","54","272369","0.0-1.0-62.0-0.0","0","0","95423","","null","","","null","6","","","","","","","","","","","","","","","",""
"","ITI","","html-keyboard-response","55","273382","0.0-1.0-63.0","0","0","95423","","210","","","75","6","","","","","","","","","","","","","","","k",""
"","S1","","html-keyboard-response","56","273636","0.0-1.0-65.0","0","0","95423","","null","","","null","7","","","","","","","","","","","","","","","",""
"","ISI","","html-keyboard-response","57","274139","0.0-1.0-66.0","0","0","95423","","113","","","75","7","k","","","","","","","","","","","","","","",""
"","S2","","html-keyboard-response","58","274274","0.0-1.0-67.0","0","0","95423","","130","","","68","7","","d","1","7","training","adjacent","BC","2","3","M.jpg","Q.jpg","0","1","0","",""
"","feedback","","html-keyboard-response","59","275278","0.0-1.0-69.0-0.0","0","0","95423","","null","","","null","7","","","","","","","","","","","","","","","",""
"","time_out","","html-keyboard-response","60","277284","0.0-1.0-71.0-0.0","0","0","95423","","null","","","null","7","","","","","","","","","","","","","","","",""
"","ITI","","html-keyboard-response","61","278289","0.0-1.0-72.0","0","0","95423","","36","","","75","7","","","","","","","","","","","","","","","k",""
"","S1","","html-keyboard-response","62","278545","0.0-1.0-74.0","0","0","95423","","null","","","null","8","","","","","","","","","","","","","","","",""
"","ISI","","html-keyboard-response","63","279053","0.0-1.0-75.0","0","0","95423","","184","","","68","8","d","","","","","","","","","","","","","","",""
"","S2","","html-keyboard-response","64","279084","0.0-1.0-76.0","0","0","95423","","28","","","68","8","","d","1","8","training","adjacent","CB","3","2","Q.jpg","M.jpg","0","0","1","",""
"","feedback","","html-keyboard-response","65","280089","0.0-1.0-78.0-0.0","0","0","95423","","null","","","null","8","","","","","","","","","","","","","","","",""
"","ITI","","html-keyboard-response","66","281093","0.0-1.0-81.0","0","0","95423","","39","","","75","8","","","","","","","","","","","","","","","k",""
"","S1","","html-keyboard-response","67","281347","0.0-1.0-83.0","0","0","95423","","null","","","null","9","","","","","","","","","","","","","","","",""
"","ISI","","html-keyboard-response","68","281854","0.0-1.0-84.0","0","0","95423","","2","","","68","9","d","","","","","","","","","","","","","","",""
"","S2","","html-keyboard-response","69","281932","0.0-1.0-85.0","0","0","95423","","73","","","68","9","","d","1","9","training","adjacent","AB","1","2","O.jpg","M.jpg","0","1","0","",""
"","feedback","","html-keyboard-response","70","282935","0.0-1.0-87.0-0.0","0","0","95423","","null","","","null","9","","","","","","","","","","","","","","","",""
"","time_out","","html-keyboard-response","71","284942","0.0-1.0-89.0-0.0","0","0","95423","","null","","","null","9","","","","","","","","","","","","","","","",""
"","ITI","","html-keyboard-response","72","285946","0.0-1.0-90.0","0","0","95423","","396","","","68","9","","","","","","","","","","","","","","","d",""
"","S1","","html-keyboard-response","73","286199","0.0-1.0-92.0","0","0","95423","","null","","","null","10","","","","","","","","","","","","","","","",""
"","ISI","","html-keyboard-response","74","286701","0.0-1.0-93.0","0","0","95423","","90","","","68","10","d","","","","","","","","","","","","","","",""
"","S2","","html-keyboard-response","75","286853","0.0-1.0-94.0","0","0","95423","","145","","","68","10","","d","1","10","training","adjacent","BC","2","3","M.jpg","Q.jpg","0","1","0","",""
"","feedback","","html-keyboard-response","76","287863","0.0-1.0-96.0-0.0","0","0","95423","","null","","","null","10","","","","","","","","","","","","","","","",""
"","time_out","","html-keyboard-response","77","289875","0.0-1.0-98.0-0.0","0","0","95423","","null","","","null","10","","","","","","","","","","","","","","","",""
"","ITI","","html-keyboard-response","78","290879","0.0-1.0-99.0","0","0","95423","","45","","","68","10","","","","","","","","","","","","","","","d",""
"","S1","","html-keyboard-response","79","291133","0.0-1.0-101.0","0","0","95423","","null","","","null","11","","","","","","","","","","","","","","","",""
"","ISI","","html-keyboard-response","80","291637","0.0-1.0-102.0","0","0","95423","","176","","","68","11","d","","","","","","","","","","","","","","",""
"","S2","","html-keyboard-response","81","291723","0.0-1.0-103.0","0","0","95423","","81","","","68","11","","d","1","11","training","adjacent","CD","3","4","Q.jpg","N.jpg","0","1","0","",""
"","feedback","","html-keyboard-response","82","292728","0.0-1.0-105.0-0.0","0","0","95423","","null","","","null","11","","","","","","","","","","","","","","","",""
"","time_out","","html-keyboard-response","83","294740","0.0-1.0-107.0-0.0","0","0","95423","","null","","","null","11","","","","","","","","","","","","","","","",""
"","ITI","","html-keyboard-response","84","295745","0.0-1.0-108.0","0","0","95423","","48","","","68","11","","","","","","","","","","","","","","","d",""
"","S1","","html-keyboard-response","85","295999","0.0-1.0-110.0","0","0","95423","","null","","","null","12","","","","","","","","","","","","","","","",""
"","ISI","","html-keyboard-response","86","296506","0.0-1.0-111.0","0","0","95423","","183","","","68","12","d","","","","","","","","","","","","","","",""
"","S2","","html-keyboard-response","87","296612","0.0-1.0-112.0","0","0","95423","","102","","","68","12","","d","1","12","training","adjacent","BA","2","1","M.jpg","O.jpg","0","0","1","",""
"","feedback","","html-keyboard-response","88","297624","0.0-1.0-114.0-0.0","0","0","95423","","null","","","null","12","","","","","","","","","","","","","","","",""
"","ITI","","html-keyboard-response","89","298630","0.0-1.0-117.0","0","0","95423","","23","","","68","12","","","","","","","","","","","","","","","d",""
"","S1","","html-keyboard-response","90","298889","0.0-1.0-119.0","0","0","95423","","null","","","null","13","","","","","","","","","","","","","","","",""
"","ISI","","html-keyboard-response","91","299399","0.0-1.0-120.0","0","0","95423","","156","","","75","13","k","","","","","","","","","","","","","","",""
"","S2","","html-keyboard-response","92","299493","0.0-1.0-121.0","0","0","95423","","89","","","75","13","","k","1","13","training","adjacent","BC","2","3","M.jpg","Q.jpg","1","1","1","",""
"","feedback","","html-keyboard-response","93","300500","0.0-1.0-123.0-0.0","0","0","95423","","null","","","null","13","","","","","","","","","","","","","","","",""
"","ITI","","html-keyboard-response","94","301506","0.0-1.0-126.0","0","0","95423","","80","","","75","13","","","","","","","","","","","","","","","k",""
"","S1","","html-keyboard-response","95","301769","0.0-1.0-128.0","0","0","95423","","null","","","null","14","","","","","","","","","","","","","","","",""
"","ISI","","html-keyboard-response","96","302275","0.0-1.0-129.0","0","0","95423","","19","","","75","14","k","","","","","","","","","","","","","","",""
"","S2","","html-keyboard-response","97","302371","0.0-1.0-130.0","0","0","95423","","92","","","75","14","","k","1","14","training","adjacent","CD","3","4","Q.jpg","N.jpg","1","1","1","",""
"","feedback","","html-keyboard-response","98","303383","0.0-1.0-132.0-0.0","0","0","95423","","null","","","null","14","","","","","","","","","","","","","","","",""
"","ITI","","html-keyboard-response","99","304446","0.0-1.0-135.0","0","0","95423","","174","","","75","14","","","","","","","","","","","","","","","k",""
"","S1","","html-keyboard-response","100","304701","0.0-1.0-137.0","0","0","95423","","null","","","null","15","","","","","","","","","","","","","","","",""
"","ISI","","html-keyboard-response","101","305247","0.0-1.0-138.0","0","0","95423","","83","","","75","15","k","","","","","","","","","","","","","","",""
"","S2","","html-keyboard-response","102","305342","0.0-1.0-139.0","0","0","95423","","89","","","75","15","","k","1","15","training","adjacent","CB","3","2","Q.jpg","M.jpg","1","0","0","",""
"","feedback","","html-keyboard-response","103","306349","0.0-1.0-141.0-0.0","0","0","95423","","null","","","null","15","","","","","","","","","","","","","","","",""
"","time_out","","html-keyboard-response","104","308355","0.0-1.0-143.0-0.0","0","0","95423","","null","","","null","15","","","","","","","","","","","","","","","",""
"","ITI","","html-keyboard-response","105","309365","0.0-1.0-144.0","0","0","95423","","12","","","75","15","","","","","","","","","","","","","","","k",""
"","S1","","html-keyboard-response","106","309619","0.0-1.0-146.0","0","0","95423","","null","","","null","16","","","","","","","","","","","","","","","",""
"","ISI","","html-keyboard-response","107","310123","0.0-1.0-147.0","0","0","95423","","135","","","68","16","d","","","","","","","","","","","","","","",""
"","S2","","html-keyboard-response","108","310241","0.0-1.0-148.0","0","0","95423","","114","","","75","16","","k","1","16","training","adjacent","CD","3","4","Q.jpg","N.jpg","1","1","1","",""
"","feedback","","html-keyboard-response","109","311246","0.0-1.0-150.0-0.0","0","0","95423","","null","","","null","16","","","","","","","","","","","","","","","",""
"","ITI","","html-keyboard-response","110","312256","0.0-1.0-153.0","0","0","95423","","25","","","68","16","","","","","","","","","","","","","","","d",""
"","S1","","html-keyboard-response","111","312510","0.0-1.0-155.0","0","0","95423","","null","","","null","17","","","","","","","","","","","","","","","",""
"","ISI","","html-keyboard-response","112","313015","0.0-1.0-156.0","0","0","95423","","49","","","68","17","d","","","","","","","","","","","","","","",""
"","S2","","html-keyboard-response","113","313064","0.0-1.0-157.0","0","0","95423","","45","","","68","17","","d","1","17","training","adjacent","AB","1","2","O.jpg","M.jpg","0","1","0","",""
"","feedback","","html-keyboard-response","114","314073","0.0-1.0-159.0-0.0","0","0","95423","","null","","","null","17","","","","","","","","","","","","","","","",""
"","time_out","","html-keyboard-response","115","316078","0.0-1.0-161.0-0.0","0","0","95423","","null","","","null","17","","","","","","","","","","","","","","","",""
"","ITI","","html-keyboard-response","116","317086","0.0-1.0-162.0","0","0","95423","","601","","","75","17","","","","","","","","","","","","","","","k",""
"","S1","","html-keyboard-response","117","317361","0.0-1.0-164.0","0","0","95423","","null","","","null","18","","","","","","","","","","","","","","","",""
"","ISI","","html-keyboard-response","118","317868","0.0-1.0-165.0","0","0","95423","","145","","","75","18","k","","","","","","","","","","","","","","",""
"","S2","","html-keyboard-response","119","317957","0.0-1.0-166.0","0","0","95423","","85","","","75","18","","k","1","18","training","adjacent","ED","5","4","L.jpg","N.jpg","1","0","0","",""
"","feedback","","html-keyboard-response","120","318962","0.0-1.0-168.0-0.0","0","0","95423","","null","","","null","18","","","","","","","","","","","","","","","",""
"","time_out","","html-keyboard-response","121","320967","0.0-1.0-170.0-0.0","0","0","95423","","null","","","null","18","","","","","","","","","","","","","","","",""
"","ITI","","html-keyboard-response","122","321973","0.0-1.0-171.0","0","0","95423","","10","","","68","18","","","","","","","","","","","","","","","d",""
"","S1","","html-keyboard-response","123","322230","0.0-1.0-173.0","0","0","95423","","null","","","null","19","","","","","","","","","","","","","","","",""
"","ISI","","html-keyboard-response","124","322734","0.0-1.0-174.0","0","0","95423","","1","","","75","19","k","","","","","","","","","","","","","","",""
"","S2","","html-keyboard-response","125","322761","0.0-1.0-175.0","0","0","95423","","24","","","68","19","","d","1","19","training","adjacent","DC","4","3","N.jpg","Q.jpg","0","0","1","",""
"","feedback","","html-keyboard-response","126","323765","0.0-1.0-177.0-0.0","0","0","95423","","null","","","null","19","","","","","","","","","","","","","","","",""
"","ITI","","html-keyboard-response","127","324768","0.0-1.0-180.0","0","0","95423","","128","","","75","19","","","","","","","","","","","","","","","k",""
"","S1","","html-keyboard-response","128","325024","0.0-1.0-182.0","0","0","95423","","null","","","null","20","","","","","","","","","","","","","","","",""
"","ISI","","html-keyboard-response","129","325791","0.0-1.0-183.0","0","0","95423","","88","","","75","20","k","","","","","","","","","","","","","","",""
"","S2","","html-keyboard-response","130","325795","0.0-1.0-184.0","0","0","95423","","1","","","75","20","","k","1","20","training","adjacent","EF","5","6","L.jpg","R.jpg","1","1","1","",""
"","feedback","","html-keyboard-response","131","326801","0.0-1.0-186.0-0.0","0","0","95423","","null","","","null","20","","","","","","","","","","","","","","","",""
"","ITI","","html-keyboard-response","132","327815","0.0-1.0-189.0","0","0","95423","","346","","","75","20","","","","","","","","","","","","","","","k",""
"","S1","","html-keyboard-response","133","328069","0.0-1.0-191.0","0","0","95423","","null","","","null","21","","","","","","","","","","","","","","","",""
"","ISI","","html-keyboard-response","134","328573","0.0-1.0-192.0","0","0","95423","","10","","","75","21","k","","","","","","","","","","","","","","",""
"","S2","","html-keyboard-response","135","328722","0.0-1.0-193.0","0","0","95423","","145","","","75","21","","k","1","21","training","adjacent","CB","3","2","Q.jpg","M.jpg","1","0","0","",""
"","feedback","","html-keyboard-response","136","329729","0.0-1.0-195.0-0.0","0","0","95423","","null","","","null","21","","","","","","","","","","","","","","","",""
"","time_out","","html-keyboard-response","137","331765","0.0-1.0-197.0-0.0","0","0","95423","","null","","","null","21","","","","","","","","","","","","","","","",""
"","ITI","","html-keyboard-response","138","332770","0.0-1.0-198.0","0","0","95423","","null","","","null","21","","","","","","","","","","","","","","","NaN",""
"","S1","","html-keyboard-response","139","333024","0.0-1.0-200.0","0","0","95423","","null","","","null","22","","","","","","","","","","","","","","","",""
"","ISI","","html-keyboard-response","140","333527","0.0-1.0-201.0","0","0","95423","","null","","","null","22","NaN","","","","","","","","","","","","","","",""
"","S2","","html-keyboard-response","141","333554","0.0-1.0-202.0","0","0","95423","","21","","","75","22","","k","1","22","training","adjacent","AB","1","2","O.jpg","M.jpg","1","1","1","",""
"","feedback","","html-keyboard-response","142","334557","0.0-1.0-204.0-0.0","0","0","95423","","null","","","null","22","","","","","","","","","","","","","","","",""
"","ITI","","html-keyboard-response","143","335564","0.0-1.0-207.0","0","0","95423","","31","","","68","22","","","","","","","","","","","","","","","d",""
"","S1","","html-keyboard-response","144","335819","0.0-1.0-209.0","0","0","95423","","null","","","null","23","","","","","","","","","","","","","","","",""
"","ISI","","html-keyboard-response","145","336323","0.0-1.0-210.0","0","0","95423","","473","","","75","23","k","","","","","","","","","","","","","","",""
"","S2","","html-keyboard-response","146","336517","0.0-1.0-211.0","0","0","95423","","188","","","68","23","","d","1","23","training","adjacent","DE","4","5","N.jpg","L.jpg","0","1","0","",""
"","feedback","","html-keyboard-response","147","337522","0.0-1.0-213.0-0.0","0","0","95423","","null","","","null","23","","","","","","","","","","","","","","","",""
"","time_out","","html-keyboard-response","148","339530","0.0-1.0-215.0-0.0","0","0","95423","","null","","","null","23","","","","","","","","","","","","","","","",""
"","ITI","","html-keyboard-response","149","340537","0.0-1.0-216.0","0","0","95423","","249","","","75","23","","","","","","","","","","","","","","","k",""
"","S1","","html-keyboard-response","150","340792","0.0-1.0-218.0","0","0","95423","","null","","","null","24","","","","","","","","","","","","","","","",""
"","ISI","","html-keyboard-response","151","341296","0.0-1.0-219.0","0","0","95423","","307","","","75","24","k","","","","","","","","","","","","","","",""
"","S2","","html-keyboard-response","152","341413","0.0-1.0-220.0","0","0","95423","","112","","","75","24","","k","1","24","training","adjacent","AB","1","2","O.jpg","M.jpg","1","1","1","",""
"","feedback","","html-keyboard-response","153","342446","0.0-1.0-222.0-0.0","0","0","95423","","null","","","null","24","","","","","","","","","","","","","","","",""
"","ITI","","html-keyboard-response","154","343451","0.0-1.0-225.0","0","0","95423","","null","","","null","24","","","","","","","","","","","","","","","NaN",""
"","S1","","html-keyboard-response","155","343704","0.0-1.0-227.0","0","0","95423","","null","","","null","25","","","","","","","","","","","","","","","",""
"","ISI","","html-keyboard-response","156","344208","0.0-1.0-228.0","0","0","95423","","287","","","75","25","k","","","","","","","","","","","","","","",""
"","S2","","html-keyboard-response","157","344252","0.0-1.0-229.0","0","0","95423","","37","","","75","25","","k","1","25","training","adjacent","DE","4","5","N.jpg","L.jpg","1","1","1","",""
"","feedback","","html-keyboard-response","158","345278","0.0-1.0-231.0-0.0","0","0","95423","","null","","","null","25","","","","","","","","","","","","","","","",""
"","ITI","","html-keyboard-response","159","346284","0.0-1.0-234.0","0","0","95423","","null","","","null","25","","","","","","","","","","","","","","","NaN",""
"","S1","","html-keyboard-response","160","346539","0.0-1.0-236.0","0","0","95423","","null","","","null","26","","","","","","","","","","","","","","","",""
"","ISI","","html-keyboard-response","161","347059","0.0-1.0-237.0","0","0","95423","","270","","","68","26","d","","","","","","","","","","","","","","",""
"","S2","","html-keyboard-response","162","347264","0.0-1.0-238.0","0","0","95423","","197","","","68","26","","d","1","26","training","adjacent","DC","4","3","N.jpg","Q.jpg","0","0","1","",""
"","feedback","","html-keyboard-response","163","348270","0.0-1.0-240.0-0.0","0","0","95423","","null","","","null","26","","","","","","","","","","","","","","","",""
"","ITI","","html-keyboard-response","164","349276","0.0-1.0-243.0","0","0","95423","","null","","","null","26","","","","","","","","","","","","","","","NaN",""
"","S1","","html-keyboard-response","165","349529","0.0-1.0-245.0","0","0","95423","","null","","","null","27","","","","","","","","","","","","","","","",""
"","ISI","","html-keyboard-response","166","350033","0.0-1.0-246.0","0","0","95423","","268","","","68","27","d","","","","","","","","","","","","","","",""
"","S2","","html-keyboard-response","167","350125","0.0-1.0-247.0","0","0","95423","","87","","","68","27","","d","1","27","training","adjacent","DC","4","3","N.jpg","Q.jpg","0","0","1","",""
"","feedback","","html-keyboard-response","168","351131","0.0-1.0-249.0-0.0","0","0","95423","","null","","","null","27","","","","","","","","","","","","","","","",""
"","ITI","","html-keyboard-response","169","352138","0.0-1.0-252.0","0","0","95423","","null","","","null","27","","","","","","","","","","","","","","","NaN",""
"","S1","","html-keyboard-response","170","352392","0.0-1.0-254.0","0","0","95423","","null","","","null","28","","","","","","","","","","","","","","","",""
"","ISI","","html-keyboard-response","171","352896","0.0-1.0-255.0","0","0","95423","","265","","","75","28","k","","","","","","","","","","","","","","",""
"","S2","","html-keyboard-response","172","352987","0.0-1.0-256.0","0","0","95423","","84","","","68","28","","d","1","28","training","adjacent","GF","7","6","P.jpg","R.jpg","0","0","1","",""
"","feedback","","html-keyboard-response","173","353993","0.0-1.0-258.0-0.0","0","0","95423","","null","","","null","28","","","","","","","","","","","","","","","",""
"","ITI","","html-keyboard-response","174","354999","0.0-1.0-261.0","0","0","95423","","969","","","68","28","","","","","","","","","","","","","","","d",""
"","S1","","html-keyboard-response","175","355255","0.0-1.0-263.0","0","0","95423","","null","","","null","29","","","","","","","","","","","","","","","",""
"","ISI","","html-keyboard-response","176","355758","0.0-1.0-264.0","0","0","95423","","92","","","68","29","d","","","","","","","","","","","","","","",""
"","S2","","html-keyboard-response","177","355832","0.0-1.0-265.0","0","0","95423","","70","","","75","29","","k","1","29","training","adjacent","BA","2","1","M.jpg","O.jpg","1","0","0","",""
"","feedback","","html-keyboard-response","178","356835","0.0-1.0-267.0-0.0","0","0","95423","","null","","","null","29","","","","","","","","","","","","","","","",""
"","time_out","","html-keyboard-response","179","358841","0.0-1.0-269.0-0.0","0","0","95423","","null","","","null","29","","","","","","","","","","","","","","","",""
"","ITI","","html-keyboard-response","180","359851","0.0-1.0-270.0","0","0","95423","","null","","","null","29","","","","","","","","","","","","","","","NaN",""
"","S1","","html-keyboard-response","181","360134","0.0-1.0-272.0","0","0","95423","","null","","","null","30","","","","","","","","","","","","","","","",""
"","ISI","","html-keyboard-response","182","360650","0.0-1.0-273.0","0","0","95423","","11","","","75","30","k","","","","","","","","","","","","","","",""
"","S2","","html-keyboard-response","183","360699","0.0-1.0-274.0","0","0","95423","","46","","","75","30","","k","1","30","training","adjacent","FG","6","7","R.jpg","P.jpg","1","1","1","",""
"","feedback","","html-keyboard-response","184","361703","0.0-1.0-276.0-0.0","0","0","95423","","null","","","null","30","","","","","","","","","","","","","","","",""
"","ITI","","html-keyboard-response","185","362707","0.0-1.0-279.0","0","0","95423","","null","","","null","30","","","","","","","","","","","","","","","NaN",""
"","S1","","html-keyboard-response","186","362961","0.0-1.0-281.0","0","0","95423","","null","","","null","31","","","","","","","","","","","","","","","",""
"","ISI","","html-keyboard-response","187","363471","0.0-1.0-282.0","0","0","95423","","20","","","75","31","k","","","","","","","","","","","","","","",""
"","S2","","html-keyboard-response","188","363478","0.0-1.0-283.0","0","0","95423","","4","","","75","31","","k","1","31","training","adjacent","FE","6","5","R.jpg","L.jpg","1","0","0","",""
"","feedback","","html-keyboard-response","189","364484","0.0-1.0-285.0-0.0","0","0","95423","","null","","","null","31","","","","","","","","","","","","","","","",""
"","time_out","","html-keyboard-response","190","366489","0.0-1.0-287.0-0.0","0","0","95423","","null","","","null","31","","","","","","","","","","","","","","","",""
"","ITI","","html-keyboard-response","191","367492","0.0-1.0-288.0","0","0","95423","","69","","","68","31","","","","","","","","","","","","","","","d",""
"","S1","","html-keyboard-response","192","367746","0.0-1.0-290.0","0","0","95423","","null","","","null","32","","","","","","","","","","","","","","","",""
"","ISI","","html-keyboard-response","193","368249","0.0-1.0-291.0","0","0","95423","","106","","","68","32","d","","","","","","","","","","","","","","",""
"","S2","","html-keyboard-response","194","368291","0.0-1.0-292.0","0","0","95423","","39","","","75","32","","k","1","32","training","adjacent","EF","5","6","L.jpg","R.jpg","1","1","1","",""
"","feedback","","html-keyboard-response","195","369305","0.0-1.0-294.0-0.0","0","0","95423","","null","","","null","32","","","","","","","","","","","","","","","",""
"","ITI","","html-keyboard-response","196","370311","0.0-1.0-297.0","0","0","95423","","null","","","null","32","","","","","","","","","","","","","","","NaN",""
"","S1","","html-keyboard-response","197","370568","0.0-1.0-299.0","0","0","95423","","null","","","null","33","","","","","","","","","","","","","","","",""
"","ISI","","html-keyboard-response","198","371071","0.0-1.0-300.0","0","0","95423","","301","","","75","33","k","","","","","","","","","","","","","","",""
"","S2","","html-keyboard-response","199","371092","0.0-1.0-301.0","0","0","95423","","18","","","75","33","","k","1","33","training","adjacent","FE","6","5","R.jpg","L.jpg","1","0","0","",""
"","feedback","","html-keyboard-response","200","372099","0.0-1.0-303.0-0.0","0","0","95423","","null","","","null","33","","","","","","","","","","","","","","","",""
"","time_out","","html-keyboard-response","201","374103","0.0-1.0-305.0-0.0","0","0","95423","","null","","","null","33","","","","","","","","","","","","","","","",""
"","ITI","","html-keyboard-response","202","375110","0.0-1.0-306.0","0","0","95423","","null","","","null","33","","","","","","","","","","","","","","","NaN",""
"","S1","","html-keyboard-response","203","375365","0.0-1.0-308.0","0","0","95423","","null","","","null","34","","","","","","","","","","","","","","","",""
"","ISI","","html-keyboard-response","204","375869","0.0-1.0-309.0","0","0","95423","","6","","","75","34","k","","","","","","","","","","","","","","",""
"","S2","","html-keyboard-response","205","375942","0.0-1.0-310.0","0","0","95423","","69","","","68","34","","d","1","34","training","adjacent","FE","6","5","R.jpg","L.jpg","0","0","1","",""
"","feedback","","html-keyboard-response","206","376947","0.0-1.0-312.0-0.0","0","0","95423","","null","","","null","34","","","","","","","","","","","","","","","",""
"","ITI","","html-keyboard-response","207","377952","0.0-1.0-315.0","0","0","95423","","909","","","75","34","","","","","","","","","","","","","","","k",""
"","S1","","html-keyboard-response","208","378206","0.0-1.0-317.0","0","0","95423","","null","","","null","35","","","","","","","","","","","","","","","",""
"","ISI","","html-keyboard-response","209","378711","0.0-1.0-318.0","0","0","95423","","73","","","75","35","k","","","","","","","","","","","","","","",""
"","S2","","html-keyboard-response","210","378854","0.0-1.0-319.0","0","0","95423","","139","","","68","35","","d","1","35","training","adjacent","FE","6","5","R.jpg","L.jpg","0","0","1","",""
"","feedback","","html-keyboard-response","211","379867","0.0-1.0-321.0-0.0","0","0","95423","","null","","","null","35","","","","","","","","","","","","","","","",""
"","ITI","","html-keyboard-response","212","380873","0.0-1.0-324.0","0","0","95423","","84","","","75","35","","","","","","","","","","","","","","","k",""
"","S1","","html-keyboard-response","213","381128","0.0-1.0-326.0","0","0","95423","","null","","","null","36","","","","","","","","","","","","","","","",""
"","ISI","","html-keyboard-response","214","381633","0.0-1.0-327.0","0","0","95423","","53","","","68","36","d","","","","","","","","","","","","","","",""
"","S2","","html-keyboard-response","215","381638","0.0-1.0-328.0","0","0","95423","","1","","","75","36","","k","1","36","training","adjacent","EF","5","6","L.jpg","R.jpg","1","1","1","",""
"","feedback","","html-keyboard-response","216","382654","0.0-1.0-330.0-0.0","0","0","95423","","null","","","null","36","","","","","","","","","","","","","","","",""
"","ITI","","html-keyboard-response","217","383659","0.0-1.0-333.0","0","0","95423","","null","","","null","36","","","","","","","","","","","","","","","NaN",""
"","S1","","html-keyboard-response","218","383913","0.0-1.0-335.0","0","0","95423","","null","","","null","37","","","","","","","","","","","","","","","",""
"","ISI","","html-keyboard-response","219","384416","0.0-1.0-336.0","0","0","95423","","89","","","75","37","k","","","","","","","","","","","","","","",""
"","S2","","html-keyboard-response","220","384592","0.0-1.0-337.0","0","0","95423","","170","","","68","37","","d","1","37","training","adjacent","FG","6","7","R.jpg","P.jpg","0","1","0","",""
"","feedback","","html-keyboard-response","221","385597","0.0-1.0-339.0-0.0","0","0","95423","","null","","","null","37","","","","","","","","","","","","","","","",""
"","time_out","","html-keyboard-response","222","387602","0.0-1.0-341.0-0.0","0","0","95423","","null","","","null","37","","","","","","","","","","","","","","","",""
"","ITI","","html-keyboard-response","223","388608","0.0-1.0-342.0","0","0","95423","","167","","","75","37","","","","","","","","","","","","","","","k",""
"","S1","","html-keyboard-response","224","388864","0.0-1.0-344.0","0","0","95423","","null","","","null","38","","","","","","","","","","","","","","","",""
"","ISI","","html-keyboard-response","225","389373","0.0-1.0-345.0","0","0","95423","","66","","","75","38","k","","","","","","","","","","","","","","",""
"","S2","","html-keyboard-response","226","389544","0.0-1.0-346.0","0","0","95423","","167","","","75","38","","k","1","38","training","adjacent","BA","2","1","M.jpg","O.jpg","1","0","0","",""
"","feedback","","html-keyboard-response","227","390550","0.0-1.0-348.0-0.0","0","0","95423","","null","","","null","38","","","","","","","","","","","","","","","",""
"","time_out","","html-keyboard-response","228","392555","0.0-1.0-350.0-0.0","0","0","95423","","null","","","null","38","","","","","","","","","","","","","","","",""
"","ITI","","html-keyboard-response","229","393559","0.0-1.0-351.0","0","0","95423","","null","","","null","38","","","","","","","","","","","","","","","NaN",""
"","S1","","html-keyboard-response","230","393818","0.0-1.0-353.0","0","0","95423","","null","","","null","39","","","","","","","","","","","","","","","",""
"","ISI","","html-keyboard-response","231","394322","0.0-1.0-354.0","0","0","95423","","null","","","null","39","NaN","","","","","","","","","","","","","","",""
"","S2","","html-keyboard-response","232","394577","0.0-1.0-355.0","0","0","95423","","null","","","null","39","","NaN","","","","","","","","","","","","","",""
"","response","","html-keyboard-response","233","396331","0.0-1.0-356.0-0.0","0","0","95423","","null","","","null","39","","","1","39","training","adjacent","FG","6","7","R.jpg","P.jpg","NaN","1","0","",""
"","too_slow_prompt","","html-keyboard-response","234","397344","0.0-1.0-358.0-0.0","1","0","95423","","null","","","null","","","","","","","","","","","","","","","","",""
"","time_out","","html-keyboard-response","235","399433","0.0-1.0-359.0-0.0","0","0","95423","","null","","","null","39","","","","","","","","","","","","","","","",""
"","ITI","","html-keyboard-response","236","400452","0.0-1.0-360.0","0","0","95423","","null","","","null","39","","","","","","","","","","","","","","","NaN",""
"","S1","","html-keyboard-response","237","400706","0.0-1.0-362.0","0","0","95423","","null","","","null","40","","","","","","","","","","","","","","","",""
"","ISI","","html-keyboard-response","238","401214","0.0-1.0-363.0","0","0","95423","","null","","","null","40","NaN","","","","","","","","","","","","","","",""
"","S2","","html-keyboard-response","239","401469","0.0-1.0-364.0","0","0","95423","","null","","","null","40","","NaN","","","","","","","","","","","","","",""
"","response","","html-keyboard-response","240","403224","0.0-1.0-365.0-0.0","0","0","95423","","null","","","null","40","","","1","40","training","adjacent","FG","6","7","R.jpg","P.jpg","NaN","1","0","",""
"","too_slow_prompt","","html-keyboard-response","241","404229","0.0-1.0-367.0-0.0","1","0","95423","","null","","","null","","","","","","","","","","","","","","","","",""
"","time_out","","html-keyboard-response","242","406235","0.0-1.0-368.0-0.0","0","0","95423","","null","","","null","40","","","","","","","","","","","","","","","",""
"","ITI","","html-keyboard-response","243","407241","0.0-1.0-369.0","0","0","95423","","null","","","null","40","","","","","","","","","","","","","","","NaN",""
"","S1","","html-keyboard-response","244","407496","0.0-1.0-371.0","0","0","95423","","null","","","null","41","","","","","","","","","","","","","","","",""
"","ISI","","html-keyboard-response","245","408001","0.0-1.0-372.0","0","0","95423","","null","","","null","41","NaN","","","","","","","","","","","","","","",""
"","S2","","html-keyboard-response","246","408254","0.0-1.0-373.0","0","0","95423","","null","","","null","41","","NaN","","","","","","","","","","","","","",""
"","response","","html-keyboard-response","247","410016","0.0-1.0-374.0-0.0","0","0","95423","","null","","","null","41","","","1","41","training","adjacent","DE","4","5","N.jpg","L.jpg","NaN","1","0","",""
"","too_slow_prompt","","html-keyboard-response","248","411026","0.0-1.0-376.0-0.0","1","0","95423","","null","","","null","","","","","","","","","","","","","","","","",""
"","time_out","","html-keyboard-response","249","413031","0.0-1.0-377.0-0.0","0","0","95423","","null","","","null","41","","","","","","","","","","","","","","","",""
"","ITI","","html-keyboard-response","250","414041","0.0-1.0-378.0","0","0","95423","","null","","","null","41","","","","","","","","","","","","","","","NaN",""
"","S1","","html-keyboard-response","251","414295","0.0-1.0-380.0","0","0","95423","","null","","","null","42","","","","","","","","","","","","","","","",""
"","ISI","","html-keyboard-response","252","414798","0.0-1.0-381.0","0","0","95423","","null","","","null","42","NaN","","","","","","","","","","","","","","",""
"","S2","","html-keyboard-response","253","415056","0.0-1.0-382.0","0","0","95423","","null","","","null","42","","NaN","","","","","","","","","","","","","",""
"","response","","html-keyboard-response","254","415138","0.0-1.0-383.0-0.0","0","0","95423","","79","","","75","42","","","1","42","training","adjacent","DC","4","3","N.jpg","Q.jpg","1","0","0","",""
"","feedback","","html-keyboard-response","255","416145","0.0-1.0-384.0-0.0","0","0","95423","","null","","","null","42","","","","","","","","","","","","","","","",""
"","time_out","","html-keyboard-response","256","418149","0.0-1.0-386.0-0.0","0","0","95423","","null","","","null","42","","","","","","","","","","","","","","","",""
"","ITI","","html-keyboard-response","257","419154","0.0-1.0-387.0","0","0","95423","","21","","","75","42","","","","","","","","","","","","","","","k",""
"","S1","","html-keyboard-response","258","419410","0.0-1.0-389.0","0","0","95423","","null","","","null","43","","","","","","","","","","","","","","","",""
"","ISI","","html-keyboard-response","259","419917","0.0-1.0-390.0","0","0","95423","","67","","","68","43","d","","","","","","","","","","","","","","",""
"","S2","","html-keyboard-response","260","419944","0.0-1.0-391.0","0","0","95423","","22","","","75","43","","k","1","43","training","adjacent","BA","2","1","M.jpg","O.jpg","1","0","0","",""
"","feedback","","html-keyboard-response","261","420949","0.0-1.0-393.0-0.0","0","0","95423","","null","","","null","43","","","","","","","","","","","","","","","",""
"","time_out","","html-keyboard-response","262","422954","0.0-1.0-395.0-0.0","0","0","95423","","null","","","null","43","","","","","","","","","","","","","","","",""
"","ITI","","html-keyboard-response","263","423957","0.0-1.0-396.0","0","0","95423","","2","","","68","43","","","","","","","","","","","","","","","d",""
"","S1","","html-keyboard-response","264","424214","0.0-1.0-398.0","0","0","95423","","null","","","null","44","","","","","","","","","","","","","","","",""
"","ISI","","html-keyboard-response","265","424719","0.0-1.0-399.0","0","0","95423","","36","","","75","44","k","","","","","","","","","","","","","","",""
"","S2","","html-keyboard-response","266","424858","0.0-1.0-400.0","0","0","95423","","134","","","68","44","","d","1","44","training","adjacent","CB","3","2","Q.jpg","M.jpg","0","0","1","",""
"","feedback","","html-keyboard-response","267","425865","0.0-1.0-402.0-0.0","0","0","95423","","null","","","null","44","","","","","","","","","","","","","","","",""
"","ITI","","html-keyboard-response","268","426869","0.0-1.0-405.0","0","0","95423","","141","","","68","44","","","","","","","","","","","","","","","d",""
"","S1","","html-keyboard-response","269","427122","0.0-1.0-407.0","0","0","95423","","null","","","null","45","","","","","","","","","","","","","","","",""
"","ISI","","html-keyboard-response","270","427627","0.0-1.0-408.0","0","0","95423","","98","","","68","45","d","","","","","","","","","","","","","","",""
"","S2","","html-keyboard-response","271","427671","0.0-1.0-409.0","0","0","95423","","41","","","75","45","","k","1","45","training","adjacent","ED","5","4","L.jpg","N.jpg","1","0","0","",""
"","feedback","","html-keyboard-response","272","428678","0.0-1.0-411.0-0.0","0","0","95423","","null","","","null","45","","","","","","","","","","","","","","","",""
"","time_out","","html-keyboard-response","273","430685","0.0-1.0-413.0-0.0","0","0","95423","","null","","","null","45","","","","","","","","","","","","","","","",""
"","ITI","","html-keyboard-response","274","431692","0.0-1.0-414.0","0","0","95423","","11","","","68","45","","","","","","","","","","","","","","","d",""
"","S1","","html-keyboard-response","275","431947","0.0-1.0-416.0","0","0","95423","","null","","","null","46","","","","","","","","","","","","","","","",""
"","ISI","","html-keyboard-response","276","432451","0.0-1.0-417.0","0","0","95423","","153","","","75","46","k","","","","","","","","","","","","","","",""
"","S2","","html-keyboard-response","277","432474","0.0-1.0-418.0","0","0","95423","","19","","","75","46","","k","1","46","training","adjacent","GF","7","6","P.jpg","R.jpg","1","0","0","",""
"","feedback","","html-keyboard-response","278","433478","0.0-1.0-420.0-0.0","0","0","95423","","null","","","null","46","","","","","","","","","","","","","","","",""
"","time_out","","html-keyboard-response","279","435482","0.0-1.0-422.0-0.0","0","0","95423","","null","","","null","46","","","","","","","","","","","","","","","",""
"","ITI","","html-keyboard-response","280","436485","0.0-1.0-423.0","0","0","95423","","5","","","75","46","","","","","","","","","","","","","","","k",""
"","S1","","html-keyboard-response","281","436739","0.0-1.0-425.0","0","0","95423","","null","","","null","47","","","","","","","","","","","","","","","",""
"","ISI","","html-keyboard-response","282","437245","0.0-1.0-426.0","0","0","95423","","8","","","68","47","d","","","","","","","","","","","","","","",""
"","S2","","html-keyboard-response","283","437336","0.0-1.0-427.0","0","0","95423","","84","","","75","47","","k","1","47","training","adjacent","GF","7","6","P.jpg","R.jpg","1","0","0","",""
"","feedback","","html-keyboard-response","284","438343","0.0-1.0-429.0-0.0","0","0","95423","","null","","","null","47","","","","","","","","","","","","","","","",""
"","time_out","","html-keyboard-response","285","440351","0.0-1.0-431.0-0.0","0","0","95423","","null","","","null","47","","","","","","","","","","","","","","","",""
"","ITI","","html-keyboard-response","286","441357","0.0-1.0-432.0","0","0","95423","","1","","","75","47","","","","","","","","","","","","","","","k",""
"","block_over","","html-keyboard-response","287","450006","0.0-1.0-433.0-0.0","0","0","95423","","8637","","","32","47","","","","","","","","","","","","","","","",""
"","S1","","html-keyboard-response","288","450259","0.0-1.0-434.0","0","0","95423","","null","","","null","48","","","","","","","","","","","","","","","",""
"","ISI","","html-keyboard-response","289","450763","0.0-1.0-435.0","0","0","95423","","null","","","null","48","NaN","","","","","","","","","","","","","","",""
"","S2","","html-keyboard-response","290","451018","0.0-1.0-436.0","0","0","95423","","null","","","null","48","","NaN","","","","","","","","","","","","","",""
"","response","","html-keyboard-response","291","451803","0.0-1.0-437.0-0.0","0","0","95423","","780","","","75","48","","","2","48","training","adjacent","BC","2","3","M.jpg","Q.jpg","1","1","1","",""
"","feedback","","html-keyboard-response","292","452807","0.0-1.0-438.0-0.0","0","0","95423","","null","","","null","48","","","","","","","","","","","","","","","",""
"","ITI","","html-keyboard-response","293","453814","0.0-1.0-441.0","0","0","95423","","132","","","75","48","","","","","","","","","","","","","","","k",""
"","S1","","html-keyboard-response","294","454078","0.0-1.0-443.0","0","0","95423","","null","","","null","49","","","","","","","","","","","","","","","",""
"","ISI","","html-keyboard-response","295","454584","0.0-1.0-444.0","0","0","95423","","80","","","68","49","d","","","","","","","","","","","","","","",""
"","S2","","html-keyboard-response","296","454716","0.0-1.0-445.0","0","0","95423","","123","","","75","49","","k","2","49","training","adjacent","ED","5","4","L.jpg","N.jpg","1","0","0","",""
"","feedback","","html-keyboard-response","297","455720","0.0-1.0-447.0-0.0","0","0","95423","","null","","","null","49","","","","","","","","","","","","","","","",""
"","time_out","","html-keyboard-response","298","457726","0.0-1.0-449.0-0.0","0","0","95423","","null","","","null","49","","","","","","","","","","","","","","","",""
"","ITI","","html-keyboard-response","299","458734","0.0-1.0-450.0","0","0","95423","","115","","","68","49","","","","","","","","","","","","","","","d",""
"","S1","","html-keyboard-response","300","458990","0.0-1.0-452.0","0","0","95423","","null","","","null","50","","","","","","","","","","","","","","","",""
"","ISI","","html-keyboard-response","301","459501","0.0-1.0-453.0","0","0","95423","","30","","","68","50","d","","","","","","","","","","","","","","",""
"","S2","","html-keyboard-response","302","459605","0.0-1.0-454.0","0","0","95423","","99","","","68","50","","d","2","50","training","adjacent","FG","6","7","R.jpg","P.jpg","0","1","0","",""
"","feedback","","html-keyboard-response","303","460612","0.0-1.0-456.0-0.0","0","0","95423","","null","","","null","50","","","","","","","","","","","","","","","",""
"","time_out","","html-keyboard-response","304","462617","0.0-1.0-458.0-0.0","0","0","95423","","null","","","null","50","","","","","","","","","","","","","","","",""
"","ITI","","html-keyboard-response","305","463622","0.0-1.0-459.0","0","0","95423","","471","","","75","50","","","","","","","","","","","","","","","k",""
"","S1","","html-keyboard-response","306","463877","0.0-1.0-461.0","0","0","95423","","null","","","null","51","","","","","","","","","","","","","","","",""
"","ISI","","html-keyboard-response","307","464384","0.0-1.0-462.0","0","0","95423","","35","","","75","51","k","","","","","","","","","","","","","","",""
"","S2","","html-keyboard-response","308","464388","0.0-1.0-463.0","0","0","95423","","1","","","75","51","","k","2","51","training","adjacent","DE","4","5","N.jpg","L.jpg","1","1","1","",""
"","feedback","","html-keyboard-response","309","465414","0.0-1.0-465.0-0.0","0","0","95423","","null","","","null","51","","","","","","","","","","","","","","","",""
"","ITI","","html-keyboard-response","310","466419","0.0-1.0-468.0","0","0","95423","","23","","","68","51","","","","","","","","","","","","","","","d",""
"","S1","","html-keyboard-response","311","466674","0.0-1.0-470.0","0","0","95423","","null","","","null","52","","","","","","","","","","","","","","","",""
"","ISI","","html-keyboard-response","312","467181","0.0-1.0-471.0","0","0","95423","","426","","","75","52","k","","","","","","","","","","","","","","",""
"","S2","","html-keyboard-response","313","467198","0.0-1.0-472.0","0","0","95423","","13","","","68","52","","d","2","52","training","adjacent","AB","1","2","O.jpg","M.jpg","0","1","0","",""
"","feedback","","html-keyboard-response","314","468285","0.0-1.0-474.0-0.0","0","0","95423","","null","","","null","52","","","","","","","","","","","","","","","",""
"","time_out","","html-keyboard-response","315","470293","0.0-1.0-476.0-0.0","0","0","95423","","null","","","null","52","","","","","","","","","","","","","","","",""
"","ITI","","html-keyboard-response","316","471297","0.0-1.0-477.0","0","0","95423","","15","","","75","52","","","","","","","","","","","","","","","k",""
"","S1","","html-keyboard-response","317","471552","0.0-1.0-479.0","0","0","95423","","null","","","null","53","","","","","","","","","","","","","","","",""
"","ISI","","html-keyboard-response","318","472055","0.0-1.0-480.0","0","0","95423","","8","","","68","53","d","","","","","","","","","","","","","","",""
"","S2","","html-keyboard-response","319","472130","0.0-1.0-481.0","0","0","95423","","73","","","75","53","","k","2","53","training","adjacent","FE","6","5","R.jpg","L.jpg","1","0","0","",""
"","feedback","","html-keyboard-response","320","473137","0.0-1.0-483.0-0.0","0","0","95423","","null","","","null","53","","","","","","","","","","","","","","","",""
"","time_out","","html-keyboard-response","321","475152","0.0-1.0-485.0-0.0","0","0","95423","","null","","","null","53","","","","","","","","","","","","","","","",""
"","ITI","","html-keyboard-response","322","476157","0.0-1.0-486.0","0","0","95423","","186","","","75","53","","","","","","","","","","","","","","","k",""
"","S1","","html-keyboard-response","323","476412","0.0-1.0-488.0","0","0","95423","","null","","","null","54","","","","","","","","","","","","","","","",""
"","ISI","","html-keyboard-response","324","476916","0.0-1.0-489.0","0","0","95423","","248","","","68","54","d","","","","","","","","","","","","","","",""
"","S2","","html-keyboard-response","325","476979","0.0-1.0-490.0","0","0","95423","","57","","","75","54","","k","2","54","training","adjacent","CD","3","4","Q.jpg","N.jpg","1","1","1","",""
"","feedback","","html-keyboard-response","326","477985","0.0-1.0-492.0-0.0","0","0","95423","","null","","","null","54","","","","","","","","","","","","","","","",""
"","ITI","","html-keyboard-response","327","478991","0.0-1.0-495.0","0","0","95423","","123","","","68","54","","","","","","","","","","","","","","","d",""
"","S1","","html-keyboard-response","328","479247","0.0-1.0-497.0","0","0","95423","","null","","","null","55","","","","","","","","","","","","","","","",""
"","ISI","","html-keyboard-response","329","479753","0.0-1.0-498.0","0","0","95423","","132","","","68","55","d","","","","","","","","","","","","","","",""
"","S2","","html-keyboard-response","330","479941","0.0-1.0-499.0","0","0","95423","","184","","","75","55","","k","2","55","training","adjacent","ED","5","4","L.jpg","N.jpg","1","0","0","",""
"","feedback","","html-keyboard-response","331","480946","0.0-1.0-501.0-0.0","0","0","95423","","null","","","null","55","","","","","","","","","","","","","","","",""
"","time_out","","html-keyboard-response","332","482952","0.0-1.0-503.0-0.0","0","0","95423","","null","","","null","55","","","","","","","","","","","","","","","",""
"","ITI","","html-keyboard-response","333","483955","0.0-1.0-504.0","0","0","95423","","107","","","75","55","","","","","","","","","","","","","","","k",""
"","S1","","html-keyboard-response","334","484211","0.0-1.0-506.0","0","0","95423","","null","","","null","56","","","","","","","","","","","","","","","",""
"","ISI","","html-keyboard-response","335","484719","0.0-1.0-507.0","0","0","95423","","17","","","75","56","k","","","","","","","","","","","","","","",""
"","S2","","html-keyboard-response","336","484792","0.0-1.0-508.0","0","0","95423","","68","","","75","56","","k","2","56","training","adjacent","CB","3","2","Q.jpg","M.jpg","1","0","0","",""
"","feedback","","html-keyboard-response","337","485796","0.0-1.0-510.0-0.0","0","0","95423","","null","","","null","56","","","","","","","","","","","","","","","",""
"","time_out","","html-keyboard-response","338","487801","0.0-1.0-512.0-0.0","0","0","95423","","null","","","null","56","","","","","","","","","","","","","","","",""
"","ITI","","html-keyboard-response","339","488805","0.0-1.0-513.0","0","0","95423","","217","","","68","56","","","","","","","","","","","","","","","d",""
"","S1","","html-keyboard-response","340","489066","0.0-1.0-515.0","0","0","95423","","null","","","null","57","","","","","","","","","","","","","","","",""
"","ISI","","html-keyboard-response","341","489570","0.0-1.0-516.0","0","0","95423","","350","","","75","57","k","","","","","","","","","","","","","","",""
"","S2","","html-keyboard-response","342","489701","0.0-1.0-517.0","0","0","95423","","127","","","68","57","","d","2","57","training","adjacent","EF","5","6","L.jpg","R.jpg","0","1","0","",""
"","feedback","","html-keyboard-response","343","490707","0.0-1.0-519.0-0.0","0","0","95423","","null","","","null","57","","","","","","","","","","","","","","","",""
"","time_out","","html-keyboard-response","344","492712","0.0-1.0-521.0-0.0","0","0","95423","","null","","","null","57","","","","","","","","","","","","","","","",""
"","ITI","","html-keyboard-response","345","493717","0.0-1.0-522.0","0","0","95423","","85","","","68","57","","","","","","","","","","","","","","","d",""
"","S1","","html-keyboard-response","346","493977","0.0-1.0-524.0","0","0","95423","","null","","","null","58","","","","","","","","","","","","","","","",""
"","ISI","","html-keyboard-response","347","494482","0.0-1.0-525.0","0","0","95423","","352","","","75","58","k","","","","","","","","","","","","","","",""
"","S2","","html-keyboard-response","348","494542","0.0-1.0-526.0","0","0","95423","","55","","","68","58","","d","2","58","training","adjacent","FG","6","7","R.jpg","P.jpg","0","1","0","",""
"","feedback","","html-keyboard-response","349","495547","0.0-1.0-528.0-0.0","0","0","95423","","null","","","null","58","","","","","","","","","","","","","","","",""
"","time_out","","html-keyboard-response","350","497554","0.0-1.0-530.0-0.0","0","0","95423","","null","","","null","58","","","","","","","","","","","","","","","",""
"","ITI","","html-keyboard-response","351","498559","0.0-1.0-531.0","0","0","95423","","95","","","68","58","","","","","","","","","","","","","","","d",""
"","S1","","html-keyboard-response","352","498815","0.0-1.0-533.0","0","0","95423","","null","","","null","59","","","","","","","","","","","","","","","",""
"","ISI","","html-keyboard-response","353","499319","0.0-1.0-534.0","0","0","95423","","28","","","75","59","k","","","","","","","","","","","","","","",""
"","S2","","html-keyboard-response","354","499415","0.0-1.0-535.0","0","0","95423","","91","","","75","59","","k","2","59","training","adjacent","DE","4","5","N.jpg","L.jpg","1","1","1","",""
"","feedback","","html-keyboard-response","355","500421","0.0-1.0-537.0-0.0","0","0","95423","","null","","","null","59","","","","","","","","","","","","","","","",""
"","ITI","","html-keyboard-response","356","501434","0.0-1.0-540.0","0","0","95423","","97","","","68","59","","","","","","","","","","","","","","","d",""
"","S1","","html-keyboard-response","357","501689","0.0-1.0-542.0","0","0","95423","","null","","","null","60","","","","","","","","","","","","","","","",""
"","ISI","","html-keyboard-response","358","502190","0.0-1.0-543.0","0","0","95423","","49","","","75","60","k","","","","","","","","","","","","","","",""
"","S2","","html-keyboard-response","359","502231","0.0-1.0-544.0","0","0","95423","","37","","","75","60","","k","2","60","training","adjacent","FG","6","7","R.jpg","P.jpg","1","1","1","",""
"","feedback","","html-keyboard-response","360","503237","0.0-1.0-546.0-0.0","0","0","95423","","null","","","null","60","","","","","","","","","","","","","","","",""
"","ITI","","html-keyboard-response","361","504252","0.0-1.0-549.0","0","0","95423","","92","","","75","60","","","","","","","","","","","","","","","k",""
"","S1","","html-keyboard-response","362","504510","0.0-1.0-551.0","0","0","95423","","null","","","null","61","","","","","","","","","","","","","","","",""
"","ISI","","html-keyboard-response","363","505014","0.0-1.0-552.0","0","0","95423","","67","","","75","61","k","","","","","","","","","","","","","","",""
"","S2","","html-keyboard-response","364","505041","0.0-1.0-553.0","0","0","95423","","21","","","68","61","","d","2","61","training","adjacent","BA","2","1","M.jpg","O.jpg","0","0","1","",""
"","feedback","","html-keyboard-response","365","506047","0.0-1.0-555.0-0.0","0","0","95423","","null","","","null","61","","","","","","","","","","","","","","","",""
"","ITI","","html-keyboard-response","366","507053","0.0-1.0-558.0","0","0","95423","","51","","","68","61","","","","","","","","","","","","","","","d",""
"","S1","","html-keyboard-response","367","507307","0.0-1.0-560.0","0","0","95423","","null","","","null","62","","","","","","","","","","","","","","","",""
"","ISI","","html-keyboard-response","368","507813","0.0-1.0-561.0","0","0","95423","","2","","","68","62","d","","","","","","","","","","","","","","",""
"","S2","","html-keyboard-response","369","507838","0.0-1.0-562.0","0","0","95423","","21","","","68","62","","d","2","62","training","adjacent","BA","2","1","M.jpg","O.jpg","0","0","1","",""
"","feedback","","html-keyboard-response","370","508843","0.0-1.0-564.0-0.0","0","0","95423","","null","","","null","62","","","","","","","","","","","","","","","",""
"","ITI","","html-keyboard-response","371","509850","0.0-1.0-567.0","0","0","95423","","109","","","68","62","","","","","","","","","","","","","","","d",""
"","S1","","html-keyboard-response","372","510105","0.0-1.0-569.0","0","0","95423","","null","","","null","63","","","","","","","","","","","","","","","",""
"","ISI","","html-keyboard-response","373","510619","0.0-1.0-570.0","0","0","95423","","null","","","null","63","NaN","","","","","","","","","","","","","","",""
"","S2","","html-keyboard-response","374","510905","0.0-1.0-571.0","0","0","95423","","null","","","null","63","","NaN","","","","","","","","","","","","","",""
"","response","","html-keyboard-response","375","511153","0.0-1.0-572.0-0.0","0","0","95423","","243","","","75","63","","","2","63","training","adjacent","EF","5","6","L.jpg","R.jpg","1","1","1","",""
"","feedback","","html-keyboard-response","376","512194","0.0-1.0-573.0-0.0","0","0","95423","","null","","","null","63","","","","","","","","","","","","","","","",""
"","ITI","","html-keyboard-response","377","513206","0.0-1.0-576.0","0","0","95423","","14","","","68","63","","","","","","","","","","","","","","","d",""
"","S1","","html-keyboard-response","378","513461","0.0-1.0-578.0","0","0","95423","","null","","","null","64","","","","","","","","","","","","","","","",""
"","ISI","","html-keyboard-response","379","513964","0.0-1.0-579.0","0","0","95423","","95","","","75","64","k","","","","","","","","","","","","","","",""
"","S2","","html-keyboard-response","380","514177","0.0-1.0-580.0","0","0","95423","","209","","","68","64","","d","2","64","training","adjacent","DC","4","3","N.jpg","Q.jpg","0","0","1","",""
"","feedback","","html-keyboard-response","381","515186","0.0-1.0-582.0-0.0","0","0","95423","","null","","","null","64","","","","","","","","","","","","","","","",""
"","ITI","","html-keyboard-response","382","516192","0.0-1.0-585.0","0","0","95423","","91","","","68","64","","","","","","","","","","","","","","","d",""
"","S1","","html-keyboard-response","383","516454","0.0-1.0-587.0","0","0","95423","","null","","","null","65","","","","","","","","","","","","","","","",""
"","ISI","","html-keyboard-response","384","516958","0.0-1.0-588.0","0","0","95423","","126","","","68","65","d","","","","","","","","","","","","","","",""
"","S2","","html-keyboard-response","385","517018","0.0-1.0-589.0","0","0","95423","","56","","","68","65","","d","2","65","training","adjacent","CD","3","4","Q.jpg","N.jpg","0","1","0","",""
"","feedback","","html-keyboard-response","386","518042","0.0-1.0-591.0-0.0","0","0","95423","","null","","","null","65","","","","","","","","","","","","","","","",""
"","time_out","","html-keyboard-response","387","520051","0.0-1.0-593.0-0.0","0","0","95423","","null","","","null","65","","","","","","","","","","","","","","","",""
"","ITI","","html-keyboard-response","388","521096","0.0-1.0-594.0","0","0","95423","","179","","","68","65","","","","","","","","","","","","","","","d",""
"","S1","","html-keyboard-response","389","521350","0.0-1.0-596.0","0","0","95423","","null","","","null","66","","","","","","","","","","","","","","","",""
"","ISI","","html-keyboard-response","390","521881","0.0-1.0-597.0","0","0","95423","","66","","","68","66","d","","","","","","","","","","","","","","",""
"","S2","","html-keyboard-response","391","521886","0.0-1.0-598.0","0","0","95423","","2","","","68","66","","d","2","66","training","adjacent","ED","5","4","L.jpg","N.jpg","0","0","1","",""
"","feedback","","html-keyboard-response","392","522889","0.0-1.0-600.0-0.0","0","0","95423","","null","","","null","66","","","","","","","","","","","","","","","",""
"","ITI","","html-keyboard-response","393","523892","0.0-1.0-603.0","0","0","95423","","107","","","75","66","","","","","","","","","","","","","","","k",""
"","S1","","html-keyboard-response","394","524303","0.0-1.0-605.0","0","0","95423","","null","","","null","67","","","","","","","","","","","","","","","",""
"","ISI","","html-keyboard-response","395","524808","0.0-1.0-606.0","0","0","95423","","0","","","75","67","k","","","","","","","","","","","","","","",""
"","S2","","html-keyboard-response","396","524980","0.0-1.0-607.0","0","0","95423","","168","","","68","67","","d","2","67","training","adjacent","DC","4","3","N.jpg","Q.jpg","0","0","1","",""
"","feedback","","html-keyboard-response","397","525986","0.0-1.0-609.0-0.0","0","0","95423","","null","","","null","67","","","","","","","","","","","","","","","",""
"","ITI","","html-keyboard-response","398","526989","0.0-1.0-612.0","0","0","95423","","140","","","68","67","","","","","","","","","","","","","","","d",""
"","S1","","html-keyboard-response","399","527242","0.0-1.0-614.0","0","0","95423","","null","","","null","68","","","","","","","","","","","","","","","",""
"","ISI","","html-keyboard-response","400","527745","0.0-1.0-615.0","0","0","95423","","19","","","75","68","k","","","","","","","","","","","","","","",""
"","S2","","html-keyboard-response","401","528017","0.0-1.0-616.0","0","0","95423","","null","","","null","68","","NaN","","","","","","","","","","","","","",""
"","response","","html-keyboard-response","402","528019","0.0-1.0-617.0-0.0","0","0","95423","","0","","","68","68","","","2","68","training","adjacent","BA","2","1","M.jpg","O.jpg","0","0","1","",""
"","feedback","","html-keyboard-response","403","529335","0.0-1.0-618.0-0.0","0","0","95423","","null","","","null","68","","","","","","","","","","","","","","","",""
"","ITI","","html-keyboard-response","404","530346","0.0-1.0-621.0","0","0","95423","","41","","","75","68","","","","","","","","","","","","","","","k",""
"","S1","","html-keyboard-response","405","530602","0.0-1.0-623.0","0","0","95423","","null","","","null","69","","","","","","","","","","","","","","","",""
"","ISI","","html-keyboard-response","406","531105","0.0-1.0-624.0","0","0","95423","","40","","","75","69","k","","","","","","","","","","","","","","",""
"","S2","","html-keyboard-response","407","531131","0.0-1.0-625.0","0","0","95423","","22","","","75","69","","k","2","69","training","adjacent","BC","2","3","M.jpg","Q.jpg","1","1","1","",""
"","feedback","","html-keyboard-response","408","532134","0.0-1.0-627.0-0.0","0","0","95423","","null","","","null","69","","","","","","","","","","","","","","","",""
"","ITI","","html-keyboard-response","409","533138","0.0-1.0-630.0","0","0","95423","","80","","","68","69","","","","","","","","","","","","","","","d",""
"","S1","","html-keyboard-response","410","533393","0.0-1.0-632.0","0","0","95423","","null","","","null","70","","","","","","","","","","","","","","","",""
"","ISI","","html-keyboard-response","411","533897","0.0-1.0-633.0","0","0","95423","","187","","","75","70","k","","","","","","","","","","","","","","",""
"","S2","","html-keyboard-response","412","534071","0.0-1.0-634.0","0","0","95423","","168","","","68","70","","d","2","70","training","adjacent","CB","3","2","Q.jpg","M.jpg","0","0","1","",""
"","feedback","","html-keyboard-response","413","535118","0.0-1.0-636.0-0.0","0","0","95423","","null","","","null","70","","","","","","","","","","","","","","","",""
"","ITI","","html-keyboard-response","414","536128","0.0-1.0-639.0","0","0","95423","","11","","","75","70","","","","","","","","","","","","","","","k",""
"","S1","","html-keyboard-response","415","536383","0.0-1.0-641.0","0","0","95423","","null","","","null","71","","","","","","","","","","","","","","","",""
"","ISI","","html-keyboard-response","416","536889","0.0-1.0-642.0","0","0","95423","","5","","","75","71","k","","","","","","","","","","","","","","",""
"","S2","","html-keyboard-response","417","537143","0.0-1.0-643.0","0","0","95423","","null","","","null","71","","NaN","","","","","","","","","","","","","",""
"","response","","html-keyboard-response","418","537317","0.0-1.0-644.0-0.0","0","0","95423","","167","","","75","71","","","2","71","training","adjacent","FG","6","7","R.jpg","P.jpg","1","1","1","",""
"","feedback","","html-keyboard-response","419","538321","0.0-1.0-645.0-0.0","0","0","95423","","null","","","null","71","","","","","","","","","","","","","","","",""
"","ITI","","html-keyboard-response","420","539324","0.0-1.0-648.0","0","0","95423","","99","","","68","71","","","","","","","","","","","","","","","d",""
"","S1","","html-keyboard-response","421","539579","0.0-1.0-650.0","0","0","95423","","null","","","null","72","","","","","","","","","","","","","","","",""
"","ISI","","html-keyboard-response","422","540082","0.0-1.0-651.0","0","0","95423","","49","","","75","72","k","","","","","","","","","","","","","","",""
"","S2","","html-keyboard-response","423","540337","0.0-1.0-652.0","0","0","95423","","null","","","null","72","","NaN","","","","","","","","","","","","","",""
"","response","","html-keyboard-response","424","540364","0.0-1.0-653.0-0.0","0","0","95423","","24","","","68","72","","","2","72","training","adjacent","EF","5","6","L.jpg","R.jpg","0","1","0","",""
"","feedback","","html-keyboard-response","425","541367","0.0-1.0-654.0-0.0","0","0","95423","","null","","","null","72","","","","","","","","","","","","","","","",""
"","time_out","","html-keyboard-response","426","543372","0.0-1.0-656.0-0.0","0","0","95423","","null","","","null","72","","","","","","","","","","","","","","","",""
"","ITI","","html-keyboard-response","427","544377","0.0-1.0-657.0","0","0","95423","","157","","","68","72","","","","","","","","","","","","","","","d",""
"","S1","","html-keyboard-response","428","544633","0.0-1.0-659.0","0","0","95423","","null","","","null","73","","","","","","","","","","","","","","","",""
"","ISI","","html-keyboard-response","429","545137","0.0-1.0-660.0","0","0","95423","","6","","","68","73","d","","","","","","","","","","","","","","",""
"","S2","","html-keyboard-response","430","545173","0.0-1.0-661.0","0","0","95423","","31","","","75","73","","k","2","73","training","adjacent","GF","7","6","P.jpg","R.jpg","1","0","0","",""
"","feedback","","html-keyboard-response","431","546357","0.0-1.0-663.0-0.0","0","0","95423","","null","","","null","73","","","","","","","","","","","","","","","",""
"","time_out","","html-keyboard-response","432","548367","0.0-1.0-665.0-0.0","0","0","95423","","null","","","null","73","","","","","","","","","","","","","","","",""
"","ITI","","html-keyboard-response","433","549373","0.0-1.0-666.0","0","0","95423","","27","","","68","73","","","","","","","","","","","","","","","d",""
"","S1","","html-keyboard-response","434","549626","0.0-1.0-668.0","0","0","95423","","null","","","null","74","","","","","","","","","","","","","","","",""
"","ISI","","html-keyboard-response","435","550130","0.0-1.0-669.0","0","0","95423","","131","","","75","74","k","","","","","","","","","","","","","","",""
"","S2","","html-keyboard-response","436","550315","0.0-1.0-670.0","0","0","95423","","179","","","75","74","","k","2","74","training","adjacent","CB","3","2","Q.jpg","M.jpg","1","0","0","",""
"","feedback","","html-keyboard-response","437","551320","0.0-1.0-672.0-0.0","0","0","95423","","null","","","null","74","","","","","","","","","","","","","","","",""
"","time_out","","html-keyboard-response","438","553326","0.0-1.0-674.0-0.0","0","0","95423","","null","","","null","74","","","","","","","","","","","","","","","",""
"","ITI","","html-keyboard-response","439","554333","0.0-1.0-675.0","0","0","95423","","40","","","75","74","","","","","","","","","","","","","","","k",""
"","S1","","html-keyboard-response","440","554688","0.0-1.0-677.0","0","0","95423","","null","","","null","75","","","","","","","","","","","","","","","",""
"","ISI","","html-keyboard-response","441","555192","0.0-1.0-678.0","0","0","95423","","12","","","68","75","d","","","","","","","","","","","","","","",""
"","S2","","html-keyboard-response","442","555329","0.0-1.0-679.0","0","0","95423","","134","","","75","75","","k","2","75","training","adjacent","CD","3","4","Q.jpg","N.jpg","1","1","1","",""
"","feedback","","html-keyboard-response","443","556333","0.0-1.0-681.0-0.0","0","0","95423","","null","","","null","75","","","","","","","","","","","","","","","",""
"","ITI","","html-keyboard-response","444","557339","0.0-1.0-684.0","0","0","95423","","240","","","68","75","","","","","","","","","","","","","","","d",""
"","S1","","html-keyboard-response","445","557594","0.0-1.0-686.0","0","0","95423","","null","","","null","76","","","","","","","","","","","","","","","",""
"","ISI","","html-keyboard-response","446","558099","0.0-1.0-687.0","0","0","95423","","1","","","68","76","d","","","","","","","","","","","","","","",""
"","S2","","html-keyboard-response","447","558230","0.0-1.0-688.0","0","0","95423","","125","","","68","76","","d","2","76","training","adjacent","FE","6","5","R.jpg","L.jpg","0","0","1","",""
"","feedback","","html-keyboard-response","448","559235","0.0-1.0-690.0-0.0","0","0","95423","","null","","","null","76","","","","","","","","","","","","","","","",""
"","ITI","","html-keyboard-response","449","560245","0.0-1.0-693.0","0","0","95423","","357","","","75","76","","","","","","","","","","","","","","","k",""
"","S1","","html-keyboard-response","450","560502","0.0-1.0-695.0","0","0","95423","","null","","","null","77","","","","","","","","","","","","","","","",""
"","ISI","","html-keyboard-response","451","561008","0.0-1.0-696.0","0","0","95423","","null","","","null","77","NaN","","","","","","","","","","","","","","",""
"","S2","","html-keyboard-response","452","561262","0.0-1.0-697.0","0","0","95423","","null","","","null","77","","NaN","","","","","","","","","","","","","",""
"","response","","html-keyboard-response","453","561894","0.0-1.0-698.0-0.0","0","0","95423","","626","","","68","77","","","2","77","training","adjacent","ED","5","4","L.jpg","N.jpg","0","0","1","",""
"","feedback","","html-keyboard-response","454","562900","0.0-1.0-699.0-0.0","0","0","95423","","null","","","null","77","","","","","","","","","","","","","","","",""
"","ITI","","html-keyboard-response","455","563904","0.0-1.0-702.0","0","0","95423","","188","","","68","77","","","","","","","","","","","","","","","d",""
"","S1","","html-keyboard-response","456","564163","0.0-1.0-704.0","0","0","95423","","null","","","null","78","","","","","","","","","","","","","","","",""
"","ISI","","html-keyboard-response","457","564666","0.0-1.0-705.0","0","0","95423","","26","","","68","78","d","","","","","","","","","","","","","","",""
"","S2","","html-keyboard-response","458","564737","0.0-1.0-706.0","0","0","95423","","67","","","68","78","","d","2","78","training","adjacent","GF","7","6","P.jpg","R.jpg","0","0","1","",""
"","feedback","","html-keyboard-response","459","565742","0.0-1.0-708.0-0.0","0","0","95423","","null","","","null","78","","","","","","","","","","","","","","","",""
"","ITI","","html-keyboard-response","460","566752","0.0-1.0-711.0","0","0","95423","","105","","","68","78","","","","","","","","","","","","","","","d",""
"","S1","","html-keyboard-response","461","567006","0.0-1.0-713.0","0","0","95423","","null","","","null","79","","","","","","","","","","","","","","","",""
"","ISI","","html-keyboard-response","462","567511","0.0-1.0-714.0","0","0","95423","","42","","","68","79","d","","","","","","","","","","","","","","",""
"","S2","","html-keyboard-response","463","567610","0.0-1.0-715.0","0","0","95423","","95","","","68","79","","d","2","79","training","adjacent","DC","4","3","N.jpg","Q.jpg","0","0","1","",""
"","feedback","","html-keyboard-response","464","568615","0.0-1.0-717.0-0.0","0","0","95423","","null","","","null","79","","","","","","","","","","","","","","","",""
"","ITI","","html-keyboard-response","465","569620","0.0-1.0-720.0","0","0","95423","","120","","","68","79","","","","","","","","","","","","","","","d",""
"","S1","","html-keyboard-response","466","569874","0.0-1.0-722.0","0","0","95423","","null","","","null","80","","","","","","","","","","","","","","","",""
"","ISI","","html-keyboard-response","467","570378","0.0-1.0-723.0","0","0","95423","","76","","","68","80","d","","","","","","","","","","","","","","",""
"","S2","","html-keyboard-response","468","570530","0.0-1.0-724.0","0","0","95423","","149","","","68","80","","d","2","80","training","adjacent","FE","6","5","R.jpg","L.jpg","0","0","1","",""
"","feedback","","html-keyboard-response","469","571535","0.0-1.0-726.0-0.0","0","0","95423","","null","","","null","80","","","","","","","","","","","","","","","",""
"","ITI","","html-keyboard-response","470","572541","0.0-1.0-729.0","0","0","95423","","83","","","75","80","","","","","","","","","","","","","","","k",""
"","S1","","html-keyboard-response","471","572802","0.0-1.0-731.0","0","0","95423","","null","","","null","81","","","","","","","","","","","","","","","",""
"","ISI","","html-keyboard-response","472","573308","0.0-1.0-732.0","0","0","95423","","7","","","68","81","d","","","","","","","","","","","","","","",""
"","S2","","html-keyboard-response","473","573428","0.0-1.0-733.0","0","0","95423","","109","","","68","81","","d","2","81","training","adjacent","GF","7","6","P.jpg","R.jpg","0","0","1","",""
"","feedback","","html-keyboard-response","474","574434","0.0-1.0-735.0-0.0","0","0","95423","","null","","","null","81","","","","","","","","","","","","","","","",""
"","ITI","","html-keyboard-response","475","575438","0.0-1.0-738.0","0","0","95423","","123","","","68","81","","","","","","","","","","","","","","","d",""
"","S1","","html-keyboard-response","476","575690","0.0-1.0-740.0","0","0","95423","","null","","","null","82","","","","","","","","","","","","","","","",""
"","ISI","","html-keyboard-response","477","576193","0.0-1.0-741.0","0","0","95423","","79","","","68","82","d","","","","","","","","","","","","","","",""
"","S2","","html-keyboard-response","478","576403","0.0-1.0-742.0","0","0","95423","","204","","","68","82","","d","2","82","training","adjacent","AB","1","2","O.jpg","M.jpg","0","1","0","",""
"","feedback","","html-keyboard-response","479","577406","0.0-1.0-744.0-0.0","0","0","95423","","null","","","null","82","","","","","","","","","","","","","","","",""
"","time_out","","html-keyboard-response","480","579412","0.0-1.0-746.0-0.0","0","0","95423","","null","","","null","82","","","","","","","","","","","","","","","",""
"","ITI","","html-keyboard-response","481","580417","0.0-1.0-747.0","0","0","95423","","135","","","68","82","","","","","","","","","","","","","","","d",""
"","S1","","html-keyboard-response","482","580673","0.0-1.0-749.0","0","0","95423","","null","","","null","83","","","","","","","","","","","","","","","",""
"","ISI","","html-keyboard-response","483","581178","0.0-1.0-750.0","0","0","95423","","85","","","68","83","d","","","","","","","","","","","","","","",""
"","S2","","html-keyboard-response","484","581347","0.0-1.0-751.0","0","0","95423","","165","","","68","83","","d","2","83","training","adjacent","AB","1","2","O.jpg","M.jpg","0","1","0","",""
"","feedback","","html-keyboard-response","485","582510","0.0-1.0-753.0-0.0","0","0","95423","","null","","","null","83","","","","","","","","","","","","","","","",""
"","time_out","","html-keyboard-response","486","584519","0.0-1.0-755.0-0.0","0","0","95423","","null","","","null","83","","","","","","","","","","","","","","","",""
"","ITI","","html-keyboard-response","487","585524","0.0-1.0-756.0","0","0","95423","","77","","","68","83","","","","","","","","","","","","","","","d",""
"","S1","","html-keyboard-response","488","585777","0.0-1.0-758.0","0","0","95423","","null","","","null","84","","","","","","","","","","","","","","","",""
"","ISI","","html-keyboard-response","489","586281","0.0-1.0-759.0","0","0","95423","","62","","","68","84","d","","","","","","","","","","","","","","",""
"","S2","","html-keyboard-response","490","586424","0.0-1.0-760.0","0","0","95423","","137","","","68","84","","d","2","84","training","adjacent","BC","2","3","M.jpg","Q.jpg","0","1","0","",""
"","feedback","","html-keyboard-response","491","587434","0.0-1.0-762.0-0.0","0","0","95423","","null","","","null","84","","","","","","","","","","","","","","","",""
"","time_out","","html-keyboard-response","492","589439","0.0-1.0-764.0-0.0","0","0","95423","","null","","","null","84","","","","","","","","","","","","","","","",""
"","ITI","","html-keyboard-response","493","590444","0.0-1.0-765.0","0","0","95423","","168","","","75","84","","","","","","","","","","","","","","","k",""
"","S1","","html-keyboard-response","494","590698","0.0-1.0-767.0","0","0","95423","","null","","","null","85","","","","","","","","","","","","","","","",""
"","ISI","","html-keyboard-response","495","591203","0.0-1.0-768.0","0","0","95423","","180","","","75","85","k","","","","","","","","","","","","","","",""
"","S2","","html-keyboard-response","496","591302","0.0-1.0-769.0","0","0","95423","","94","","","68","85","","d","2","85","training","adjacent","DC","4","3","N.jpg","Q.jpg","0","0","1","",""
"","feedback","","html-keyboard-response","497","592311","0.0-1.0-771.0-0.0","0","0","95423","","null","","","null","85","","","","","","","","","","","","","","","",""
"","ITI","","html-keyboard-response","498","593335","0.0-1.0-774.0","0","0","95423","","0","","","68","85","","","","","","","","","","","","","","","d",""
"","S1","","html-keyboard-response","499","593620","0.0-1.0-776.0","0","0","95423","","null","","","null","86","","","","","","","","","","","","","","","",""
"","ISI","","html-keyboard-response","500","594123","0.0-1.0-777.0","0","0","95423","","447","","","68","86","d","","","","","","","","","","","","","","",""
"","S2","","html-keyboard-response","501","594379","0.0-1.0-778.0","0","0","95423","","null","","","null","86","","NaN","","","","","","","","","","","","","",""
"","response","","html-keyboard-response","502","594860","0.0-1.0-779.0-0.0","0","0","95423","","478","","","75","86","","","2","86","training","adjacent","DE","4","5","N.jpg","L.jpg","1","1","1","",""
"","feedback","","html-keyboard-response","503","595864","0.0-1.0-780.0-0.0","0","0","95423","","null","","","null","86","","","","","","","","","","","","","","","",""
"","ITI","","html-keyboard-response","504","596869","0.0-1.0-783.0","0","0","95423","","44","","","75","86","","","","","","","","","","","","","","","k",""
"","S1","","html-keyboard-response","505","597123","0.0-1.0-785.0","0","0","95423","","null","","","null","87","","","","","","","","","","","","","","","",""
"","ISI","","html-keyboard-response","506","597640","0.0-1.0-786.0","0","0","95423","","24","","","75","87","k","","","","","","","","","","","","","","",""
"","S2","","html-keyboard-response","507","597782","0.0-1.0-787.0","0","0","95423","","133","","","75","87","","k","2","87","training","adjacent","CB","3","2","Q.jpg","M.jpg","1","0","0","",""
"","feedback","","html-keyboard-response","508","598787","0.0-1.0-789.0-0.0","0","0","95423","","null","","","null","87","","","","","","","","","","","","","","","",""
"","time_out","","html-keyboard-response","509","600796","0.0-1.0-791.0-0.0","0","0","95423","","null","","","null","87","","","","","","","","","","","","","","","",""
"","ITI","","html-keyboard-response","510","601803","0.0-1.0-792.0","0","0","95423","","161","","","68","87","","","","","","","","","","","","","","","d",""
"","S1","","html-keyboard-response","511","602058","0.0-1.0-794.0","0","0","95423","","null","","","null","88","","","","","","","","","","","","","","","",""
"","ISI","","html-keyboard-response","512","602562","0.0-1.0-795.0","0","0","95423","","160","","","68","88","d","","","","","","","","","","","","","","",""
"","S2","","html-keyboard-response","513","602702","0.0-1.0-796.0","0","0","95423","","136","","","68","88","","d","2","88","training","adjacent","CD","3","4","Q.jpg","N.jpg","0","1","0","",""
"","feedback","","html-keyboard-response","514","603705","0.0-1.0-798.0-0.0","0","0","95423","","null","","","null","88","","","","","","","","","","","","","","","",""
"","time_out","","html-keyboard-response","515","605710","0.0-1.0-800.0-0.0","0","0","95423","","null","","","null","88","","","","","","","","","","","","","","","",""
"","ITI","","html-keyboard-response","516","606714","0.0-1.0-801.0","0","0","95423","","117","","","68","88","","","","","","","","","","","","","","","d",""
"","S1","","html-keyboard-response","517","606967","0.0-1.0-803.0","0","0","95423","","null","","","null","89","","","","","","","","","","","","","","","",""
"","ISI","","html-keyboard-response","518","607482","0.0-1.0-804.0","0","0","95423","","91","","","68","89","d","","","","","","","","","","","","","","",""
"","S2","","html-keyboard-response","519","607487","0.0-1.0-805.0","0","0","95423","","1","","","68","89","","d","2","89","training","adjacent","DE","4","5","N.jpg","L.jpg","0","1","0","",""
"","feedback","","html-keyboard-response","520","608491","0.0-1.0-807.0-0.0","0","0","95423","","null","","","null","89","","","","","","","","","","","","","","","",""
"","time_out","","html-keyboard-response","521","610498","0.0-1.0-809.0-0.0","0","0","95423","","null","","","null","89","","","","","","","","","","","","","","","",""
"","ITI","","html-keyboard-response","522","611505","0.0-1.0-810.0","0","0","95423","","70","","","68","89","","","","","","","","","","","","","","","d",""
"","S1","","html-keyboard-response","523","611761","0.0-1.0-812.0","0","0","95423","","null","","","null","90","","","","","","","","","","","","","","","",""
"","ISI","","html-keyboard-response","524","612268","0.0-1.0-813.0","0","0","95423","","null","","","null","90","NaN","","","","","","","","","","","","","","",""
"","S2","","html-keyboard-response","525","612533","0.0-1.0-814.0","0","0","95423","","null","","","null","90","","NaN","","","","","","","","","","","","","",""
"","response","","html-keyboard-response","526","614288","0.0-1.0-815.0-0.0","0","0","95423","","null","","","null","90","","","2","90","training","adjacent","BA","2","1","M.jpg","O.jpg","NaN","0","0","",""
"","too_slow_prompt","","html-keyboard-response","527","615310","0.0-1.0-817.0-0.0","1","0","95423","","null","","","null","","","","","","","","","","","","","","","","",""
"","time_out","","html-keyboard-response","528","617340","0.0-1.0-818.0-0.0","0","0","95423","","null","","","null","90","","","","","","","","","","","","","","","",""
"","ITI","","html-keyboard-response","529","618346","0.0-1.0-819.0","0","0","95423","","null","","","null","90","","","","","","","","","","","","","","","NaN",""
"","S1","","html-keyboard-response","530","618600","0.0-1.0-821.0","0","0","95423","","null","","","null","91","","","","","","","","","","","","","","","",""
"","ISI","","html-keyboard-response","531","619102","0.0-1.0-822.0","0","0","95423","","null","","","null","91","NaN","","","","","","","","","","","","","","",""
"","S2","","html-keyboard-response","532","619363","0.0-1.0-823.0","0","0","95423","","null","","","null","91","","NaN","","","","","","","","","","","","","",""
"","response","","html-keyboard-response","533","621119","0.0-1.0-824.0-0.0","0","0","95423","","null","","","null","91","","","2","91","training","adjacent","EF","5","6","L.jpg","R.jpg","NaN","1","0","",""
"","too_slow_prompt","","html-keyboard-response","534","622131","0.0-1.0-826.0-0.0","1","0","95423","","null","","","null","","","","","","","","","","","","","","","","",""
"","time_out","","html-keyboard-response","535","624138","0.0-1.0-827.0-0.0","0","0","95423","","null","","","null","91","","","","","","","","","","","","","","","",""
"","ITI","","html-keyboard-response","536","625143","0.0-1.0-828.0","0","0","95423","","10","","","68","91","","","","","","","","","","","","","","","d",""
"","S1","","html-keyboard-response","537","625411","0.0-1.0-830.0","0","0","95423","","null","","","null","92","","","","","","","","","","","","","","","",""
"","ISI","","html-keyboard-response","538","625914","0.0-1.0-831.0","0","0","95423","","57","","","68","92","d","","","","","","","","","","","","","","",""
"","S2","","html-keyboard-response","539","625922","0.0-1.0-832.0","0","0","95423","","3","","","75","92","","k","2","92","training","adjacent","GF","7","6","P.jpg","R.jpg","1","0","0","",""
"","feedback","","html-keyboard-response","540","626929","0.0-1.0-834.0-0.0","0","0","95423","","null","","","null","92","","","","","","","","","","","","","","","",""
"","time_out","","html-keyboard-response","541","628934","0.0-1.0-836.0-0.0","0","0","95423","","null","","","null","92","","","","","","","","","","","","","","","",""
"","ITI","","html-keyboard-response","542","629940","0.0-1.0-837.0","0","0","95423","","26","","","75","92","","","","","","","","","","","","","","","k",""
"","S1","","html-keyboard-response","543","630195","0.0-1.0-839.0","0","0","95423","","null","","","null","93","","","","","","","","","","","","","","","",""
"","ISI","","html-keyboard-response","544","630698","0.0-1.0-840.0","0","0","95423","","33","","","68","93","d","","","","","","","","","","","","","","",""
"","S2","","html-keyboard-response","545","630863","0.0-1.0-841.0","0","0","95423","","161","","","68","93","","d","2","93","training","adjacent","BC","2","3","M.jpg","Q.jpg","0","1","0","",""
"","feedback","","html-keyboard-response","546","631867","0.0-1.0-843.0-0.0","0","0","95423","","null","","","null","93","","","","","","","","","","","","","","","",""
"","time_out","","html-keyboard-response","547","633871","0.0-1.0-845.0-0.0","0","0","95423","","null","","","null","93","","","","","","","","","","","","","","","",""
"","ITI","","html-keyboard-response","548","634875","0.0-1.0-846.0","0","0","95423","","37","","","68","93","","","","","","","","","","","","","","","d",""
"","S1","","html-keyboard-response","549","635128","0.0-1.0-848.0","0","0","95423","","null","","","null","94","","","","","","","","","","","","","","","",""
"","ISI","","html-keyboard-response","550","635633","0.0-1.0-849.0","0","0","95423","","30","","","68","94","d","","","","","","","","","","","","","","",""
"","S2","","html-keyboard-response","551","635889","0.0-1.0-850.0","0","0","95423","","null","","","null","94","","NaN","","","","","","","","","","","","","",""
"","response","","html-keyboard-response","552","637166","0.0-1.0-851.0-0.0","0","0","95423","","1271","","","75","94","","","2","94","training","adjacent","FE","6","5","R.jpg","L.jpg","1","0","0","",""
"","feedback","","html-keyboard-response","553","638172","0.0-1.0-852.0-0.0","0","0","95423","","null","","","null","94","","","","","","","","","","","","","","","",""
"","time_out","","html-keyboard-response","554","640178","0.0-1.0-854.0-0.0","0","0","95423","","null","","","null","94","","","","","","","","","","","","","","","",""
"","ITI","","html-keyboard-response","555","641183","0.0-1.0-855.0","0","0","95423","","101","","","68","94","","","","","","","","","","","","","","","d",""
"","S1","","html-keyboard-response","556","641436","0.0-1.0-857.0","0","0","95423","","null","","","null","95","","","","","","","","","","","","","","","",""
"","ISI","","html-keyboard-response","557","641937","0.0-1.0-858.0","0","0","95423","","92","","","68","95","d","","","","","","","","","","","","","","",""
"","S2","","html-keyboard-response","558","641991","0.0-1.0-859.0","0","0","95423","","51","","","68","95","","d","2","95","training","adjacent","AB","1","2","O.jpg","M.jpg","0","1","0","",""
"","feedback","","html-keyboard-response","559","643002","0.0-1.0-861.0-0.0","0","0","95423","","null","","","null","95","","","","","","","","","","","","","","","",""
"","time_out","","html-keyboard-response","560","645007","0.0-1.0-863.0-0.0","0","0","95423","","null","","","null","95","","","","","","","","","","","","","","","",""
"","ITI","","html-keyboard-response","561","646031","0.0-1.0-864.0","0","0","95423","","55","","","75","95","","","","","","","","","","","","","","","k",""
"","block_over","","html-keyboard-response","562","648953","0.0-1.0-865.0-0.0","0","0","95423","","2916","","","32","95","","","","","","","","","","","","","","","",""
"","S1","","html-keyboard-response","563","649206","0.0-1.0-866.0","0","0","95423","","null","","","null","96","","","","","","","","","","","","","","","",""
"","ISI","","html-keyboard-response","564","649710","0.0-1.0-867.0","0","0","95423","","null","","","null","96","NaN","","","","","","","","","","","","","","",""
"","S2","","html-keyboard-response","565","649772","0.0-1.0-868.0","0","0","95423","","58","","","75","96","","k","3","96","training","adjacent","ED","5","4","L.jpg","N.jpg","1","0","0","",""
"","feedback","","html-keyboard-response","566","650781","0.0-1.0-870.0-0.0","0","0","95423","","null","","","null","96","","","","","","","","","","","","","","","",""
"","time_out","","html-keyboard-response","567","652787","0.0-1.0-872.0-0.0","0","0","95423","","null","","","null","96","","","","","","","","","","","","","","","",""
"","ITI","","html-keyboard-response","568","653792","0.0-1.0-873.0","0","0","95423","","162","","","68","96","","","","","","","","","","","","","","","d",""
"","S1","","html-keyboard-response","569","654045","0.0-1.0-875.0","0","0","95423","","null","","","null","97","","","","","","","","","","","","","","","",""
"","ISI","","html-keyboard-response","570","654548","0.0-1.0-876.0","0","0","95423","","43","","","75","97","k","","","","","","","","","","","","","","",""
"","S2","","html-keyboard-response","571","654611","0.0-1.0-877.0","0","0","95423","","60","","","68","97","","d","3","97","training","adjacent","GF","7","6","P.jpg","R.jpg","0","0","1","",""
"","feedback","","html-keyboard-response","572","655616","0.0-1.0-879.0-0.0","0","0","95423","","null","","","null","97","","","","","","","","","","","","","","","",""
"","ITI","","html-keyboard-response","573","656621","0.0-1.0-882.0","0","0","95423","","161","","","75","97","","","","","","","","","","","","","","","k",""
"","S1","","html-keyboard-response","574","656876","0.0-1.0-884.0","0","0","95423","","null","","","null","98","","","","","","","","","","","","","","","",""
"","ISI","","html-keyboard-response","575","657379","0.0-1.0-885.0","0","0","95423","","143","","","68","98","d","","","","","","","","","","","","","","",""
"","S2","","html-keyboard-response","576","657451","0.0-1.0-886.0","0","0","95423","","68","","","68","98","","d","3","98","training","adjacent","DE","4","5","N.jpg","L.jpg","0","1","0","",""
"","feedback","","html-keyboard-response","577","658457","0.0-1.0-888.0-0.0","0","0","95423","","null","","","null","98","","","","","","","","","","","","","","","",""
"","time_out","","html-keyboard-response","578","660465","0.0-1.0-890.0-0.0","0","0","95423","","null","","","null","98","","","","","","","","","","","","","","","",""
"","ITI","","html-keyboard-response","579","661470","0.0-1.0-891.0","0","0","95423","","43","","","75","98","","","","","","","","","","","","","","","k",""
"","S1","","html-keyboard-response","580","661728","0.0-1.0-893.0","0","0","95423","","null","","","null","99","","","","","","","","","","","","","","","",""
"","ISI","","html-keyboard-response","581","662230","0.0-1.0-894.0","0","0","95423","","111","","","75","99","k","","","","","","","","","","","","","","",""
"","S2","","html-keyboard-response","582","662240","0.0-1.0-895.0","0","0","95423","","7","","","68","99","","d","3","99","training","adjacent","FG","6","7","R.jpg","P.jpg","0","1","0","",""
"","feedback","","html-keyboard-response","583","663254","0.0-1.0-897.0-0.0","0","0","95423","","null","","","null","99","","","","","","","","","","","","","","","",""
"","time_out","","html-keyboard-response","584","665294","0.0-1.0-899.0-0.0","0","0","95423","","null","","","null","99","","","","","","","","","","","","","","","",""
