"success","ttype","start_time","trial_type","trial_index","time_elapsed","internal_node_id","warning","missed_checkup","PID","view_history","rt","responses","repeat_instructions","key_press","index","keypress_isi","keypress_S2","block","trial_num","phase","group_type","pair_type","S1_stim","S2_stim","S1_img","S2_img","S1_chosen","S1_higher","accuracy","keypress_iti","total_bonus_tally"
"true","full_screen","d04062023hr1718","fullscreen","0","3978","0.0-0.0","0","0","73939","","","","","","","","","","","","","","","","","","","","","",""
"","instructions","","instructions","1","27650","0.0-1.0-0.0-0.0","0","0","73939","[{""page_index"":0,""viewing_time"":2357},{""page_index"":1,""viewing_time"":14690},{""page_index"":2,""viewing_time"":5454},{""page_index"":3,""viewing_time"":1166}]","23667","","","","","","","","","","","","","","","","","","","",""
"","comprehension_check","","survey-multi-choice","2","45401","0.0-1.0-0.0-1.0","0","0","73939","","17747","{""Q0"":""True"",""Q1"":""K"",""Q2"":""Once the second image appears and while the screen 'MAKE A CHOICE' is shown"",""Q3"":""Green mark"",""Q4"":""either D or K""}","0","","","","","","","","","","","","","","","","","",""
"","start_exp","","html-keyboard-response","3","47421","0.0-1.0-1.0","0","0","73939","","2016","","","32","","","","","","","","","","","","","","","","",""
"","S1","","html-keyboard-response","4","47578","0.0-1.0-2.0","0","0","73939","","null","","","null","0","","","","","","","","","","","","","","","",""
"","ISI","","html-keyboard-response","5","49587","0.0-1.0-3.0","0","0","73939","","null","","","null","0","NaN","","","","","","","","","","","","","","",""
"","S2","","html-keyboard-response","6","49743","0.0-1.0-4.0","0","0","73939","","null","","","null","0","","NaN","","","","","","","","","","","","","",""
"","response","","html-keyboard-response","7","50595","0.0-1.0-5.0-0.0","0","0","73939","","849","","","75","0","","","1","0","training","adjacent","DE","4","5","Q.jpg","O.jpg","1","1","1","",""
"","feedback","","html-keyboard-response","8","51602","0.0-1.0-6.0-0.0","0","0","73939","","null","","","null","0","","","","","","","","","","","","","","","",""
"","ITI","","html-keyboard-response","9","52610","0.0-1.0-9.0","0","0","73939","","null","","","null","0","","","","","","","","","","","","","","","NaN",""
"","S1","","html-keyboard-response","10","52769","0.0-1.0-11.0","0","0","73939","","null","","","null","1","","","","","","","","","","","","","","","",""
"","ISI","","html-keyboard-response","11","54772","0.0-1.0-12.0","0","0","73939","","791","","","68","1","d","","","","","","","","","","","","","","",""
"","S2","","html-keyboard-response","12","54931","0.0-1.0-13.0","0","0","73939","","null","","","null","1","","NaN","","","","","","","","","","","","","",""
"","response","","html-keyboard-response","13","55824","0.0-1.0-14.0-0.0","0","0","73939","","890","","","75","1","","","1","1","training","adjacent","BA","2","1","P.jpg","N.jpg","1","0","0","",""
"","feedback","","html-keyboard-response","14","56830","0.0-1.0-15.0-0.0","0","0","73939","","null","","","null","1","","","","","","","","","","","","","","","",""
"","time_out","","html-keyboard-response","15","58833","0.0-1.0-17.0-0.0","0","0","73939","","null","","","null","1","","","","","","","","","","","","","","","",""
"","ITI","","html-keyboard-response","16","59839","0.0-1.0-18.0","0","0","73939","","null","","","null","1","","","","","","","","","","","","","","","NaN",""
"","S1","","html-keyboard-response","17","59996","0.0-1.0-20.0","0","0","73939","","null","","","null","2","","","","","","","","","","","","","","","",""
"","ISI","","html-keyboard-response","18","61998","0.0-1.0-21.0","0","0","73939","","null","","","null","2","NaN","","","","","","","","","","","","","","",""
"","S2","","html-keyboard-response","19","62154","0.0-1.0-22.0","0","0","73939","","null","","","null","2","","NaN","","","","","","","","","","","","","",""
"","response","","html-keyboard-response","20","62702","0.0-1.0-23.0-0.0","0","0","73939","","545","","","75","2","","","1","2","training","adjacent","FE","6","5","M.jpg","O.jpg","1","0","0","",""
"","feedback","","html-keyboard-response","21","63706","0.0-1.0-24.0-0.0","0","0","73939","","null","","","null","2","","","","","","","","","","","","","","","",""
"","time_out","","html-keyboard-response","22","65711","0.0-1.0-26.0-0.0","0","0","73939","","null","","","null","2","","","","","","","","","","","","","","","",""
"","ITI","","html-keyboard-response","23","66714","0.0-1.0-27.0","0","0","73939","","null","","","null","2","","","","","","","","","","","","","","","NaN",""
"","S1","","html-keyboard-response","24","66878","0.0-1.0-29.0","0","0","73939","","null","","","null","3","","","","","","","","","","","","","","","",""
"","ISI","","html-keyboard-response","25","68886","0.0-1.0-30.0","0","0","73939","","null","","","null","3","NaN","","","","","","","","","","","","","","",""
"","S2","","html-keyboard-response","26","69042","0.0-1.0-31.0","0","0","73939","","null","","","null","3","","NaN","","","","","","","","","","","","","",""
"","response","","html-keyboard-response","27","69336","0.0-1.0-32.0-0.0","0","0","73939","","292","","","68","3","","","1","3","training","adjacent","FE","6","5","M.jpg","O.jpg","0","0","1","",""
"","feedback","","html-keyboard-response","28","70341","0.0-1.0-33.0-0.0","0","0","73939","","null","","","null","3","","","","","","","","","","","","","","","",""
"","ITI","","html-keyboard-response","29","71346","0.0-1.0-36.0","0","0","73939","","null","","","null","3","","","","","","","","","","","","","","","NaN",""
"","S1","","html-keyboard-response","30","71504","0.0-1.0-38.0","0","0","73939","","null","","","null","4","","","","","","","","","","","","","","","",""
"","ISI","","html-keyboard-response","31","73509","0.0-1.0-39.0","0","0","73939","","null","","","null","4","NaN","","","","","","","","","","","","","","",""
"","S2","","html-keyboard-response","32","73662","0.0-1.0-40.0","0","0","73939","","null","","","null","4","","NaN","","","","","","","","","","","","","",""
"","response","","html-keyboard-response","33","74664","0.0-1.0-41.0-0.0","0","0","73939","","1000","","","68","4","","","1","4","training","adjacent","FG","6","7","M.jpg","R.jpg","0","1","0","",""
"","feedback","","html-keyboard-response","34","75670","0.0-1.0-42.0-0.0","0","0","73939","","null","","","null","4","","","","","","","","","","","","","","","",""
"","time_out","","html-keyboard-response","35","77675","0.0-1.0-44.0-0.0","0","0","73939","","null","","","null","4","","","","","","","","","","","","","","","",""
"","ITI","","html-keyboard-response","36","78678","0.0-1.0-45.0","0","0","73939","","null","","","null","4","","","","","","","","","","","","","","","NaN",""
"","S1","","html-keyboard-response","37","78838","0.0-1.0-47.0","0","0","73939","","null","","","null","5","","","","","","","","","","","","","","","",""
"","ISI","","html-keyboard-response","38","80843","0.0-1.0-48.0","0","0","73939","","null","","","null","5","NaN","","","","","","","","","","","","","","",""
"","S2","","html-keyboard-response","39","80999","0.0-1.0-49.0","0","0","73939","","null","","","null","5","","NaN","","","","","","","","","","","","","",""
"","response","","html-keyboard-response","40","81163","0.0-1.0-50.0-0.0","0","0","73939","","162","","","75","5","","","1","5","training","adjacent","EF","5","6","O.jpg","M.jpg","1","1","1","",""
"","feedback","","html-keyboard-response","41","82176","0.0-1.0-51.0-0.0","0","0","73939","","null","","","null","5","","","","","","","","","","","","","","","",""
"","ITI","","html-keyboard-response","42","83190","0.0-1.0-54.0","0","0","73939","","null","","","null","5","","","","","","","","","","","","","","","NaN",""
"","S1","","html-keyboard-response","43","83347","0.0-1.0-56.0","0","0","73939","","null","","","null","6","","","","","","","","","","","","","","","",""
"","ISI","","html-keyboard-response","44","85351","0.0-1.0-57.0","0","0","73939","","null","","","null","6","NaN","","","","","","","","","","","","","","",""
"","S2","","html-keyboard-response","45","85509","0.0-1.0-58.0","0","0","73939","","null","","","null","6","","NaN","","","","","","","","","","","","","",""
"","response","","html-keyboard-response","46","86066","0.0-1.0-59.0-0.0","0","0","73939","","555","","","68","6","","","1","6","training","adjacent","AB","1","2","N.jpg","P.jpg","0","1","0","",""
"","feedback","","html-keyboard-response","47","87069","0.0-1.0-60.0-0.0","0","0","73939","","null","","","null","6","","","","","","","","","","","","","","","",""
"","time_out","","html-keyboard-response","48","89085","0.0-1.0-62.0-0.0","0","0","73939","","null","","","null","6","","","","","","","","","","","","","","","",""
"","ITI","","html-keyboard-response","49","90089","0.0-1.0-63.0","0","0","73939","","null","","","null","6","","","","","","","","","","","","","","","NaN",""
"","S1","","html-keyboard-response","50","90244","0.0-1.0-65.0","0","0","73939","","null","","","null","7","","","","","","","","","","","","","","","",""
"","ISI","","html-keyboard-response","51","92247","0.0-1.0-66.0","0","0","73939","","null","","","null","7","NaN","","","","","","","","","","","","","","",""
"","S2","","html-keyboard-response","52","92403","0.0-1.0-67.0","0","0","73939","","null","","","null","7","","NaN","","","","","","","","","","","","","",""
"","response","","html-keyboard-response","53","92486","0.0-1.0-68.0-0.0","0","0","73939","","81","","","75","7","","","1","7","training","adjacent","ED","5","4","O.jpg","Q.jpg","1","0","0","",""
"","feedback","","html-keyboard-response","54","93500","0.0-1.0-69.0-0.0","0","0","73939","","null","","","null","7","","","","","","","","","","","","","","","",""
"","time_out","","html-keyboard-response","55","95511","0.0-1.0-71.0-0.0","0","0","73939","","null","","","null","7","","","","","","","","","","","","","","","",""
"","ITI","","html-keyboard-response","56","96520","0.0-1.0-72.0","0","0","73939","","null","","","null","7","","","","","","","","","","","","","","","NaN",""
"","S1","","html-keyboard-response","57","96679","0.0-1.0-74.0","0","0","73939","","null","","","null","8","","","","","","","","","","","","","","","",""
"","ISI","","html-keyboard-response","58","98684","0.0-1.0-75.0","0","0","73939","","null","","","null","8","NaN","","","","","","","","","","","","","","",""
"","S2","","html-keyboard-response","59","98841","0.0-1.0-76.0","0","0","73939","","null","","","null","8","","NaN","","","","","","","","","","","","","",""
"","response","","html-keyboard-response","60","99891","0.0-1.0-77.0-0.0","0","0","73939","","1049","","","68","8","","","1","8","training","adjacent","BC","2","3","P.jpg","L.jpg","0","1","0","",""
"","feedback","","html-keyboard-response","61","100904","0.0-1.0-78.0-0.0","0","0","73939","","null","","","null","8","","","","","","","","","","","","","","","",""
"","time_out","","html-keyboard-response","62","102916","0.0-1.0-80.0-0.0","0","0","73939","","null","","","null","8","","","","","","","","","","","","","","","",""
"","ITI","","html-keyboard-response","63","103919","0.0-1.0-81.0","0","0","73939","","null","","","null","8","","","","","","","","","","","","","","","NaN",""
"","S1","","html-keyboard-response","64","104075","0.0-1.0-83.0","0","0","73939","","null","","","null","9","","","","","","","","","","","","","","","",""
"","ISI","","html-keyboard-response","65","106079","0.0-1.0-84.0","0","0","73939","","null","","","null","9","NaN","","","","","","","","","","","","","","",""
"","S2","","html-keyboard-response","66","106236","0.0-1.0-85.0","0","0","73939","","null","","","null","9","","NaN","","","","","","","","","","","","","",""
"","response","","html-keyboard-response","67","106521","0.0-1.0-86.0-0.0","0","0","73939","","282","","","75","9","","","1","9","training","adjacent","EF","5","6","O.jpg","M.jpg","1","1","1","",""
"","feedback","","html-keyboard-response","68","107532","0.0-1.0-87.0-0.0","0","0","73939","","null","","","null","9","","","","","","","","","","","","","","","",""
"","ITI","","html-keyboard-response","69","108540","0.0-1.0-90.0","0","0","73939","","null","","","null","9","","","","","","","","","","","","","","","NaN",""
"","S1","","html-keyboard-response","70","108697","0.0-1.0-92.0","0","0","73939","","null","","","null","10","","","","","","","","","","","","","","","",""
"","ISI","","html-keyboard-response","71","110700","0.0-1.0-93.0","0","0","73939","","null","","","null","10","NaN","","","","","","","","","","","","","","",""
"","S2","","html-keyboard-response","72","110860","0.0-1.0-94.0","0","0","73939","","null","","","null","10","","NaN","","","","","","","","","","","","","",""
"","response","","html-keyboard-response","73","111980","0.0-1.0-95.0-0.0","0","0","73939","","1118","","","75","10","","","1","10","training","adjacent","CD","3","4","L.jpg","Q.jpg","1","1","1","",""
"","feedback","","html-keyboard-response","74","112984","0.0-1.0-96.0-0.0","0","0","73939","","null","","","null","10","","","","","","","","","","","","","","","",""
"","ITI","","html-keyboard-response","75","113988","0.0-1.0-99.0","0","0","73939","","null","","","null","10","","","","","","","","","","","","","","","NaN",""
"","S1","","html-keyboard-response","76","114148","0.0-1.0-101.0","0","0","73939","","null","","","null","11","","","","","","","","","","","","","","","",""
"","ISI","","html-keyboard-response","77","116163","0.0-1.0-102.0","0","0","73939","","null","","","null","11","NaN","","","","","","","","","","","","","","",""
"","S2","","html-keyboard-response","78","116323","0.0-1.0-103.0","0","0","73939","","null","","","null","11","","NaN","","","","","","","","","","","","","",""
"","response","","html-keyboard-response","79","116664","0.0-1.0-104.0-0.0","0","0","73939","","339","","","68","11","","","1","11","training","adjacent","DE","4","5","Q.jpg","O.jpg","0","1","0","",""
"","feedback","","html-keyboard-response","80","117668","0.0-1.0-105.0-0.0","0","0","73939","","null","","","null","11","","","","","","","","","","","","","","","",""
"","time_out","","html-keyboard-response","81","119671","0.0-1.0-107.0-0.0","0","0","73939","","null","","","null","11","","","","","","","","","","","","","","","",""
"","ITI","","html-keyboard-response","82","120674","0.0-1.0-108.0","0","0","73939","","null","","","null","11","","","","","","","","","","","","","","","NaN",""
"","S1","","html-keyboard-response","83","120829","0.0-1.0-110.0","0","0","73939","","null","","","null","12","","","","","","","","","","","","","","","",""
"","ISI","","html-keyboard-response","84","122838","0.0-1.0-111.0","0","0","73939","","null","","","null","12","NaN","","","","","","","","","","","","","","",""
"","S2","","html-keyboard-response","85","123009","0.0-1.0-112.0","0","0","73939","","null","","","null","12","","NaN","","","","","","","","","","","","","",""
"","response","","html-keyboard-response","86","123701","0.0-1.0-113.0-0.0","0","0","73939","","690","","","75","12","","","1","12","training","adjacent","CB","3","2","L.jpg","P.jpg","1","0","0","",""
"","feedback","","html-keyboard-response","87","124711","0.0-1.0-114.0-0.0","0","0","73939","","null","","","null","12","","","","","","","","","","","","","","","",""
"","time_out","","html-keyboard-response","88","126717","0.0-1.0-116.0-0.0","0","0","73939","","null","","","null","12","","","","","","","","","","","","","","","",""
"","ITI","","html-keyboard-response","89","127728","0.0-1.0-117.0","0","0","73939","","null","","","null","12","","","","","","","","","","","","","","","NaN",""
"","S1","","html-keyboard-response","90","127881","0.0-1.0-119.0","0","0","73939","","null","","","null","13","","","","","","","","","","","","","","","",""
"","ISI","","html-keyboard-response","91","129884","0.0-1.0-120.0","0","0","73939","","null","","","null","13","NaN","","","","","","","","","","","","","","",""
"","S2","","html-keyboard-response","92","130039","0.0-1.0-121.0","0","0","73939","","null","","","null","13","","NaN","","","","","","","","","","","","","",""
"","response","","html-keyboard-response","93","131192","0.0-1.0-122.0-0.0","0","0","73939","","1151","","","68","13","","","1","13","training","adjacent","FG","6","7","M.jpg","R.jpg","0","1","0","",""
"","feedback","","html-keyboard-response","94","132205","0.0-1.0-123.0-0.0","0","0","73939","","null","","","null","13","","","","","","","","","","","","","","","",""
"","time_out","","html-keyboard-response","95","134212","0.0-1.0-125.0-0.0","0","0","73939","","null","","","null","13","","","","","","","","","","","","","","","",""
"","ITI","","html-keyboard-response","96","135217","0.0-1.0-126.0","0","0","73939","","null","","","null","13","","","","","","","","","","","","","","","NaN",""
"","S1","","html-keyboard-response","97","135373","0.0-1.0-128.0","0","0","73939","","null","","","null","14","","","","","","","","","","","","","","","",""
"","ISI","","html-keyboard-response","98","137377","0.0-1.0-129.0","0","0","73939","","null","","","null","14","NaN","","","","","","","","","","","","","","",""
"","S2","","html-keyboard-response","99","137533","0.0-1.0-130.0","0","0","73939","","null","","","null","14","","NaN","","","","","","","","","","","","","",""
"","response","","html-keyboard-response","100","138624","0.0-1.0-131.0-0.0","0","0","73939","","1088","","","68","14","","","1","14","training","adjacent","FG","6","7","M.jpg","R.jpg","0","1","0","",""
"","feedback","","html-keyboard-response","101","139632","0.0-1.0-132.0-0.0","0","0","73939","","null","","","null","14","","","","","","","","","","","","","","","",""
"","time_out","","html-keyboard-response","102","141637","0.0-1.0-134.0-0.0","0","0","73939","","null","","","null","14","","","","","","","","","","","","","","","",""
"","ITI","","html-keyboard-response","103","142641","0.0-1.0-135.0","0","0","73939","","null","","","null","14","","","","","","","","","","","","","","","NaN",""
"","S1","","html-keyboard-response","104","142802","0.0-1.0-137.0","0","0","73939","","null","","","null","15","","","","","","","","","","","","","","","",""
"","ISI","","html-keyboard-response","105","144805","0.0-1.0-138.0","0","0","73939","","null","","","null","15","NaN","","","","","","","","","","","","","","",""
"","S2","","html-keyboard-response","106","144960","0.0-1.0-139.0","0","0","73939","","null","","","null","15","","NaN","","","","","","","","","","","","","",""
"","response","","html-keyboard-response","107","145738","0.0-1.0-140.0-0.0","0","0","73939","","775","","","75","15","","","1","15","training","adjacent","DC","4","3","Q.jpg","L.jpg","1","0","0","",""
"","feedback","","html-keyboard-response","108","146756","0.0-1.0-141.0-0.0","0","0","73939","","null","","","null","15","","","","","","","","","","","","","","","",""
"","time_out","","html-keyboard-response","109","148766","0.0-1.0-143.0-0.0","0","0","73939","","null","","","null","15","","","","","","","","","","","","","","","",""
"","ITI","","html-keyboard-response","110","149774","0.0-1.0-144.0","0","0","73939","","null","","","null","15","","","","","","","","","","","","","","","NaN",""
"","S1","","html-keyboard-response","111","149930","0.0-1.0-146.0","0","0","73939","","null","","","null","16","","","","","","","","","","","","","","","",""
"","ISI","","html-keyboard-response","112","151937","0.0-1.0-147.0","0","0","73939","","null","","","null","16","NaN","","","","","","","","","","","","","","",""
"","S2","","html-keyboard-response","113","152099","0.0-1.0-148.0","0","0","73939","","null","","","null","16","","NaN","","","","","","","","","","","","","",""
"","response","","html-keyboard-response","114","152611","0.0-1.0-149.0-0.0","0","0","73939","","509","","","75","16","","","1","16","training","adjacent","CD","3","4","L.jpg","Q.jpg","1","1","1","",""
"","feedback","","html-keyboard-response","115","153619","0.0-1.0-150.0-0.0","0","0","73939","","null","","","null","16","","","","","","","","","","","","","","","",""
"","ITI","","html-keyboard-response","116","154626","0.0-1.0-153.0","0","0","73939","","null","","","null","16","","","","","","","","","","","","","","","NaN",""
"","S1","","html-keyboard-response","117","154785","0.0-1.0-155.0","0","0","73939","","null","","","null","17","","","","","","","","","","","","","","","",""
"","ISI","","html-keyboard-response","118","156791","0.0-1.0-156.0","0","0","73939","","null","","","null","17","NaN","","","","","","","","","","","","","","",""
"","S2","","html-keyboard-response","119","156946","0.0-1.0-157.0","0","0","73939","","null","","","null","17","","NaN","","","","","","","","","","","","","",""
"","response","","html-keyboard-response","120","158023","0.0-1.0-158.0-0.0","0","0","73939","","1076","","","68","17","","","1","17","training","adjacent","FE","6","5","M.jpg","O.jpg","0","0","1","",""
"","feedback","","html-keyboard-response","121","159042","0.0-1.0-159.0-0.0","0","0","73939","","null","","","null","17","","","","","","","","","","","","","","","",""
"","ITI","","html-keyboard-response","122","160046","0.0-1.0-162.0","0","0","73939","","null","","","null","17","","","","","","","","","","","","","","","NaN",""
"","S1","","html-keyboard-response","123","160208","0.0-1.0-164.0","0","0","73939","","null","","","null","18","","","","","","","","","","","","","","","",""
"","ISI","","html-keyboard-response","124","162217","0.0-1.0-165.0","0","0","73939","","null","","","null","18","NaN","","","","","","","","","","","","","","",""
"","S2","","html-keyboard-response","125","162373","0.0-1.0-166.0","0","0","73939","","null","","","null","18","","NaN","","","","","","","","","","","","","",""
"","response","","html-keyboard-response","126","163267","0.0-1.0-167.0-0.0","0","0","73939","","891","","","75","18","","","1","18","training","adjacent","CD","3","4","L.jpg","Q.jpg","1","1","1","",""
"","feedback","","html-keyboard-response","127","164280","0.0-1.0-168.0-0.0","0","0","73939","","null","","","null","18","","","","","","","","","","","","","","","",""
"","ITI","","html-keyboard-response","128","165284","0.0-1.0-171.0","0","0","73939","","null","","","null","18","","","","","","","","","","","","","","","NaN",""
"","S1","","html-keyboard-response","129","165441","0.0-1.0-173.0","0","0","73939","","null","","","null","19","","","","","","","","","","","","","","","",""
"","ISI","","html-keyboard-response","130","167448","0.0-1.0-174.0","0","0","73939","","null","","","null","19","NaN","","","","","","","","","","","","","","",""
"","S2","","html-keyboard-response","131","167609","0.0-1.0-175.0","0","0","73939","","null","","","null","19","","NaN","","","","","","","","","","","","","",""
"","response","","html-keyboard-response","132","168943","0.0-1.0-176.0-0.0","0","0","73939","","1331","","","75","19","","","1","19","training","adjacent","BC","2","3","P.jpg","L.jpg","1","1","1","",""
"","feedback","","html-keyboard-response","133","169949","0.0-1.0-177.0-0.0","0","0","73939","","null","","","null","19","","","","","","","","","","","","","","","",""
"","ITI","","html-keyboard-response","134","170958","0.0-1.0-180.0","0","0","73939","","null","","","null","19","","","","","","","","","","","","","","","NaN",""
"","S1","","html-keyboard-response","135","171112","0.0-1.0-182.0","0","0","73939","","null","","","null","20","","","","","","","","","","","","","","","",""
"","ISI","","html-keyboard-response","136","173119","0.0-1.0-183.0","0","0","73939","","null","","","null","20","NaN","","","","","","","","","","","","","","",""
"","S2","","html-keyboard-response","137","173275","0.0-1.0-184.0","0","0","73939","","null","","","null","20","","NaN","","","","","","","","","","","","","",""
"","response","","html-keyboard-response","138","174037","0.0-1.0-185.0-0.0","0","0","73939","","759","","","68","20","","","1","20","training","adjacent","DE","4","5","Q.jpg","O.jpg","0","1","0","",""
"","feedback","","html-keyboard-response","139","175047","0.0-1.0-186.0-0.0","0","0","73939","","null","","","null","20","","","","","","","","","","","","","","","",""
"","time_out","","html-keyboard-response","140","177051","0.0-1.0-188.0-0.0","0","0","73939","","null","","","null","20","","","","","","","","","","","","","","","",""
"","ITI","","html-keyboard-response","141","178056","0.0-1.0-189.0","0","0","73939","","null","","","null","20","","","","","","","","","","","","","","","NaN",""
"","S1","","html-keyboard-response","142","178212","0.0-1.0-191.0","0","0","73939","","null","","","null","21","","","","","","","","","","","","","","","",""
"","ISI","","html-keyboard-response","143","180221","0.0-1.0-192.0","0","0","73939","","null","","","null","21","NaN","","","","","","","","","","","","","","",""
"","S2","","html-keyboard-response","144","180377","0.0-1.0-193.0","0","0","73939","","null","","","null","21","","NaN","","","","","","","","","","","","","",""
"","response","","html-keyboard-response","145","181547","0.0-1.0-194.0-0.0","0","0","73939","","1168","","","68","21","","","1","21","training","adjacent","BA","2","1","P.jpg","N.jpg","0","0","1","",""
"","feedback","","html-keyboard-response","146","182552","0.0-1.0-195.0-0.0","0","0","73939","","null","","","null","21","","","","","","","","","","","","","","","",""
"","ITI","","html-keyboard-response","147","183555","0.0-1.0-198.0","0","0","73939","","null","","","null","21","","","","","","","","","","","","","","","NaN",""
"","S1","","html-keyboard-response","148","183713","0.0-1.0-200.0","0","0","73939","","null","","","null","22","","","","","","","","","","","","","","","",""
"","ISI","","html-keyboard-response","149","185722","0.0-1.0-201.0","0","0","73939","","null","","","null","22","NaN","","","","","","","","","","","","","","",""
"","S2","","html-keyboard-response","150","185878","0.0-1.0-202.0","0","0","73939","","null","","","null","22","","NaN","","","","","","","","","","","","","",""
"","response","","html-keyboard-response","151","187015","0.0-1.0-203.0-0.0","0","0","73939","","1136","","","68","22","","","1","22","training","adjacent","BC","2","3","P.jpg","L.jpg","0","1","0","",""
"","feedback","","html-keyboard-response","152","188021","0.0-1.0-204.0-0.0","0","0","73939","","null","","","null","22","","","","","","","","","","","","","","","",""
"","time_out","","html-keyboard-response","153","190028","0.0-1.0-206.0-0.0","0","0","73939","","null","","","null","22","","","","","","","","","","","","","","","",""
"","ITI","","html-keyboard-response","154","191033","0.0-1.0-207.0","0","0","73939","","null","","","null","22","","","","","","","","","","","","","","","NaN",""
"","S1","","html-keyboard-response","155","191193","0.0-1.0-209.0","0","0","73939","","null","","","null","23","","","","","","","","","","","","","","","",""
"","ISI","","html-keyboard-response","156","193200","0.0-1.0-210.0","0","0","73939","","null","","","null","23","NaN","","","","","","","","","","","","","","",""
"","S2","","html-keyboard-response","157","193355","0.0-1.0-211.0","0","0","73939","","null","","","null","23","","NaN","","","","","","","","","","","","","",""
"","response","","html-keyboard-response","158","193631","0.0-1.0-212.0-0.0","0","0","73939","","273","","","68","23","","","1","23","training","adjacent","CB","3","2","L.jpg","P.jpg","0","0","1","",""
"","feedback","","html-keyboard-response","159","194640","0.0-1.0-213.0-0.0","0","0","73939","","null","","","null","23","","","","","","","","","","","","","","","",""
"","ITI","","html-keyboard-response","160","195646","0.0-1.0-216.0","0","0","73939","","null","","","null","23","","","","","","","","","","","","","","","NaN",""
"","S1","","html-keyboard-response","161","195804","0.0-1.0-218.0","0","0","73939","","null","","","null","24","","","","","","","","","","","","","","","",""
"","ISI","","html-keyboard-response","162","197808","0.0-1.0-219.0","0","0","73939","","null","","","null","24","NaN","","","","","","","","","","","","","","",""
"","S2","","html-keyboard-response","163","197966","0.0-1.0-220.0","0","0","73939","","null","","","null","24","","NaN","","","","","","","","","","","","","",""
"","response","","html-keyboard-response","164","199230","0.0-1.0-221.0-0.0","0","0","73939","","1262","","","68","24","","","1","24","training","adjacent","BA","2","1","P.jpg","N.jpg","0","0","1","",""
"","feedback","","html-keyboard-response","165","200235","0.0-1.0-222.0-0.0","0","0","73939","","null","","","null","24","","","","","","","","","","","","","","","",""
"","ITI","","html-keyboard-response","166","201243","0.0-1.0-225.0","0","0","73939","","null","","","null","24","","","","","","","","","","","","","","","NaN",""
"","S1","","html-keyboard-response","167","201399","0.0-1.0-227.0","0","0","73939","","null","","","null","25","","","","","","","","","","","","","","","",""
"","ISI","","html-keyboard-response","168","203403","0.0-1.0-228.0","0","0","73939","","null","","","null","25","NaN","","","","","","","","","","","","","","",""
"","S2","","html-keyboard-response","169","203561","0.0-1.0-229.0","0","0","73939","","null","","","null","25","","NaN","","","","","","","","","","","","","",""
"","response","","html-keyboard-response","170","205128","0.0-1.0-230.0-0.0","0","0","73939","","1564","","","75","25","","","1","25","training","adjacent","DC","4","3","Q.jpg","L.jpg","1","0","0","",""
"","feedback","","html-keyboard-response","171","206145","0.0-1.0-231.0-0.0","0","0","73939","","null","","","null","25","","","","","","","","","","","","","","","",""
"","time_out","","html-keyboard-response","172","208151","0.0-1.0-233.0-0.0","0","0","73939","","null","","","null","25","","","","","","","","","","","","","","","",""
"","ITI","","html-keyboard-response","173","209164","0.0-1.0-234.0","0","0","73939","","null","","","null","25","","","","","","","","","","","","","","","NaN",""
"","S1","","html-keyboard-response","174","209322","0.0-1.0-236.0","0","0","73939","","null","","","null","26","","","","","","","","","","","","","","","",""
"","ISI","","html-keyboard-response","175","211327","0.0-1.0-237.0","0","0","73939","","null","","","null","26","NaN","","","","","","","","","","","","","","",""
"","S2","","html-keyboard-response","176","211484","0.0-1.0-238.0","0","0","73939","","null","","","null","26","","NaN","","","","","","","","","","","","","",""
"","response","","html-keyboard-response","177","212395","0.0-1.0-239.0-0.0","0","0","73939","","908","","","68","26","","","1","26","training","adjacent","DC","4","3","Q.jpg","L.jpg","0","0","1","",""
"","feedback","","html-keyboard-response","178","213413","0.0-1.0-240.0-0.0","0","0","73939","","null","","","null","26","","","","","","","","","","","","","","","",""
"","ITI","","html-keyboard-response","179","214424","0.0-1.0-243.0","0","0","73939","","null","","","null","26","","","","","","","","","","","","","","","NaN",""
"","S1","","html-keyboard-response","180","214580","0.0-1.0-245.0","0","0","73939","","null","","","null","27","","","","","","","","","","","","","","","",""
"","ISI","","html-keyboard-response","181","216590","0.0-1.0-246.0","0","0","73939","","null","","","null","27","NaN","","","","","","","","","","","","","","",""
"","S2","","html-keyboard-response","182","216744","0.0-1.0-247.0","0","0","73939","","null","","","null","27","","NaN","","","","","","","","","","","","","",""
"","response","","html-keyboard-response","183","217829","0.0-1.0-248.0-0.0","0","0","73939","","1084","","","75","27","","","1","27","training","adjacent","DE","4","5","Q.jpg","O.jpg","1","1","1","",""
"","feedback","","html-keyboard-response","184","218836","0.0-1.0-249.0-0.0","0","0","73939","","null","","","null","27","","","","","","","","","","","","","","","",""
"","ITI","","html-keyboard-response","185","219840","0.0-1.0-252.0","0","0","73939","","null","","","null","27","","","","","","","","","","","","","","","NaN",""
"","S1","","html-keyboard-response","186","219997","0.0-1.0-254.0","0","0","73939","","null","","","null","28","","","","","","","","","","","","","","","",""
"","ISI","","html-keyboard-response","187","222003","0.0-1.0-255.0","0","0","73939","","null","","","null","28","NaN","","","","","","","","","","","","","","",""
"","S2","","html-keyboard-response","188","222156","0.0-1.0-256.0","0","0","73939","","null","","","null","28","","NaN","","","","","","","","","","","","","",""
"","response","","html-keyboard-response","189","223116","0.0-1.0-257.0-0.0","0","0","73939","","957","","","68","28","","","1","28","training","adjacent","CB","3","2","L.jpg","P.jpg","0","0","1","",""
"","feedback","","html-keyboard-response","190","224127","0.0-1.0-258.0-0.0","0","0","73939","","null","","","null","28","","","","","","","","","","","","","","","",""
"","ITI","","html-keyboard-response","191","225135","0.0-1.0-261.0","0","0","73939","","null","","","null","28","","","","","","","","","","","","","","","NaN",""
"","S1","","html-keyboard-response","192","225294","0.0-1.0-263.0","0","0","73939","","null","","","null","29","","","","","","","","","","","","","","","",""
"","ISI","","html-keyboard-response","193","227304","0.0-1.0-264.0","0","0","73939","","null","","","null","29","NaN","","","","","","","","","","","","","","",""
"","S2","","html-keyboard-response","194","227459","0.0-1.0-265.0","0","0","73939","","null","","","null","29","","NaN","","","","","","","","","","","","","",""
"","response","","html-keyboard-response","195","227634","0.0-1.0-266.0-0.0","0","0","73939","","172","","","75","29","","","1","29","training","adjacent","AB","1","2","N.jpg","P.jpg","1","1","1","",""
"","feedback","","html-keyboard-response","196","228642","0.0-1.0-267.0-0.0","0","0","73939","","null","","","null","29","","","","","","","","","","","","","","","",""
"","ITI","","html-keyboard-response","197","229648","0.0-1.0-270.0","0","0","73939","","null","","","null","29","","","","","","","","","","","","","","","NaN",""
"","S1","","html-keyboard-response","198","229807","0.0-1.0-272.0","0","0","73939","","null","","","null","30","","","","","","","","","","","","","","","",""
"","ISI","","html-keyboard-response","199","231811","0.0-1.0-273.0","0","0","73939","","null","","","null","30","NaN","","","","","","","","","","","","","","",""
"","S2","","html-keyboard-response","200","231966","0.0-1.0-274.0","0","0","73939","","null","","","null","30","","NaN","","","","","","","","","","","","","",""
"","response","","html-keyboard-response","201","232896","0.0-1.0-275.0-0.0","0","0","73939","","929","","","75","30","","","1","30","training","adjacent","ED","5","4","O.jpg","Q.jpg","1","0","0","",""
"","feedback","","html-keyboard-response","202","233903","0.0-1.0-276.0-0.0","0","0","73939","","null","","","null","30","","","","","","","","","","","","","","","",""
"","time_out","","html-keyboard-response","203","235914","0.0-1.0-278.0-0.0","0","0","73939","","null","","","null","30","","","","","","","","","","","","","","","",""
"","ITI","","html-keyboard-response","204","236921","0.0-1.0-279.0","0","0","73939","","null","","","null","30","","","","","","","","","","","","","","","NaN",""
"","S1","","html-keyboard-response","205","237076","0.0-1.0-281.0","0","0","73939","","null","","","null","31","","","","","","","","","","","","","","","",""
"","ISI","","html-keyboard-response","206","239081","0.0-1.0-282.0","0","0","73939","","null","","","null","31","NaN","","","","","","","","","","","","","","",""
"","S2","","html-keyboard-response","207","239238","0.0-1.0-283.0","0","0","73939","","null","","","null","31","","NaN","","","","","","","","","","","","","",""
"","response","","html-keyboard-response","208","240187","0.0-1.0-284.0-0.0","0","0","73939","","947","","","68","31","","","1","31","training","adjacent","ED","5","4","O.jpg","Q.jpg","0","0","1","",""
"","feedback","","html-keyboard-response","209","241194","0.0-1.0-285.0-0.0","0","0","73939","","null","","","null","31","","","","","","","","","","","","","","","",""
"","ITI","","html-keyboard-response","210","242198","0.0-1.0-288.0","0","0","73939","","null","","","null","31","","","","","","","","","","","","","","","NaN",""
"","S1","","html-keyboard-response","211","242354","0.0-1.0-290.0","0","0","73939","","null","","","null","32","","","","","","","","","","","","","","","",""
"","ISI","","html-keyboard-response","212","244358","0.0-1.0-291.0","0","0","73939","","null","","","null","32","NaN","","","","","","","","","","","","","","",""
"","S2","","html-keyboard-response","213","244518","0.0-1.0-292.0","0","0","73939","","null","","","null","32","","NaN","","","","","","","","","","","","","",""
"","response","","html-keyboard-response","214","245425","0.0-1.0-293.0-0.0","0","0","73939","","904","","","75","32","","","1","32","training","adjacent","BC","2","3","P.jpg","L.jpg","1","1","1","",""
"","feedback","","html-keyboard-response","215","246436","0.0-1.0-294.0-0.0","0","0","73939","","null","","","null","32","","","","","","","","","","","","","","","",""
"","ITI","","html-keyboard-response","216","247445","0.0-1.0-297.0","0","0","73939","","null","","","null","32","","","","","","","","","","","","","","","NaN",""
"","S1","","html-keyboard-response","217","247604","0.0-1.0-299.0","0","0","73939","","null","","","null","33","","","","","","","","","","","","","","","",""
"","ISI","","html-keyboard-response","218","249607","0.0-1.0-300.0","0","0","73939","","null","","","null","33","NaN","","","","","","","","","","","","","","",""
"","S2","","html-keyboard-response","219","249761","0.0-1.0-301.0","0","0","73939","","null","","","null","33","","NaN","","","","","","","","","","","","","",""
"","response","","html-keyboard-response","220","250888","0.0-1.0-302.0-0.0","0","0","73939","","1125","","","68","33","","","1","33","training","adjacent","ED","5","4","O.jpg","Q.jpg","0","0","1","",""
"","feedback","","html-keyboard-response","221","251896","0.0-1.0-303.0-0.0","0","0","73939","","null","","","null","33","","","","","","","","","","","","","","","",""
"","ITI","","html-keyboard-response","222","252905","0.0-1.0-306.0","0","0","73939","","null","","","null","33","","","","","","","","","","","","","","","NaN",""
"","S1","","html-keyboard-response","223","253061","0.0-1.0-308.0","0","0","73939","","null","","","null","34","","","","","","","","","","","","","","","",""
"","ISI","","html-keyboard-response","224","255067","0.0-1.0-309.0","0","0","73939","","null","","","null","34","NaN","","","","","","","","","","","","","","",""
"","S2","","html-keyboard-response","225","255224","0.0-1.0-310.0","0","0","73939","","null","","","null","34","","NaN","","","","","","","","","","","","","",""
"","response","","html-keyboard-response","226","255311","0.0-1.0-311.0-0.0","0","0","73939","","84","","","68","34","","","1","34","training","adjacent","CD","3","4","L.jpg","Q.jpg","0","1","0","",""
"","feedback","","html-keyboard-response","227","256315","0.0-1.0-312.0-0.0","0","0","73939","","null","","","null","34","","","","","","","","","","","","","","","",""
"","time_out","","html-keyboard-response","228","258323","0.0-1.0-314.0-0.0","0","0","73939","","null","","","null","34","","","","","","","","","","","","","","","",""
"","ITI","","html-keyboard-response","229","259334","0.0-1.0-315.0","0","0","73939","","null","","","null","34","","","","","","","","","","","","","","","NaN",""
"","S1","","html-keyboard-response","230","259491","0.0-1.0-317.0","0","0","73939","","null","","","null","35","","","","","","","","","","","","","","","",""
"","ISI","","html-keyboard-response","231","261495","0.0-1.0-318.0","0","0","73939","","null","","","null","35","NaN","","","","","","","","","","","","","","",""
"","S2","","html-keyboard-response","232","261653","0.0-1.0-319.0","0","0","73939","","null","","","null","35","","NaN","","","","","","","","","","","","","",""
"","response","","html-keyboard-response","233","261772","0.0-1.0-320.0-0.0","0","0","73939","","116","","","75","35","","","1","35","training","adjacent","AB","1","2","N.jpg","P.jpg","1","1","1","",""
"","feedback","","html-keyboard-response","234","262790","0.0-1.0-321.0-0.0","0","0","73939","","null","","","null","35","","","","","","","","","","","","","","","",""
"","ITI","","html-keyboard-response","235","263796","0.0-1.0-324.0","0","0","73939","","null","","","null","35","","","","","","","","","","","","","","","NaN",""
"","S1","","html-keyboard-response","236","263956","0.0-1.0-326.0","0","0","73939","","null","","","null","36","","","","","","","","","","","","","","","",""
"","ISI","","html-keyboard-response","237","265974","0.0-1.0-327.0","0","0","73939","","null","","","null","36","NaN","","","","","","","","","","","","","","",""
"","S2","","html-keyboard-response","238","266135","0.0-1.0-328.0","0","0","73939","","null","","","null","36","","NaN","","","","","","","","","","","","","",""
"","response","","html-keyboard-response","239","266352","0.0-1.0-329.0-0.0","0","0","73939","","214","","","75","36","","","1","36","training","adjacent","AB","1","2","N.jpg","P.jpg","1","1","1","",""
"","feedback","","html-keyboard-response","240","267367","0.0-1.0-330.0-0.0","0","0","73939","","null","","","null","36","","","","","","","","","","","","","","","",""
"","ITI","","html-keyboard-response","241","268377","0.0-1.0-333.0","0","0","73939","","null","","","null","36","","","","","","","","","","","","","","","NaN",""
"","S1","","html-keyboard-response","242","268532","0.0-1.0-335.0","0","0","73939","","null","","","null","37","","","","","","","","","","","","","","","",""
"","ISI","","html-keyboard-response","243","270538","0.0-1.0-336.0","0","0","73939","","null","","","null","37","NaN","","","","","","","","","","","","","","",""
"","S2","","html-keyboard-response","244","270693","0.0-1.0-337.0","0","0","73939","","null","","","null","37","","NaN","","","","","","","","","","","","","",""
"","response","","html-keyboard-response","245","271591","0.0-1.0-338.0-0.0","0","0","73939","","897","","","75","37","","","1","37","training","adjacent","DC","4","3","Q.jpg","L.jpg","1","0","0","",""
"","feedback","","html-keyboard-response","246","272597","0.0-1.0-339.0-0.0","0","0","73939","","null","","","null","37","","","","","","","","","","","","","","","",""
"","time_out","","html-keyboard-response","247","274607","0.0-1.0-341.0-0.0","0","0","73939","","null","","","null","37","","","","","","","","","","","","","","","",""
"","ITI","","html-keyboard-response","248","275611","0.0-1.0-342.0","0","0","73939","","null","","","null","37","","","","","","","","","","","","","","","NaN",""
"","S1","","html-keyboard-response","249","275778","0.0-1.0-344.0","0","0","73939","","null","","","null","38","","","","","","","","","","","","","","","",""
"","ISI","","html-keyboard-response","250","277788","0.0-1.0-345.0","0","0","73939","","null","","","null","38","NaN","","","","","","","","","","","","","","",""
"","S2","","html-keyboard-response","251","277944","0.0-1.0-346.0","0","0","73939","","null","","","null","38","","NaN","","","","","","","","","","","","","",""
"","response","","html-keyboard-response","252","279198","0.0-1.0-347.0-0.0","0","0","73939","","1252","","","68","38","","","1","38","training","adjacent","GF","7","6","R.jpg","M.jpg","0","0","1","",""
"","feedback","","html-keyboard-response","253","280209","0.0-1.0-348.0-0.0","0","0","73939","","null","","","null","38","","","","","","","","","","","","","","","",""
"","ITI","","html-keyboard-response","254","281219","0.0-1.0-351.0","0","0","73939","","null","","","null","38","","","","","","","","","","","","","","","NaN",""
"","S1","","html-keyboard-response","255","281374","0.0-1.0-353.0","0","0","73939","","null","","","null","39","","","","","","","","","","","","","","","",""
"","ISI","","html-keyboard-response","256","283381","0.0-1.0-354.0","0","0","73939","","null","","","null","39","NaN","","","","","","","","","","","","","","",""
"","S2","","html-keyboard-response","257","283540","0.0-1.0-355.0","0","0","73939","","null","","","null","39","","NaN","","","","","","","","","","","","","",""
"","response","","html-keyboard-response","258","284481","0.0-1.0-356.0-0.0","0","0","73939","","938","","","68","39","","","1","39","training","adjacent","GF","7","6","R.jpg","M.jpg","0","0","1","",""
"","feedback","","html-keyboard-response","259","285490","0.0-1.0-357.0-0.0","0","0","73939","","null","","","null","39","","","","","","","","","","","","","","","",""
"","ITI","","html-keyboard-response","260","286498","0.0-1.0-360.0","0","0","73939","","null","","","null","39","","","","","","","","","","","","","","","NaN",""
"","S1","","html-keyboard-response","261","286658","0.0-1.0-362.0","0","0","73939","","null","","","null","40","","","","","","","","","","","","","","","",""
"","ISI","","html-keyboard-response","262","288667","0.0-1.0-363.0","0","0","73939","","null","","","null","40","NaN","","","","","","","","","","","","","","",""
"","S2","","html-keyboard-response","263","288825","0.0-1.0-364.0","0","0","73939","","null","","","null","40","","NaN","","","","","","","","","","","","","",""
"","response","","html-keyboard-response","264","289632","0.0-1.0-365.0-0.0","0","0","73939","","805","","","75","40","","","1","40","training","adjacent","FE","6","5","M.jpg","O.jpg","1","0","0","",""
"","feedback","","html-keyboard-response","265","290641","0.0-1.0-366.0-0.0","0","0","73939","","null","","","null","40","","","","","","","","","","","","","","","",""
"","time_out","","html-keyboard-response","266","292648","0.0-1.0-368.0-0.0","0","0","73939","","null","","","null","40","","","","","","","","","","","","","","","",""
"","ITI","","html-keyboard-response","267","293652","0.0-1.0-369.0","0","0","73939","","null","","","null","40","","","","","","","","","","","","","","","NaN",""
"","S1","","html-keyboard-response","268","293805","0.0-1.0-371.0","0","0","73939","","null","","","null","41","","","","","","","","","","","","","","","",""
"","ISI","","html-keyboard-response","269","295814","0.0-1.0-372.0","0","0","73939","","null","","","null","41","NaN","","","","","","","","","","","","","","",""
"","S2","","html-keyboard-response","270","295973","0.0-1.0-373.0","0","0","73939","","null","","","null","41","","NaN","","","","","","","","","","","","","",""
"","response","","html-keyboard-response","271","296208","0.0-1.0-374.0-0.0","0","0","73939","","233","","","75","41","","","1","41","training","adjacent","EF","5","6","O.jpg","M.jpg","1","1","1","",""
"","feedback","","html-keyboard-response","272","297218","0.0-1.0-375.0-0.0","0","0","73939","","null","","","null","41","","","","","","","","","","","","","","","",""
"","ITI","","html-keyboard-response","273","298226","0.0-1.0-378.0","0","0","73939","","null","","","null","41","","","","","","","","","","","","","","","NaN",""
"","S1","","html-keyboard-response","274","298388","0.0-1.0-380.0","0","0","73939","","null","","","null","42","","","","","","","","","","","","","","","",""
"","ISI","","html-keyboard-response","275","300394","0.0-1.0-381.0","0","0","73939","","null","","","null","42","NaN","","","","","","","","","","","","","","",""
"","S2","","html-keyboard-response","276","300550","0.0-1.0-382.0","0","0","73939","","null","","","null","42","","NaN","","","","","","","","","","","","","",""
"","response","","html-keyboard-response","277","300888","0.0-1.0-383.0-0.0","0","0","73939","","336","","","75","42","","","1","42","training","adjacent","EF","5","6","O.jpg","M.jpg","1","1","1","",""
"","feedback","","html-keyboard-response","278","301895","0.0-1.0-384.0-0.0","0","0","73939","","null","","","null","42","","","","","","","","","","","","","","","",""
"","ITI","","html-keyboard-response","279","302905","0.0-1.0-387.0","0","0","73939","","null","","","null","42","","","","","","","","","","","","","","","NaN",""
"","S1","","html-keyboard-response","280","303060","0.0-1.0-389.0","0","0","73939","","null","","","null","43","","","","","","","","","","","","","","","",""
"","ISI","","html-keyboard-response","281","305068","0.0-1.0-390.0","0","0","73939","","null","","","null","43","NaN","","","","","","","","","","","","","","",""
"","S2","","html-keyboard-response","282","305223","0.0-1.0-391.0","0","0","73939","","null","","","null","43","","NaN","","","","","","","","","","","","","",""
"","response","","html-keyboard-response","283","306066","0.0-1.0-392.0-0.0","0","0","73939","","841","","","68","43","","","1","43","training","adjacent","GF","7","6","R.jpg","M.jpg","0","0","1","",""
"","feedback","","html-keyboard-response","284","307071","0.0-1.0-393.0-0.0","0","0","73939","","null","","","null","43","","","","","","","","","","","","","","","",""
"","ITI","","html-keyboard-response","285","308076","0.0-1.0-396.0","0","0","73939","","null","","","null","43","","","","","","","","","","","","","","","NaN",""
"","S1","","html-keyboard-response","286","308232","0.0-1.0-398.0","0","0","73939","","null","","","null","44","","","","","","","","","","","","","","","",""
"","ISI","","html-keyboard-response","287","310241","0.0-1.0-399.0","0","0","73939","","null","","","null","44","NaN","","","","","","","","","","","","","","",""
"","S2","","html-keyboard-response","288","310398","0.0-1.0-400.0","0","0","73939","","null","","","null","44","","NaN","","","","","","","","","","","","","",""
"","response","","html-keyboard-response","289","311445","0.0-1.0-401.0-0.0","0","0","73939","","1044","","","68","44","","","1","44","training","adjacent","BA","2","1","P.jpg","N.jpg","0","0","1","",""
"","feedback","","html-keyboard-response","290","312451","0.0-1.0-402.0-0.0","0","0","73939","","null","","","null","44","","","","","","","","","","","","","","","",""
"","ITI","","html-keyboard-response","291","313456","0.0-1.0-405.0","0","0","73939","","null","","","null","44","","","","","","","","","","","","","","","NaN",""
"","S1","","html-keyboard-response","292","313612","0.0-1.0-407.0","0","0","73939","","null","","","null","45","","","","","","","","","","","","","","","",""
"","ISI","","html-keyboard-response","293","315623","0.0-1.0-408.0","0","0","73939","","null","","","null","45","NaN","","","","","","","","","","","","","","",""
"","S2","","html-keyboard-response","294","315779","0.0-1.0-409.0","0","0","73939","","null","","","null","45","","NaN","","","","","","","","","","","","","",""
"","response","","html-keyboard-response","295","316162","0.0-1.0-410.0-0.0","0","0","73939","","380","","","68","45","","","1","45","training","adjacent","CB","3","2","L.jpg","P.jpg","0","0","1","",""
"","feedback","","html-keyboard-response","296","317166","0.0-1.0-411.0-0.0","0","0","73939","","null","","","null","45","","","","","","","","","","","","","","","",""
"","ITI","","html-keyboard-response","297","318170","0.0-1.0-414.0","0","0","73939","","null","","","null","45","","","","","","","","","","","","","","","NaN",""
"","S1","","html-keyboard-response","298","318325","0.0-1.0-416.0","0","0","73939","","null","","","null","46","","","","","","","","","","","","","","","",""
"","ISI","","html-keyboard-response","299","320335","0.0-1.0-417.0","0","0","73939","","null","","","null","46","NaN","","","","","","","","","","","","","","",""
"","S2","","html-keyboard-response","300","320491","0.0-1.0-418.0","0","0","73939","","null","","","null","46","","NaN","","","","","","","","","","","","","",""
"","response","","html-keyboard-response","301","321589","0.0-1.0-419.0-0.0","0","0","73939","","1096","","","75","46","","","1","46","training","adjacent","GF","7","6","R.jpg","M.jpg","1","0","0","",""
"","feedback","","html-keyboard-response","302","322602","0.0-1.0-420.0-0.0","0","0","73939","","null","","","null","46","","","","","","","","","","","","","","","",""
"","time_out","","html-keyboard-response","303","324613","0.0-1.0-422.0-0.0","0","0","73939","","null","","","null","46","","","","","","","","","","","","","","","",""
"","ITI","","html-keyboard-response","304","325619","0.0-1.0-423.0","0","0","73939","","null","","","null","46","","","","","","","","","","","","","","","NaN",""
"","S1","","html-keyboard-response","305","325776","0.0-1.0-425.0","0","0","73939","","null","","","null","47","","","","","","","","","","","","","","","",""
"","ISI","","html-keyboard-response","306","327778","0.0-1.0-426.0","0","0","73939","","null","","","null","47","NaN","","","","","","","","","","","","","","",""
"","S2","","html-keyboard-response","307","327936","0.0-1.0-427.0","0","0","73939","","null","","","null","47","","NaN","","","","","","","","","","","","","",""
"","response","","html-keyboard-response","308","329088","0.0-1.0-428.0-0.0","0","0","73939","","1148","","","75","47","","","1","47","training","adjacent","FG","6","7","M.jpg","R.jpg","1","1","1","",""
"","feedback","","html-keyboard-response","309","330100","0.0-1.0-429.0-0.0","0","0","73939","","null","","","null","47","","","","","","","","","","","","","","","",""
"","ITI","","html-keyboard-response","310","331109","0.0-1.0-432.0","0","0","73939","","null","","","null","47","","","","","","","","","","","","","","","NaN",""
"","block_over","","html-keyboard-response","311","334984","0.0-1.0-433.0-0.0","0","0","73939","","3871","","","32","47","","","","","","","","","","","","","","","",""
"","S1","","html-keyboard-response","312","335140","0.0-1.0-434.0","0","0","73939","","null","","","null","48","","","","","","","","","","","","","","","",""
"","ISI","","html-keyboard-response","313","337144","0.0-1.0-435.0","0","0","73939","","null","","","null","48","NaN","","","","","","","","","","","","","","",""
"","S2","","html-keyboard-response","314","337299","0.0-1.0-436.0","0","0","73939","","null","","","null","48","","NaN","","","","","","","","","","","","","",""
"","response","","html-keyboard-response","315","338134","0.0-1.0-437.0-0.0","0","0","73939","","832","","","68","48","","","2","48","training","adjacent","FE","6","5","M.jpg","O.jpg","0","0","1","",""
"","feedback","","html-keyboard-response","316","339145","0.0-1.0-438.0-0.0","0","0","73939","","null","","","null","48","","","","","","","","","","","","","","","",""
"","ITI","","html-keyboard-response","317","340151","0.0-1.0-441.0","0","0","73939","","null","","","null","48","","","","","","","","","","","","","","","NaN",""
"","S1","","html-keyboard-response","318","340307","0.0-1.0-443.0","0","0","73939","","null","","","null","49","","","","","","","","","","","","","","","",""
"","ISI","","html-keyboard-response","319","342311","0.0-1.0-444.0","0","0","73939","","null","","","null","49","NaN","","","","","","","","","","","","","","",""
"","S2","","html-keyboard-response","320","342468","0.0-1.0-445.0","0","0","73939","","null","","","null","49","","NaN","","","","","","","","","","","","","",""
"","response","","html-keyboard-response","321","342597","0.0-1.0-446.0-0.0","0","0","73939","","127","","","75","49","","","2","49","training","adjacent","DC","4","3","Q.jpg","L.jpg","1","0","0","",""
"","feedback","","html-keyboard-response","322","343601","0.0-1.0-447.0-0.0","0","0","73939","","null","","","null","49","","","","","","","","","","","","","","","",""
"","time_out","","html-keyboard-response","323","345611","0.0-1.0-449.0-0.0","0","0","73939","","null","","","null","49","","","","","","","","","","","","","","","",""
"","ITI","","html-keyboard-response","324","346621","0.0-1.0-450.0","0","0","73939","","null","","","null","49","","","","","","","","","","","","","","","NaN",""
"","S1","","html-keyboard-response","325","346775","0.0-1.0-452.0","0","0","73939","","null","","","null","50","","","","","","","","","","","","","","","",""
"","ISI","","html-keyboard-response","326","348781","0.0-1.0-453.0","0","0","73939","","null","","","null","50","NaN","","","","","","","","","","","","","","",""
"","S2","","html-keyboard-response","327","348938","0.0-1.0-454.0","0","0","73939","","null","","","null","50","","NaN","","","","","","","","","","","","","",""
"","response","","html-keyboard-response","328","349725","0.0-1.0-455.0-0.0","0","0","73939","","785","","","68","50","","","2","50","training","adjacent","BA","2","1","P.jpg","N.jpg","0","0","1","",""
"","feedback","","html-keyboard-response","329","350735","0.0-1.0-456.0-0.0","0","0","73939","","null","","","null","50","","","","","","","","","","","","","","","",""
"","ITI","","html-keyboard-response","330","351744","0.0-1.0-459.0","0","0","73939","","null","","","null","50","","","","","","","","","","","","","","","NaN",""
"","S1","","html-keyboard-response","331","351905","0.0-1.0-461.0","0","0","73939","","null","","","null","51","","","","","","","","","","","","","","","",""
"","ISI","","html-keyboard-response","332","353913","0.0-1.0-462.0","0","0","73939","","null","","","null","51","NaN","","","","","","","","","","","","","","",""
"","S2","","html-keyboard-response","333","354070","0.0-1.0-463.0","0","0","73939","","null","","","null","51","","NaN","","","","","","","","","","","","","",""
"","response","","html-keyboard-response","334","354766","0.0-1.0-464.0-0.0","0","0","73939","","694","","","75","51","","","2","51","training","adjacent","FG","6","7","M.jpg","R.jpg","1","1","1","",""
"","feedback","","html-keyboard-response","335","355781","0.0-1.0-465.0-0.0","0","0","73939","","null","","","null","51","","","","","","","","","","","","","","","",""
"","ITI","","html-keyboard-response","336","356800","0.0-1.0-468.0","0","0","73939","","null","","","null","51","","","","","","","","","","","","","","","NaN",""
"","S1","","html-keyboard-response","337","356962","0.0-1.0-470.0","0","0","73939","","null","","","null","52","","","","","","","","","","","","","","","",""
"","ISI","","html-keyboard-response","338","358969","0.0-1.0-471.0","0","0","73939","","null","","","null","52","NaN","","","","","","","","","","","","","","",""
"","S2","","html-keyboard-response","339","359124","0.0-1.0-472.0","0","0","73939","","null","","","null","52","","NaN","","","","","","","","","","","","","",""
"","response","","html-keyboard-response","340","359365","0.0-1.0-473.0-0.0","0","0","73939","","238","","","68","52","","","2","52","training","adjacent","GF","7","6","R.jpg","M.jpg","0","0","1","",""
"","feedback","","html-keyboard-response","341","360370","0.0-1.0-474.0-0.0","0","0","73939","","null","","","null","52","","","","","","","","","","","","","","","",""
"","ITI","","html-keyboard-response","342","361379","0.0-1.0-477.0","0","0","73939","","null","","","null","52","","","","","","","","","","","","","","","NaN",""
"","S1","","html-keyboard-response","343","361537","0.0-1.0-479.0","0","0","73939","","null","","","null","53","","","","","","","","","","","","","","","",""
"","ISI","","html-keyboard-response","344","363545","0.0-1.0-480.0","0","0","73939","","null","","","null","53","NaN","","","","","","","","","","","","","","",""
"","S2","","html-keyboard-response","345","363701","0.0-1.0-481.0","0","0","73939","","null","","","null","53","","NaN","","","","","","","","","","","","","",""
"","response","","html-keyboard-response","346","363997","0.0-1.0-482.0-0.0","0","0","73939","","293","","","68","53","","","2","53","training","adjacent","GF","7","6","R.jpg","M.jpg","0","0","1","",""
"","feedback","","html-keyboard-response","347","365007","0.0-1.0-483.0-0.0","0","0","73939","","null","","","null","53","","","","","","","","","","","","","","","",""
"","ITI","","html-keyboard-response","348","366015","0.0-1.0-486.0","0","0","73939","","null","","","null","53","","","","","","","","","","","","","","","NaN",""
"","S1","","html-keyboard-response","349","366169","0.0-1.0-488.0","0","0","73939","","null","","","null","54","","","","","","","","","","","","","","","",""
"","ISI","","html-keyboard-response","350","368180","0.0-1.0-489.0","0","0","73939","","null","","","null","54","NaN","","","","","","","","","","","","","","",""
"","S2","","html-keyboard-response","351","368335","0.0-1.0-490.0","0","0","73939","","null","","","null","54","","NaN","","","","","","","","","","","","","",""
"","response","","html-keyboard-response","352","369604","0.0-1.0-491.0-0.0","0","0","73939","","1267","","","68","54","","","2","54","training","adjacent","BA","2","1","P.jpg","N.jpg","0","0","1","",""
"","feedback","","html-keyboard-response","353","370612","0.0-1.0-492.0-0.0","0","0","73939","","null","","","null","54","","","","","","","","","","","","","","","",""
"","ITI","","html-keyboard-response","354","371631","0.0-1.0-495.0","0","0","73939","","null","","","null","54","","","","","","","","","","","","","","","NaN",""
"","S1","","html-keyboard-response","355","371787","0.0-1.0-497.0","0","0","73939","","null","","","null","55","","","","","","","","","","","","","","","",""
"","ISI","","html-keyboard-response","356","373793","0.0-1.0-498.0","0","0","73939","","null","","","null","55","NaN","","","","","","","","","","","","","","",""
"","S2","","html-keyboard-response","357","373947","0.0-1.0-499.0","0","0","73939","","null","","","null","55","","NaN","","","","","","","","","","","","","",""
"","response","","html-keyboard-response","358","374821","0.0-1.0-500.0-0.0","0","0","73939","","871","","","75","55","","","2","55","training","adjacent","AB","1","2","N.jpg","P.jpg","1","1","1","",""
"","feedback","","html-keyboard-response","359","375826","0.0-1.0-501.0-0.0","0","0","73939","","null","","","null","55","","","","","","","","","","","","","","","",""
"","ITI","","html-keyboard-response","360","376833","0.0-1.0-504.0","0","0","73939","","null","","","null","55","","","","","","","","","","","","","","","NaN",""
"","S1","","html-keyboard-response","361","376988","0.0-1.0-506.0","0","0","73939","","null","","","null","56","","","","","","","","","","","","","","","",""
"","ISI","","html-keyboard-response","362","378994","0.0-1.0-507.0","0","0","73939","","null","","","null","56","NaN","","","","","","","","","","","","","","",""
"","S2","","html-keyboard-response","363","379150","0.0-1.0-508.0","0","0","73939","","null","","","null","56","","NaN","","","","","","","","","","","","","",""
"","response","","html-keyboard-response","364","380440","0.0-1.0-509.0-0.0","0","0","73939","","1287","","","75","56","","","2","56","training","adjacent","EF","5","6","O.jpg","M.jpg","1","1","1","",""
"","feedback","","html-keyboard-response","365","381449","0.0-1.0-510.0-0.0","0","0","73939","","null","","","null","56","","","","","","","","","","","","","","","",""
"","ITI","","html-keyboard-response","366","382457","0.0-1.0-513.0","0","0","73939","","null","","","null","56","","","","","","","","","","","","","","","NaN",""
"","S1","","html-keyboard-response","367","382611","0.0-1.0-515.0","0","0","73939","","null","","","null","57","","","","","","","","","","","","","","","",""
"","ISI","","html-keyboard-response","368","384620","0.0-1.0-516.0","0","0","73939","","null","","","null","57","NaN","","","","","","","","","","","","","","",""
"","S2","","html-keyboard-response","369","384776","0.0-1.0-517.0","0","0","73939","","null","","","null","57","","NaN","","","","","","","","","","","","","",""
"","response","","html-keyboard-response","370","385727","0.0-1.0-518.0-0.0","0","0","73939","","948","","","68","57","","","2","57","training","adjacent","CB","3","2","L.jpg","P.jpg","0","0","1","",""
"","feedback","","html-keyboard-response","371","386737","0.0-1.0-519.0-0.0","0","0","73939","","null","","","null","57","","","","","","","","","","","","","","","",""
"","ITI","","html-keyboard-response","372","387743","0.0-1.0-522.0","0","0","73939","","null","","","null","57","","","","","","","","","","","","","","","NaN",""
"","S1","","html-keyboard-response","373","387901","0.0-1.0-524.0","0","0","73939","","null","","","null","58","","","","","","","","","","","","","","","",""
"","ISI","","html-keyboard-response","374","389906","0.0-1.0-525.0","0","0","73939","","null","","","null","58","NaN","","","","","","","","","","","","","","",""
"","S2","","html-keyboard-response","375","390066","0.0-1.0-526.0","0","0","73939","","null","","","null","58","","NaN","","","","","","","","","","","","","",""
"","response","","html-keyboard-response","376","391101","0.0-1.0-527.0-0.0","0","0","73939","","1031","","","68","58","","","2","58","training","adjacent","CB","3","2","L.jpg","P.jpg","0","0","1","",""
"","feedback","","html-keyboard-response","377","392111","0.0-1.0-528.0-0.0","0","0","73939","","null","","","null","58","","","","","","","","","","","","","","","",""
"","ITI","","html-keyboard-response","378","393117","0.0-1.0-531.0","0","0","73939","","null","","","null","58","","","","","","","","","","","","","","","NaN",""
"","S1","","html-keyboard-response","379","393274","0.0-1.0-533.0","0","0","73939","","null","","","null","59","","","","","","","","","","","","","","","",""
"","ISI","","html-keyboard-response","380","395282","0.0-1.0-534.0","0","0","73939","","null","","","null","59","NaN","","","","","","","","","","","","","","",""
"","S2","","html-keyboard-response","381","395438","0.0-1.0-535.0","0","0","73939","","null","","","null","59","","NaN","","","","","","","","","","","","","",""
"","response","","html-keyboard-response","382","396284","0.0-1.0-536.0-0.0","0","0","73939","","843","","","68","59","","","2","59","training","adjacent","CD","3","4","L.jpg","Q.jpg","0","1","0","",""
"","feedback","","html-keyboard-response","383","397300","0.0-1.0-537.0-0.0","0","0","73939","","null","","","null","59","","","","","","","","","","","","","","","",""
"","time_out","","html-keyboard-response","384","399309","0.0-1.0-539.0-0.0","0","0","73939","","null","","","null","59","","","","","","","","","","","","","","","",""
"","ITI","","html-keyboard-response","385","400312","0.0-1.0-540.0","0","0","73939","","null","","","null","59","","","","","","","","","","","","","","","NaN",""
"","S1","","html-keyboard-response","386","400469","0.0-1.0-542.0","0","0","73939","","null","","","null","60","","","","","","","","","","","","","","","",""
"","ISI","","html-keyboard-response","387","402471","0.0-1.0-543.0","0","0","73939","","null","","","null","60","NaN","","","","","","","","","","","","","","",""
"","S2","","html-keyboard-response","388","402625","0.0-1.0-544.0","0","0","73939","","null","","","null","60","","NaN","","","","","","","","","","","","","",""
"","response","","html-keyboard-response","389","402804","0.0-1.0-545.0-0.0","0","0","73939","","177","","","75","60","","","2","60","training","adjacent","ED","5","4","O.jpg","Q.jpg","1","0","0","",""
"","feedback","","html-keyboard-response","390","403812","0.0-1.0-546.0-0.0","0","0","73939","","null","","","null","60","","","","","","","","","","","","","","","",""
"","time_out","","html-keyboard-response","391","405816","0.0-1.0-548.0-0.0","0","0","73939","","null","","","null","60","","","","","","","","","","","","","","","",""
"","ITI","","html-keyboard-response","392","406820","0.0-1.0-549.0","0","0","73939","","null","","","null","60","","","","","","","","","","","","","","","NaN",""
"","S1","","html-keyboard-response","393","406975","0.0-1.0-551.0","0","0","73939","","null","","","null","61","","","","","","","","","","","","","","","",""
"","ISI","","html-keyboard-response","394","408980","0.0-1.0-552.0","0","0","73939","","null","","","null","61","NaN","","","","","","","","","","","","","","",""
"","S2","","html-keyboard-response","395","409135","0.0-1.0-553.0","0","0","73939","","null","","","null","61","","NaN","","","","","","","","","","","","","",""
"","response","","html-keyboard-response","396","409440","0.0-1.0-554.0-0.0","0","0","73939","","302","","","75","61","","","2","61","training","adjacent","DC","4","3","Q.jpg","L.jpg","1","0","0","",""
"","feedback","","html-keyboard-response","397","410449","0.0-1.0-555.0-0.0","0","0","73939","","null","","","null","61","","","","","","","","","","","","","","","",""
"","time_out","","html-keyboard-response","398","412460","0.0-1.0-557.0-0.0","0","0","73939","","null","","","null","61","","","","","","","","","","","","","","","",""
"","ITI","","html-keyboard-response","399","413473","0.0-1.0-558.0","0","0","73939","","null","","","null","61","","","","","","","","","","","","","","","NaN",""
"","S1","","html-keyboard-response","400","413634","0.0-1.0-560.0","0","0","73939","","null","","","null","62","","","","","","","","","","","","","","","",""
"","ISI","","html-keyboard-response","401","415641","0.0-1.0-561.0","0","0","73939","","null","","","null","62","NaN","","","","","","","","","","","","","","",""
"","S2","","html-keyboard-response","402","415796","0.0-1.0-562.0","0","0","73939","","null","","","null","62","","NaN","","","","","","","","","","","","","",""
"","response","","html-keyboard-response","403","416020","0.0-1.0-563.0-0.0","0","0","73939","","222","","","75","62","","","2","62","training","adjacent","AB","1","2","N.jpg","P.jpg","1","1","1","",""
"","feedback","","html-keyboard-response","404","417028","0.0-1.0-564.0-0.0","0","0","73939","","null","","","null","62","","","","","","","","","","","","","","","",""
"","ITI","","html-keyboard-response","405","418034","0.0-1.0-567.0","0","0","73939","","null","","","null","62","","","","","","","","","","","","","","","NaN",""
"","S1","","html-keyboard-response","406","418189","0.0-1.0-569.0","0","0","73939","","null","","","null","63","","","","","","","","","","","","","","","",""
"","ISI","","html-keyboard-response","407","420197","0.0-1.0-570.0","0","0","73939","","null","","","null","63","NaN","","","","","","","","","","","","","","",""
"","S2","","html-keyboard-response","408","420353","0.0-1.0-571.0","0","0","73939","","null","","","null","63","","NaN","","","","","","","","","","","","","",""
"","response","","html-keyboard-response","409","421193","0.0-1.0-572.0-0.0","0","0","73939","","837","","","68","63","","","2","63","training","adjacent","FE","6","5","M.jpg","O.jpg","0","0","1","",""
"","feedback","","html-keyboard-response","410","422201","0.0-1.0-573.0-0.0","0","0","73939","","null","","","null","63","","","","","","","","","","","","","","","",""
"","ITI","","html-keyboard-response","411","423206","0.0-1.0-576.0","0","0","73939","","98","","","75","63","","","","","","","","","","","","","","","k",""
"","S1","","html-keyboard-response","412","423362","0.0-1.0-578.0","0","0","73939","","null","","","null","64","","","","","","","","","","","","","","","",""
"","ISI","","html-keyboard-response","413","425372","0.0-1.0-579.0","0","0","73939","","null","","","null","64","NaN","","","","","","","","","","","","","","",""
"","S2","","html-keyboard-response","414","425527","0.0-1.0-580.0","0","0","73939","","null","","","null","64","","NaN","","","","","","","","","","","","","",""
"","response","","html-keyboard-response","415","425903","0.0-1.0-581.0-0.0","0","0","73939","","375","","","75","64","","","2","64","training","adjacent","AB","1","2","N.jpg","P.jpg","1","1","1","",""
"","feedback","","html-keyboard-response","416","426913","0.0-1.0-582.0-0.0","0","0","73939","","null","","","null","64","","","","","","","","","","","","","","","",""
"","ITI","","html-keyboard-response","417","427919","0.0-1.0-585.0","0","0","73939","","null","","","null","64","","","","","","","","","","","","","","","NaN",""
"","S1","","html-keyboard-response","418","428073","0.0-1.0-587.0","0","0","73939","","null","","","null","65","","","","","","","","","","","","","","","",""
"","ISI","","html-keyboard-response","419","430083","0.0-1.0-588.0","0","0","73939","","null","","","null","65","NaN","","","","","","","","","","","","","","",""
"","S2","","html-keyboard-response","420","430238","0.0-1.0-589.0","0","0","73939","","null","","","null","65","","NaN","","","","","","","","","","","","","",""
"","response","","html-keyboard-response","421","431153","0.0-1.0-590.0-0.0","0","0","73939","","912","","","75","65","","","2","65","training","adjacent","FG","6","7","M.jpg","R.jpg","1","1","1","",""
"","feedback","","html-keyboard-response","422","432168","0.0-1.0-591.0-0.0","0","0","73939","","null","","","null","65","","","","","","","","","","","","","","","",""
"","ITI","","html-keyboard-response","423","433184","0.0-1.0-594.0","0","0","73939","","null","","","null","65","","","","","","","","","","","","","","","NaN",""
"","S1","","html-keyboard-response","424","433341","0.0-1.0-596.0","0","0","73939","","null","","","null","66","","","","","","","","","","","","","","","",""
"","ISI","","html-keyboard-response","425","435349","0.0-1.0-597.0","0","0","73939","","null","","","null","66","NaN","","","","","","","","","","","","","","",""
"","S2","","html-keyboard-response","426","435509","0.0-1.0-598.0","0","0","73939","","null","","","null","66","","NaN","","","","","","","","","","","","","",""
"","response","","html-keyboard-response","427","436714","0.0-1.0-599.0-0.0","0","0","73939","","1203","","","68","66","","","2","66","training","adjacent","CB","3","2","L.jpg","P.jpg","0","0","1","",""
"","feedback","","html-keyboard-response","428","437723","0.0-1.0-600.0-0.0","0","0","73939","","null","","","null","66","","","","","","","","","","","","","","","",""
"","ITI","","html-keyboard-response","429","438727","0.0-1.0-603.0","0","0","73939","","null","","","null","66","","","","","","","","","","","","","","","NaN",""
"","S1","","html-keyboard-response","430","438883","0.0-1.0-605.0","0","0","73939","","null","","","null","67","","","","","","","","","","","","","","","",""
"","ISI","","html-keyboard-response","431","440891","0.0-1.0-606.0","0","0","73939","","null","","","null","67","NaN","","","","","","","","","","","","","","",""
"","S2","","html-keyboard-response","432","441048","0.0-1.0-607.0","0","0","73939","","null","","","null","67","","NaN","","","","","","","","","","","","","",""
"","response","","html-keyboard-response","433","441217","0.0-1.0-608.0-0.0","0","0","73939","","166","","","75","67","","","2","67","training","adjacent","CD","3","4","L.jpg","Q.jpg","1","1","1","",""
"","feedback","","html-keyboard-response","434","442229","0.0-1.0-609.0-0.0","0","0","73939","","null","","","null","67","","","","","","","","","","","","","","","",""
"","ITI","","html-keyboard-response","435","443238","0.0-1.0-612.0","0","0","73939","","null","","","null","67","","","","","","","","","","","","","","","NaN",""
"","S1","","html-keyboard-response","436","443396","0.0-1.0-614.0","0","0","73939","","null","","","null","68","","","","","","","","","","","","","","","",""
"","ISI","","html-keyboard-response","437","445403","0.0-1.0-615.0","0","0","73939","","null","","","null","68","NaN","","","","","","","","","","","","","","",""
"","S2","","html-keyboard-response","438","445557","0.0-1.0-616.0","0","0","73939","","null","","","null","68","","NaN","","","","","","","","","","","","","",""
"","response","","html-keyboard-response","439","446331","0.0-1.0-617.0-0.0","0","0","73939","","771","","","68","68","","","2","68","training","adjacent","FE","6","5","M.jpg","O.jpg","0","0","1","",""
"","feedback","","html-keyboard-response","440","447337","0.0-1.0-618.0-0.0","0","0","73939","","null","","","null","68","","","","","","","","","","","","","","","",""
"","ITI","","html-keyboard-response","441","448342","0.0-1.0-621.0","0","0","73939","","null","","","null","68","","","","","","","","","","","","","","","NaN",""
"","S1","","html-keyboard-response","442","448497","0.0-1.0-623.0","0","0","73939","","null","","","null","69","","","","","","","","","","","","","","","",""
"","ISI","","html-keyboard-response","443","450501","0.0-1.0-624.0","0","0","73939","","null","","","null","69","NaN","","","","","","","","","","","","","","",""
"","S2","","html-keyboard-response","444","450655","0.0-1.0-625.0","0","0","73939","","null","","","null","69","","NaN","","","","","","","","","","","","","",""
"","response","","html-keyboard-response","445","451743","0.0-1.0-626.0-0.0","0","0","73939","","1086","","","75","69","","","2","69","training","adjacent","ED","5","4","O.jpg","Q.jpg","1","0","0","",""
"","feedback","","html-keyboard-response","446","452749","0.0-1.0-627.0-0.0","0","0","73939","","null","","","null","69","","","","","","","","","","","","","","","",""
"","time_out","","html-keyboard-response","447","454757","0.0-1.0-629.0-0.0","0","0","73939","","null","","","null","69","","","","","","","","","","","","","","","",""
"","ITI","","html-keyboard-response","448","455761","0.0-1.0-630.0","0","0","73939","","null","","","null","69","","","","","","","","","","","","","","","NaN",""
"","S1","","html-keyboard-response","449","455917","0.0-1.0-632.0","0","0","73939","","null","","","null","70","","","","","","","","","","","","","","","",""
"","ISI","","html-keyboard-response","450","457924","0.0-1.0-633.0","0","0","73939","","null","","","null","70","NaN","","","","","","","","","","","","","","",""
"","S2","","html-keyboard-response","451","458084","0.0-1.0-634.0","0","0","73939","","null","","","null","70","","NaN","","","","","","","","","","","","","",""
"","response","","html-keyboard-response","452","458660","0.0-1.0-635.0-0.0","0","0","73939","","574","","","75","70","","","2","70","training","adjacent","DE","4","5","Q.jpg","O.jpg","1","1","1","",""
"","feedback","","html-keyboard-response","453","459666","0.0-1.0-636.0-0.0","0","0","73939","","null","","","null","70","","","","","","","","","","","","","","","",""
"","ITI","","html-keyboard-response","454","460680","0.0-1.0-639.0","0","0","73939","","null","","","null","70","","","","","","","","","","","","","","","NaN",""
"","S1","","html-keyboard-response","455","460842","0.0-1.0-641.0","0","0","73939","","null","","","null","71","","","","","","","","","","","","","","","",""
"","ISI","","html-keyboard-response","456","462846","0.0-1.0-642.0","0","0","73939","","null","","","null","71","NaN","","","","","","","","","","","","","","",""
"","S2","","html-keyboard-response","457","462999","0.0-1.0-643.0","0","0","73939","","null","","","null","71","","NaN","","","","","","","","","","","","","",""
"","response","","html-keyboard-response","458","463971","0.0-1.0-644.0-0.0","0","0","73939","","970","","","75","71","","","2","71","training","adjacent","BC","2","3","P.jpg","L.jpg","1","1","1","",""
"","feedback","","html-keyboard-response","459","464975","0.0-1.0-645.0-0.0","0","0","73939","","null","","","null","71","","","","","","","","","","","","","","","",""
"","ITI","","html-keyboard-response","460","465980","0.0-1.0-648.0","0","0","73939","","null","","","null","71","","","","","","","","","","","","","","","NaN",""
"","S1","","html-keyboard-response","461","466138","0.0-1.0-650.0","0","0","73939","","null","","","null","72","","","","","","","","","","","","","","","",""
"","ISI","","html-keyboard-response","462","468148","0.0-1.0-651.0","0","0","73939","","null","","","null","72","NaN","","","","","","","","","","","","","","",""
"","S2","","html-keyboard-response","463","468306","0.0-1.0-652.0","0","0","73939","","null","","","null","72","","NaN","","","","","","","","","","","","","",""
"","response","","html-keyboard-response","464","469703","0.0-1.0-653.0-0.0","0","0","73939","","1395","","","68","72","","","2","72","training","adjacent","ED","5","4","O.jpg","Q.jpg","0","0","1","",""
"","feedback","","html-keyboard-response","465","470714","0.0-1.0-654.0-0.0","0","0","73939","","null","","","null","72","","","","","","","","","","","","","","","",""
"","ITI","","html-keyboard-response","466","471723","0.0-1.0-657.0","0","0","73939","","null","","","null","72","","","","","","","","","","","","","","","NaN",""
"","S1","","html-keyboard-response","467","471879","0.0-1.0-659.0","0","0","73939","","null","","","null","73","","","","","","","","","","","","","","","",""
"","ISI","","html-keyboard-response","468","473886","0.0-1.0-660.0","0","0","73939","","null","","","null","73","NaN","","","","","","","","","","","","","","",""
"","S2","","html-keyboard-response","469","474041","0.0-1.0-661.0","0","0","73939","","null","","","null","73","","NaN","","","","","","","","","","","","","",""
"","response","","html-keyboard-response","470","475160","0.0-1.0-662.0-0.0","0","0","73939","","1116","","","68","73","","","2","73","training","adjacent","FE","6","5","M.jpg","O.jpg","0","0","1","",""
"","feedback","","html-keyboard-response","471","476167","0.0-1.0-663.0-0.0","0","0","73939","","null","","","null","73","","","","","","","","","","","","","","","",""
"","ITI","","html-keyboard-response","472","477175","0.0-1.0-666.0","0","0","73939","","null","","","null","73","","","","","","","","","","","","","","","NaN",""
"","S1","","html-keyboard-response","473","477334","0.0-1.0-668.0","0","0","73939","","null","","","null","74","","","","","","","","","","","","","","","",""
"","ISI","","html-keyboard-response","474","479338","0.0-1.0-669.0","0","0","73939","","null","","","null","74","NaN","","","","","","","","","","","","","","",""
"","S2","","html-keyboard-response","475","479496","0.0-1.0-670.0","0","0","73939","","null","","","null","74","","NaN","","","","","","","","","","","","","",""
"","response","","html-keyboard-response","476","480388","0.0-1.0-671.0-0.0","0","0","73939","","889","","","75","74","","","2","74","training","adjacent","BC","2","3","P.jpg","L.jpg","1","1","1","",""
"","feedback","","html-keyboard-response","477","481398","0.0-1.0-672.0-0.0","0","0","73939","","null","","","null","74","","","","","","","","","","","","","","","",""
"","ITI","","html-keyboard-response","478","482408","0.0-1.0-675.0","0","0","73939","","null","","","null","74","","","","","","","","","","","","","","","NaN",""
"","S1","","html-keyboard-response","479","482565","0.0-1.0-677.0","0","0","73939","","null","","","null","75","","","","","","","","","","","","","","","",""
"","ISI","","html-keyboard-response","480","484574","0.0-1.0-678.0","0","0","73939","","null","","","null","75","NaN","","","","","","","","","","","","","","",""
"","S2","","html-keyboard-response","481","484734","0.0-1.0-679.0","0","0","73939","","null","","","null","75","","NaN","","","","","","","","","","","","","",""
"","response","","html-keyboard-response","482","485615","0.0-1.0-680.0-0.0","0","0","73939","","878","","","75","75","","","2","75","training","adjacent","DE","4","5","Q.jpg","O.jpg","1","1","1","",""
"","feedback","","html-keyboard-response","483","486622","0.0-1.0-681.0-0.0","0","0","73939","","null","","","null","75","","","","","","","","","","","","","","","",""
"","ITI","","html-keyboard-response","484","487651","0.0-1.0-684.0","0","0","73939","","null","","","null","75","","","","","","","","","","","","","","","NaN",""
"","S1","","html-keyboard-response","485","487806","0.0-1.0-686.0","0","0","73939","","null","","","null","76","","","","","","","","","","","","","","","",""
"","ISI","","html-keyboard-response","486","489809","0.0-1.0-687.0","0","0","73939","","null","","","null","76","NaN","","","","","","","","","","","","","","",""
"","S2","","html-keyboard-response","487","489965","0.0-1.0-688.0","0","0","73939","","null","","","null","76","","NaN","","","","","","","","","","","","","",""
"","response","","html-keyboard-response","488","490923","0.0-1.0-689.0-0.0","0","0","73939","","956","","","75","76","","","2","76","training","adjacent","DC","4","3","Q.jpg","L.jpg","1","0","0","",""
"","feedback","","html-keyboard-response","489","491934","0.0-1.0-690.0-0.0","0","0","73939","","null","","","null","76","","","","","","","","","","","","","","","",""
"","time_out","","html-keyboard-response","490","493943","0.0-1.0-692.0-0.0","0","0","73939","","null","","","null","76","","","","","","","","","","","","","","","",""
"","ITI","","html-keyboard-response","491","494950","0.0-1.0-693.0","0","0","73939","","null","","","null","76","","","","","","","","","","","","","","","NaN",""
"","S1","","html-keyboard-response","492","495107","0.0-1.0-695.0","0","0","73939","","null","","","null","77","","","","","","","","","","","","","","","",""
"","ISI","","html-keyboard-response","493","497125","0.0-1.0-696.0","0","0","73939","","null","","","null","77","NaN","","","","","","","","","","","","","","",""
"","S2","","html-keyboard-response","494","497285","0.0-1.0-697.0","0","0","73939","","null","","","null","77","","NaN","","","","","","","","","","","","","",""
"","response","","html-keyboard-response","495","498094","0.0-1.0-698.0-0.0","0","0","73939","","807","","","68","77","","","2","77","training","adjacent","DE","4","5","Q.jpg","O.jpg","0","1","0","",""
"","feedback","","html-keyboard-response","496","499111","0.0-1.0-699.0-0.0","0","0","73939","","null","","","null","77","","","","","","","","","","","","","","","",""
"","time_out","","html-keyboard-response","497","501119","0.0-1.0-701.0-0.0","0","0","73939","","null","","","null","77","","","","","","","","","","","","","","","",""
"","ITI","","html-keyboard-response","498","502129","0.0-1.0-702.0","0","0","73939","","null","","","null","77","","","","","","","","","","","","","","","NaN",""
"","S1","","html-keyboard-response","499","502289","0.0-1.0-704.0","0","0","73939","","null","","","null","78","","","","","","","","","","","","","","","",""
"","ISI","","html-keyboard-response","500","504298","0.0-1.0-705.0","0","0","73939","","null","","","null","78","NaN","","","","","","","","","","","","","","",""
"","S2","","html-keyboard-response","501","504456","0.0-1.0-706.0","0","0","73939","","null","","","null","78","","NaN","","","","","","","","","","","","","",""
"","response","","html-keyboard-response","502","505321","0.0-1.0-707.0-0.0","0","0","73939","","863","","","68","78","","","2","78","training","adjacent","CB","3","2","L.jpg","P.jpg","0","0","1","",""
"","feedback","","html-keyboard-response","503","506329","0.0-1.0-708.0-0.0","0","0","73939","","null","","","null","78","","","","","","","","","","","","","","","",""
"","ITI","","html-keyboard-response","504","507338","0.0-1.0-711.0","0","0","73939","","null","","","null","78","","","","","","","","","","","","","","","NaN",""
"","S1","","html-keyboard-response","505","507493","0.0-1.0-713.0","0","0","73939","","null","","","null","79","","","","","","","","","","","","","","","",""
"","ISI","","html-keyboard-response","506","509497","0.0-1.0-714.0","0","0","73939","","null","","","null","79","NaN","","","","","","","","","","","","","","",""
"","S2","","html-keyboard-response","507","509654","0.0-1.0-715.0","0","0","73939","","null","","","null","79","","NaN","","","","","","","","","","","","","",""
"","response","","html-keyboard-response","508","510223","0.0-1.0-716.0-0.0","0","0","73939","","566","","","75","79","","","2","79","training","adjacent","AB","1","2","N.jpg","P.jpg","1","1","1","",""
"","feedback","","html-keyboard-response","509","511239","0.0-1.0-717.0-0.0","0","0","73939","","null","","","null","79","","","","","","","","","","","","","","","",""
"","ITI","","html-keyboard-response","510","512249","0.0-1.0-720.0","0","0","73939","","null","","","null","79","","","","","","","","","","","","","","","NaN",""
"","S1","","html-keyboard-response","511","512405","0.0-1.0-722.0","0","0","73939","","null","","","null","80","","","","","","","","","","","","","","","",""
"","ISI","","html-keyboard-response","512","514408","0.0-1.0-723.0","0","0","73939","","null","","","null","80","NaN","","","","","","","","","","","","","","",""
"","S2","","html-keyboard-response","513","514565","0.0-1.0-724.0","0","0","73939","","null","","","null","80","","NaN","","","","","","","","","","","","","",""
"","response","","html-keyboard-response","514","515661","0.0-1.0-725.0-0.0","0","0","73939","","1093","","","68","80","","","2","80","training","adjacent","DE","4","5","Q.jpg","O.jpg","0","1","0","",""
"","feedback","","html-keyboard-response","515","516671","0.0-1.0-726.0-0.0","0","0","73939","","null","","","null","80","","","","","","","","","","","","","","","",""
"","time_out","","html-keyboard-response","516","518677","0.0-1.0-728.0-0.0","0","0","73939","","null","","","null","80","","","","","","","","","","","","","","","",""
"","ITI","","html-keyboard-response","517","519683","0.0-1.0-729.0","0","0","73939","","null","","","null","80","","","","","","","","","","","","","","","NaN",""
"","S1","","html-keyboard-response","518","519848","0.0-1.0-731.0","0","0","73939","","null","","","null","81","","","","","","","","","","","","","","","",""
"","ISI","","html-keyboard-response","519","521859","0.0-1.0-732.0","0","0","73939","","null","","","null","81","NaN","","","","","","","","","","","","","","",""
"","S2","","html-keyboard-response","520","522015","0.0-1.0-733.0","0","0","73939","","null","","","null","81","","NaN","","","","","","","","","","","","","",""
"","response","","html-keyboard-response","521","522742","0.0-1.0-734.0-0.0","0","0","73939","","724","","","68","81","","","2","81","training","adjacent","ED","5","4","O.jpg","Q.jpg","0","0","1","",""
"","feedback","","html-keyboard-response","522","523748","0.0-1.0-735.0-0.0","0","0","73939","","null","","","null","81","","","","","","","","","","","","","","","",""
"","ITI","","html-keyboard-response","523","524760","0.0-1.0-738.0","0","0","73939","","null","","","null","81","","","","","","","","","","","","","","","NaN",""
"","S1","","html-keyboard-response","524","524916","0.0-1.0-740.0","0","0","73939","","null","","","null","82","","","","","","","","","","","","","","","",""
"","ISI","","html-keyboard-response","525","526919","0.0-1.0-741.0","0","0","73939","","null","","","null","82","NaN","","","","","","","","","","","","","","",""
"","S2","","html-keyboard-response","526","527073","0.0-1.0-742.0","0","0","73939","","null","","","null","82","","NaN","","","","","","","","","","","","","",""
"","response","","html-keyboard-response","527","528223","0.0-1.0-743.0-0.0","0","0","73939","","1147","","","75","82","","","2","82","training","adjacent","EF","5","6","O.jpg","M.jpg","1","1","1","",""
"","feedback","","html-keyboard-response","528","529227","0.0-1.0-744.0-0.0","0","0","73939","","null","","","null","82","","","","","","","","","","","","","","","",""
"","ITI","","html-keyboard-response","529","530238","0.0-1.0-747.0","0","0","73939","","null","","","null","82","","","","","","","","","","","","","","","NaN",""
"","S1","","html-keyboard-response","530","530394","0.0-1.0-749.0","0","0","73939","","null","","","null","83","","","","","","","","","","","","","","","",""
"","ISI","","html-keyboard-response","531","532403","0.0-1.0-750.0","0","0","73939","","null","","","null","83","NaN","","","","","","","","","","","","","","",""
"","S2","","html-keyboard-response","532","532558","0.0-1.0-751.0","0","0","73939","","null","","","null","83","","NaN","","","","","","","","","","","","","",""
"","response","","html-keyboard-response","533","533511","0.0-1.0-752.0-0.0","0","0","73939","","951","","","75","83","","","2","83","training","adjacent","FG","6","7","M.jpg","R.jpg","1","1","1","",""
"","feedback","","html-keyboard-response","534","534519","0.0-1.0-753.0-0.0","0","0","73939","","null","","","null","83","","","","","","","","","","","","","","","",""
"","ITI","","html-keyboard-response","535","535529","0.0-1.0-756.0","0","0","73939","","null","","","null","83","","","","","","","","","","","","","","","NaN",""
"","S1","","html-keyboard-response","536","535685","0.0-1.0-758.0","0","0","73939","","null","","","null","84","","","","","","","","","","","","","","","",""
"","ISI","","html-keyboard-response","537","537695","0.0-1.0-759.0","0","0","73939","","null","","","null","84","NaN","","","","","","","","","","","","","","",""
"","S2","","html-keyboard-response","538","537852","0.0-1.0-760.0","0","0","73939","","null","","","null","84","","NaN","","","","","","","","","","","","","",""
"","response","","html-keyboard-response","539","538657","0.0-1.0-761.0-0.0","0","0","73939","","802","","","68","84","","","2","84","training","adjacent","DC","4","3","Q.jpg","L.jpg","0","0","1","",""
"","feedback","","html-keyboard-response","540","539665","0.0-1.0-762.0-0.0","0","0","73939","","null","","","null","84","","","","","","","","","","","","","","","",""
"","ITI","","html-keyboard-response","541","540671","0.0-1.0-765.0","0","0","73939","","null","","","null","84","","","","","","","","","","","","","","","NaN",""
"","S1","","html-keyboard-response","542","540824","0.0-1.0-767.0","0","0","73939","","null","","","null","85","","","","","","","","","","","","","","","",""
"","ISI","","html-keyboard-response","543","542826","0.0-1.0-768.0","0","0","73939","","null","","","null","85","NaN","","","","","","","","","","","","","","",""
"","S2","","html-keyboard-response","544","542986","0.0-1.0-769.0","0","0","73939","","null","","","null","85","","NaN","","","","","","","","","","","","","",""
"","response","","html-keyboard-response","545","543657","0.0-1.0-770.0-0.0","0","0","73939","","670","","","68","85","","","2","85","training","adjacent","GF","7","6","R.jpg","M.jpg","0","0","1","",""
"","feedback","","html-keyboard-response","546","544661","0.0-1.0-771.0-0.0","0","0","73939","","null","","","null","85","","","","","","","","","","","","","","","",""
"","ITI","","html-keyboard-response","547","545668","0.0-1.0-774.0","0","0","73939","","null","","","null","85","","","","","","","","","","","","","","","NaN",""
"","S1","","html-keyboard-response","548","545831","0.0-1.0-776.0","0","0","73939","","null","","","null","86","","","","","","","","","","","","","","","",""
"","ISI","","html-keyboard-response","549","547839","0.0-1.0-777.0","0","0","73939","","null","","","null","86","NaN","","","","","","","","","","","","","","",""
"","S2","","html-keyboard-response","550","547993","0.0-1.0-778.0","0","0","73939","","null","","","null","86","","NaN","","","","","","","","","","","","","",""
"","response","","html-keyboard-response","551","549403","0.0-1.0-779.0-0.0","0","0","73939","","1407","","","75","86","","","2","86","training","adjacent","BA","2","1","P.jpg","N.jpg","1","0","0","",""
"","feedback","","html-keyboard-response","552","550410","0.0-1.0-780.0-0.0","0","0","73939","","null","","","null","86","","","","","","","","","","","","","","","",""
"","time_out","","html-keyboard-response","553","552416","0.0-1.0-782.0-0.0","0","0","73939","","null","","","null","86","","","","","","","","","","","","","","","",""
"","ITI","","html-keyboard-response","554","553427","0.0-1.0-783.0","0","0","73939","","null","","","null","86","","","","","","","","","","","","","","","NaN",""
"","S1","","html-keyboard-response","555","553591","0.0-1.0-785.0","0","0","73939","","null","","","null","87","","","","","","","","","","","","","","","",""
"","ISI","","html-keyboard-response","556","555594","0.0-1.0-786.0","0","0","73939","","null","","","null","87","NaN","","","","","","","","","","","","","","",""
"","S2","","html-keyboard-response","557","555749","0.0-1.0-787.0","0","0","73939","","null","","","null","87","","NaN","","","","","","","","","","","","","",""
"","response","","html-keyboard-response","558","556874","0.0-1.0-788.0-0.0","0","0","73939","","1122","","","75","87","","","2","87","training","adjacent","BC","2","3","P.jpg","L.jpg","1","1","1","",""
"","feedback","","html-keyboard-response","559","557878","0.0-1.0-789.0-0.0","0","0","73939","","null","","","null","87","","","","","","","","","","","","","","","",""
"","ITI","","html-keyboard-response","560","558886","0.0-1.0-792.0","0","0","73939","","null","","","null","87","","","","","","","","","","","","","","","NaN",""
"","S1","","html-keyboard-response","561","559045","0.0-1.0-794.0","0","0","73939","","null","","","null","88","","","","","","","","","","","","","","","",""
"","ISI","","html-keyboard-response","562","561049","0.0-1.0-795.0","0","0","73939","","null","","","null","88","NaN","","","","","","","","","","","","","","",""
"","S2","","html-keyboard-response","563","561203","0.0-1.0-796.0","0","0","73939","","null","","","null","88","","NaN","","","","","","","","","","","","","",""
"","response","","html-keyboard-response","564","562006","0.0-1.0-797.0-0.0","0","0","73939","","799","","","75","88","","","2","88","training","adjacent","FG","6","7","M.jpg","R.jpg","1","1","1","",""
"","feedback","","html-keyboard-response","565","563013","0.0-1.0-798.0-0.0","0","0","73939","","null","","","null","88","","","","","","","","","","","","","","","",""
"","ITI","","html-keyboard-response","566","564023","0.0-1.0-801.0","0","0","73939","","null","","","null","88","","","","","","","","","","","","","","","NaN",""
"","S1","","html-keyboard-response","567","564178","0.0-1.0-803.0","0","0","73939","","null","","","null","89","","","","","","","","","","","","","","","",""
"","ISI","","html-keyboard-response","568","566185","0.0-1.0-804.0","0","0","73939","","null","","","null","89","NaN","","","","","","","","","","","","","","",""
"","S2","","html-keyboard-response","569","566341","0.0-1.0-805.0","0","0","73939","","null","","","null","89","","NaN","","","","","","","","","","","","","",""
"","response","","html-keyboard-response","570","567072","0.0-1.0-806.0-0.0","0","0","73939","","730","","","68","89","","","2","89","training","adjacent","BC","2","3","P.jpg","L.jpg","0","1","0","",""
"","feedback","","html-keyboard-response","571","568083","0.0-1.0-807.0-0.0","0","0","73939","","null","","","null","89","","","","","","","","","","","","","","","",""
"","time_out","","html-keyboard-response","572","570093","0.0-1.0-809.0-0.0","0","0","73939","","null","","","null","89","","","","","","","","","","","","","","","",""
"","ITI","","html-keyboard-response","573","571114","0.0-1.0-810.0","0","0","73939","","null","","","null","89","","","","","","","","","","","","","","","NaN",""
"","S1","","html-keyboard-response","574","571273","0.0-1.0-812.0","0","0","73939","","null","","","null","90","","","","","","","","","","","","","","","",""
"","ISI","","html-keyboard-response","575","573279","0.0-1.0-813.0","0","0","73939","","null","","","null","90","NaN","","","","","","","","","","","","","","",""
"","S2","","html-keyboard-response","576","573435","0.0-1.0-814.0","0","0","73939","","null","","","null","90","","NaN","","","","","","","","","","","","","",""
"","response","","html-keyboard-response","577","575090","0.0-1.0-815.0-0.0","0","0","73939","","1653","","","68","90","","","2","90","training","adjacent","CD","3","4","L.jpg","Q.jpg","0","1","0","",""
"","feedback","","html-keyboard-response","578","576101","0.0-1.0-816.0-0.0","0","0","73939","","null","","","null","90","","","","","","","","","","","","","","","",""
"","time_out","","html-keyboard-response","579","578117","0.0-1.0-818.0-0.0","0","0","73939","","null","","","null","90","","","","","","","","","","","","","","","",""
"","ITI","","html-keyboard-response","580","579128","0.0-1.0-819.0","0","0","73939","","null","","","null","90","","","","","","","","","","","","","","","NaN",""
"","S1","","html-keyboard-response","581","579281","0.0-1.0-821.0","0","0","73939","","null","","","null","91","","","","","","","","","","","","","","","",""
"","ISI","","html-keyboard-response","582","581288","0.0-1.0-822.0","0","0","73939","","null","","","null","91","NaN","","","","","","","","","","","","","","",""
"","S2","","html-keyboard-response","583","581446","0.0-1.0-823.0","0","0","73939","","null","","","null","91","","NaN","","","","","","","","","","","","","",""