"success","ttype","start_time","trial_type","trial_index","time_elapsed","internal_node_id","warning","missed_checkup","PID","view_history","rt","responses","repeat_instructions","key_press","index","keypress_isi","keypress_S2","block","trial_num","phase","group_type","pair_type","S1_stim","S2_stim","S1_img","S2_img","S1_chosen","S1_higher","accuracy","keypress_iti","total_bonus_tally"
"true","full_screen","d08032022hr2100","fullscreen","0","10107","0.0-0.0","0","0","83263","","","","","","","","","","","","","","","","","","","","","",""
"","instructions","","instructions","1","58301","0.0-1.0-0.0-0.0","0","0","83263","[{""page_index"":0,""viewing_time"":5548},{""page_index"":1,""viewing_time"":23745},{""page_index"":2,""viewing_time"":16641},{""page_index"":3,""viewing_time"":2256}]","48190","","","","","","","","","","","","","","","","","","","",""
"","comprehension_check","","survey-multi-choice","2","99674","0.0-1.0-0.0-1.0","0","0","83263","","41370","{""Q0"":""True"",""Q1"":""K"",""Q2"":""Only when the screen 'MAKE A CHOICE' is shown"",""Q3"":""Green mark"",""Q4"":""either D or K""}","1","","","","","","","","","","","","","","","","","",""
"","missed_instruction_checkup","","html-keyboard-response","3","102266","0.0-1.0-0.0-2.0-0.0","0","1","83263","","2585","","","32","","","","","","","","","","","","","","","","",""
"","instructions","","instructions","4","116161","0.0-1.0-0.1-0.1","0","0","83263","[{""page_index"":0,""viewing_time"":3287},{""page_index"":1,""viewing_time"":6457},{""page_index"":2,""viewing_time"":1469},{""page_index"":3,""viewing_time"":2680}]","13893","","","","","","","","","","","","","","","","","","","",""
"","comprehension_check","","survey-multi-choice","5","128816","0.0-1.0-0.1-1.1","0","0","83263","","12651","{""Q0"":""True"",""Q1"":""K"",""Q2"":""Once the second image appears and while the screen 'MAKE A CHOICE' is shown"",""Q3"":""Green mark"",""Q4"":""either D or K""}","0","","","","","","","","","","","","","","","","","",""
"","start_exp","","html-keyboard-response","6","131388","0.0-1.0-1.0","0","0","83263","","2567","","","32","","","","","","","","","","","","","","","","",""
"","S1","","html-keyboard-response","7","131644","0.0-1.0-2.0","0","0","83263","","null","","","null","0","","","","","","","","","","","","","","","",""
"","ISI","","html-keyboard-response","8","133649","0.0-1.0-3.0","0","0","83263","","null","","","null","0","NaN","","","","","","","","","","","","","","",""
"","S2","","html-keyboard-response","9","133904","0.0-1.0-4.0","0","0","83263","","null","","","null","0","","NaN","","","","","","","","","","","","","",""
"","response","","html-keyboard-response","10","135237","0.0-1.0-5.0-0.0","0","0","83263","","1329","","","75","0","","","1","0","training","adjacent","FE","6","5","Q.jpg","P.jpg","1","0","0","",""
"","feedback","","html-keyboard-response","11","136242","0.0-1.0-6.0-0.0","0","0","83263","","null","","","null","0","","","","","","","","","","","","","","","",""
"","time_out","","html-keyboard-response","12","138246","0.0-1.0-8.0-0.0","0","0","83263","","null","","","null","0","","","","","","","","","","","","","","","",""
"","ITI","","html-keyboard-response","13","139248","0.0-1.0-9.0","0","0","83263","","null","","","null","0","","","","","","","","","","","","","","","NaN",""
"","S1","","html-keyboard-response","14","139502","0.0-1.0-11.0","0","0","83263","","null","","","null","1","","","","","","","","","","","","","","","",""
"","ISI","","html-keyboard-response","15","141504","0.0-1.0-12.0","0","0","83263","","null","","","null","1","NaN","","","","","","","","","","","","","","",""
"","S2","","html-keyboard-response","16","141759","0.0-1.0-13.0","0","0","83263","","null","","","null","1","","NaN","","","","","","","","","","","","","",""
"","response","","html-keyboard-response","17","142364","0.0-1.0-14.0-0.0","0","0","83263","","602","","","75","1","","","1","1","training","adjacent","EF","5","6","P.jpg","Q.jpg","1","1","1","",""
"","feedback","","html-keyboard-response","18","143369","0.0-1.0-15.0-0.0","0","0","83263","","null","","","null","1","","","","","","","","","","","","","","","",""
"","ITI","","html-keyboard-response","19","144372","0.0-1.0-18.0","0","0","83263","","null","","","null","1","","","","","","","","","","","","","","","NaN",""
"","S1","","html-keyboard-response","20","144628","0.0-1.0-20.0","0","0","83263","","null","","","null","2","","","","","","","","","","","","","","","",""
"","ISI","","html-keyboard-response","21","146632","0.0-1.0-21.0","0","0","83263","","null","","","null","2","NaN","","","","","","","","","","","","","","",""
"","S2","","html-keyboard-response","22","146886","0.0-1.0-22.0","0","0","83263","","null","","","null","2","","NaN","","","","","","","","","","","","","",""
"","response","","html-keyboard-response","23","147511","0.0-1.0-23.0-0.0","0","0","83263","","623","","","75","2","","","1","2","training","adjacent","GF","7","6","L.jpg","Q.jpg","1","0","0","",""
"","feedback","","html-keyboard-response","24","148515","0.0-1.0-24.0-0.0","0","0","83263","","null","","","null","2","","","","","","","","","","","","","","","",""
"","time_out","","html-keyboard-response","25","150518","0.0-1.0-26.0-0.0","0","0","83263","","null","","","null","2","","","","","","","","","","","","","","","",""
"","ITI","","html-keyboard-response","26","151520","0.0-1.0-27.0","0","0","83263","","null","","","null","2","","","","","","","","","","","","","","","NaN",""
"","S1","","html-keyboard-response","27","151773","0.0-1.0-29.0","0","0","83263","","null","","","null","3","","","","","","","","","","","","","","","",""
"","ISI","","html-keyboard-response","28","153775","0.0-1.0-30.0","0","0","83263","","null","","","null","3","NaN","","","","","","","","","","","","","","",""
"","S2","","html-keyboard-response","29","154029","0.0-1.0-31.0","0","0","83263","","null","","","null","3","","NaN","","","","","","","","","","","","","",""
"","response","","html-keyboard-response","30","155242","0.0-1.0-32.0-0.0","0","0","83263","","1210","","","75","3","","","1","3","training","adjacent","DE","4","5","O.jpg","P.jpg","1","1","1","",""
"","feedback","","html-keyboard-response","31","156246","0.0-1.0-33.0-0.0","0","0","83263","","null","","","null","3","","","","","","","","","","","","","","","",""
"","ITI","","html-keyboard-response","32","157250","0.0-1.0-36.0","0","0","83263","","null","","","null","3","","","","","","","","","","","","","","","NaN",""
"","S1","","html-keyboard-response","33","157503","0.0-1.0-38.0","0","0","83263","","null","","","null","4","","","","","","","","","","","","","","","",""
"","ISI","","html-keyboard-response","34","159506","0.0-1.0-39.0","0","0","83263","","null","","","null","4","NaN","","","","","","","","","","","","","","",""
"","S2","","html-keyboard-response","35","159760","0.0-1.0-40.0","0","0","83263","","null","","","null","4","","NaN","","","","","","","","","","","","","",""
"","response","","html-keyboard-response","36","161079","0.0-1.0-41.0-0.0","0","0","83263","","1317","","","68","4","","","1","4","training","adjacent","ED","5","4","P.jpg","O.jpg","0","0","1","",""
"","feedback","","html-keyboard-response","37","162083","0.0-1.0-42.0-0.0","0","0","83263","","null","","","null","4","","","","","","","","","","","","","","","",""
"","ITI","","html-keyboard-response","38","163087","0.0-1.0-45.0","0","0","83263","","null","","","null","4","","","","","","","","","","","","","","","NaN",""
"","S1","","html-keyboard-response","39","163340","0.0-1.0-47.0","0","0","83263","","null","","","null","5","","","","","","","","","","","","","","","",""
"","ISI","","html-keyboard-response","40","165344","0.0-1.0-48.0","0","0","83263","","null","","","null","5","NaN","","","","","","","","","","","","","","",""
"","S2","","html-keyboard-response","41","165599","0.0-1.0-49.0","0","0","83263","","null","","","null","5","","NaN","","","","","","","","","","","","","",""
"","response","","html-keyboard-response","42","166212","0.0-1.0-50.0-0.0","0","0","83263","","610","","","68","5","","","1","5","training","adjacent","ED","5","4","P.jpg","O.jpg","0","0","1","",""
"","feedback","","html-keyboard-response","43","167219","0.0-1.0-51.0-0.0","0","0","83263","","null","","","null","5","","","","","","","","","","","","","","","",""
"","ITI","","html-keyboard-response","44","168223","0.0-1.0-54.0","0","0","83263","","null","","","null","5","","","","","","","","","","","","","","","NaN",""
"","S1","","html-keyboard-response","45","168477","0.0-1.0-56.0","0","0","83263","","null","","","null","6","","","","","","","","","","","","","","","",""
"","ISI","","html-keyboard-response","46","170480","0.0-1.0-57.0","0","0","83263","","null","","","null","6","NaN","","","","","","","","","","","","","","",""
"","S2","","html-keyboard-response","47","170734","0.0-1.0-58.0","0","0","83263","","null","","","null","6","","NaN","","","","","","","","","","","","","",""
"","response","","html-keyboard-response","48","171165","0.0-1.0-59.0-0.0","0","0","83263","","429","","","75","6","","","1","6","training","adjacent","DC","4","3","O.jpg","M.jpg","1","0","0","",""
"","feedback","","html-keyboard-response","49","172170","0.0-1.0-60.0-0.0","0","0","83263","","null","","","null","6","","","","","","","","","","","","","","","",""
"","time_out","","html-keyboard-response","50","174174","0.0-1.0-62.0-0.0","0","0","83263","","null","","","null","6","","","","","","","","","","","","","","","",""
"","ITI","","html-keyboard-response","51","175178","0.0-1.0-63.0","0","0","83263","","null","","","null","6","","","","","","","","","","","","","","","NaN",""
"","S1","","html-keyboard-response","52","175432","0.0-1.0-65.0","0","0","83263","","null","","","null","7","","","","","","","","","","","","","","","",""
"","ISI","","html-keyboard-response","53","177436","0.0-1.0-66.0","0","0","83263","","null","","","null","7","NaN","","","","","","","","","","","","","","",""
"","S2","","html-keyboard-response","54","177690","0.0-1.0-67.0","0","0","83263","","null","","","null","7","","NaN","","","","","","","","","","","","","",""
"","response","","html-keyboard-response","55","178194","0.0-1.0-68.0-0.0","0","0","83263","","500","","","75","7","","","1","7","training","adjacent","AB","1","2","N.jpg","R.jpg","1","1","1","",""
"","feedback","","html-keyboard-response","56","179199","0.0-1.0-69.0-0.0","0","0","83263","","null","","","null","7","","","","","","","","","","","","","","","",""
"","ITI","","html-keyboard-response","57","180203","0.0-1.0-72.0","0","0","83263","","null","","","null","7","","","","","","","","","","","","","","","NaN",""
"","S1","","html-keyboard-response","58","180458","0.0-1.0-74.0","0","0","83263","","null","","","null","8","","","","","","","","","","","","","","","",""
"","ISI","","html-keyboard-response","59","182463","0.0-1.0-75.0","0","0","83263","","null","","","null","8","NaN","","","","","","","","","","","","","","",""
"","S2","","html-keyboard-response","60","182719","0.0-1.0-76.0","0","0","83263","","null","","","null","8","","NaN","","","","","","","","","","","","","",""
"","response","","html-keyboard-response","61","183232","0.0-1.0-77.0-0.0","0","0","83263","","510","","","68","8","","","1","8","training","adjacent","GF","7","6","L.jpg","Q.jpg","0","0","1","",""
"","feedback","","html-keyboard-response","62","184236","0.0-1.0-78.0-0.0","0","0","83263","","null","","","null","8","","","","","","","","","","","","","","","",""
"","ITI","","html-keyboard-response","63","185240","0.0-1.0-81.0","0","0","83263","","null","","","null","8","","","","","","","","","","","","","","","NaN",""
"","S1","","html-keyboard-response","64","185494","0.0-1.0-83.0","0","0","83263","","null","","","null","9","","","","","","","","","","","","","","","",""
"","ISI","","html-keyboard-response","65","187497","0.0-1.0-84.0","0","0","83263","","null","","","null","9","NaN","","","","","","","","","","","","","","",""
"","S2","","html-keyboard-response","66","187752","0.0-1.0-85.0","0","0","83263","","null","","","null","9","","NaN","","","","","","","","","","","","","",""
"","response","","html-keyboard-response","67","188530","0.0-1.0-86.0-0.0","0","0","83263","","775","","","68","9","","","1","9","training","adjacent","CD","3","4","M.jpg","O.jpg","0","1","0","",""
"","feedback","","html-keyboard-response","68","189533","0.0-1.0-87.0-0.0","0","0","83263","","null","","","null","9","","","","","","","","","","","","","","","",""
"","time_out","","html-keyboard-response","69","191535","0.0-1.0-89.0-0.0","0","0","83263","","null","","","null","9","","","","","","","","","","","","","","","",""
"","ITI","","html-keyboard-response","70","192539","0.0-1.0-90.0","0","0","83263","","null","","","null","9","","","","","","","","","","","","","","","NaN",""
"","S1","","html-keyboard-response","71","192792","0.0-1.0-92.0","0","0","83263","","null","","","null","10","","","","","","","","","","","","","","","",""
"","ISI","","html-keyboard-response","72","194796","0.0-1.0-93.0","0","0","83263","","null","","","null","10","NaN","","","","","","","","","","","","","","",""
"","S2","","html-keyboard-response","73","195050","0.0-1.0-94.0","0","0","83263","","null","","","null","10","","NaN","","","","","","","","","","","","","",""
"","response","","html-keyboard-response","74","195568","0.0-1.0-95.0-0.0","0","0","83263","","516","","","68","10","","","1","10","training","adjacent","ED","5","4","P.jpg","O.jpg","0","0","1","",""
"","feedback","","html-keyboard-response","75","196571","0.0-1.0-96.0-0.0","0","0","83263","","null","","","null","10","","","","","","","","","","","","","","","",""
"","ITI","","html-keyboard-response","76","197575","0.0-1.0-99.0","0","0","83263","","null","","","null","10","","","","","","","","","","","","","","","NaN",""
"","S1","","html-keyboard-response","77","197829","0.0-1.0-101.0","0","0","83263","","null","","","null","11","","","","","","","","","","","","","","","",""
"","ISI","","html-keyboard-response","78","199832","0.0-1.0-102.0","0","0","83263","","null","","","null","11","NaN","","","","","","","","","","","","","","",""
"","S2","","html-keyboard-response","79","200085","0.0-1.0-103.0","0","0","83263","","null","","","null","11","","NaN","","","","","","","","","","","","","",""
"","response","","html-keyboard-response","80","201062","0.0-1.0-104.0-0.0","0","0","83263","","973","","","68","11","","","1","11","training","adjacent","BC","2","3","R.jpg","M.jpg","0","1","0","",""
"","feedback","","html-keyboard-response","81","202066","0.0-1.0-105.0-0.0","0","0","83263","","null","","","null","11","","","","","","","","","","","","","","","",""
"","time_out","","html-keyboard-response","82","204071","0.0-1.0-107.0-0.0","0","0","83263","","null","","","null","11","","","","","","","","","","","","","","","",""
"","ITI","","html-keyboard-response","83","205074","0.0-1.0-108.0","0","0","83263","","null","","","null","11","","","","","","","","","","","","","","","NaN",""
"","S1","","html-keyboard-response","84","205328","0.0-1.0-110.0","0","0","83263","","null","","","null","12","","","","","","","","","","","","","","","",""
"","ISI","","html-keyboard-response","85","207332","0.0-1.0-111.0","0","0","83263","","null","","","null","12","NaN","","","","","","","","","","","","","","",""
"","S2","","html-keyboard-response","86","207587","0.0-1.0-112.0","0","0","83263","","null","","","null","12","","NaN","","","","","","","","","","","","","",""
"","response","","html-keyboard-response","87","208999","0.0-1.0-113.0-0.0","0","0","83263","","1410","","","68","12","","","1","12","training","adjacent","CD","3","4","M.jpg","O.jpg","0","1","0","",""
"","feedback","","html-keyboard-response","88","210004","0.0-1.0-114.0-0.0","0","0","83263","","null","","","null","12","","","","","","","","","","","","","","","",""
"","time_out","","html-keyboard-response","89","212008","0.0-1.0-116.0-0.0","0","0","83263","","null","","","null","12","","","","","","","","","","","","","","","",""
"","ITI","","html-keyboard-response","90","213012","0.0-1.0-117.0","0","0","83263","","null","","","null","12","","","","","","","","","","","","","","","NaN",""
"","S1","","html-keyboard-response","91","213266","0.0-1.0-119.0","0","0","83263","","null","","","null","13","","","","","","","","","","","","","","","",""
"","ISI","","html-keyboard-response","92","215270","0.0-1.0-120.0","0","0","83263","","null","","","null","13","NaN","","","","","","","","","","","","","","",""
"","S2","","html-keyboard-response","93","215523","0.0-1.0-121.0","0","0","83263","","null","","","null","13","","NaN","","","","","","","","","","","","","",""
"","response","","html-keyboard-response","94","216025","0.0-1.0-122.0-0.0","0","0","83263","","498","","","68","13","","","1","13","training","adjacent","BC","2","3","R.jpg","M.jpg","0","1","0","",""
"","feedback","","html-keyboard-response","95","217029","0.0-1.0-123.0-0.0","0","0","83263","","null","","","null","13","","","","","","","","","","","","","","","",""
"","time_out","","html-keyboard-response","96","219034","0.0-1.0-125.0-0.0","0","0","83263","","null","","","null","13","","","","","","","","","","","","","","","",""
"","ITI","","html-keyboard-response","97","220039","0.0-1.0-126.0","0","0","83263","","null","","","null","13","","","","","","","","","","","","","","","NaN",""
"","S1","","html-keyboard-response","98","220293","0.0-1.0-128.0","0","0","83263","","null","","","null","14","","","","","","","","","","","","","","","",""
"","ISI","","html-keyboard-response","99","222297","0.0-1.0-129.0","0","0","83263","","null","","","null","14","NaN","","","","","","","","","","","","","","",""
"","S2","","html-keyboard-response","100","222551","0.0-1.0-130.0","0","0","83263","","null","","","null","14","","NaN","","","","","","","","","","","","","",""
"","response","","html-keyboard-response","101","223183","0.0-1.0-131.0-0.0","0","0","83263","","629","","","75","14","","","1","14","training","adjacent","AB","1","2","N.jpg","R.jpg","1","1","1","",""
"","feedback","","html-keyboard-response","102","224189","0.0-1.0-132.0-0.0","0","0","83263","","null","","","null","14","","","","","","","","","","","","","","","",""
"","ITI","","html-keyboard-response","103","225193","0.0-1.0-135.0","0","0","83263","","null","","","null","14","","","","","","","","","","","","","","","NaN",""
"","S1","","html-keyboard-response","104","225447","0.0-1.0-137.0","0","0","83263","","null","","","null","15","","","","","","","","","","","","","","","",""
"","ISI","","html-keyboard-response","105","227452","0.0-1.0-138.0","0","0","83263","","null","","","null","15","NaN","","","","","","","","","","","","","","",""
"","S2","","html-keyboard-response","106","227706","0.0-1.0-139.0","0","0","83263","","null","","","null","15","","NaN","","","","","","","","","","","","","",""
"","response","","html-keyboard-response","107","228084","0.0-1.0-140.0-0.0","0","0","83263","","374","","","75","15","","","1","15","training","adjacent","DC","4","3","O.jpg","M.jpg","1","0","0","",""
"","feedback","","html-keyboard-response","108","229089","0.0-1.0-141.0-0.0","0","0","83263","","null","","","null","15","","","","","","","","","","","","","","","",""
"","time_out","","html-keyboard-response","109","231093","0.0-1.0-143.0-0.0","0","0","83263","","null","","","null","15","","","","","","","","","","","","","","","",""
"","ITI","","html-keyboard-response","110","232097","0.0-1.0-144.0","0","0","83263","","null","","","null","15","","","","","","","","","","","","","","","NaN",""
"","S1","","html-keyboard-response","111","232351","0.0-1.0-146.0","0","0","83263","","null","","","null","16","","","","","","","","","","","","","","","",""
"","ISI","","html-keyboard-response","112","234354","0.0-1.0-147.0","0","0","83263","","null","","","null","16","NaN","","","","","","","","","","","","","","",""
"","S2","","html-keyboard-response","113","234614","0.0-1.0-148.0","0","0","83263","","null","","","null","16","","NaN","","","","","","","","","","","","","",""
"","response","","html-keyboard-response","114","235335","0.0-1.0-149.0-0.0","0","0","83263","","718","","","75","16","","","1","16","training","adjacent","DC","4","3","O.jpg","M.jpg","1","0","0","",""
"","feedback","","html-keyboard-response","115","236339","0.0-1.0-150.0-0.0","0","0","83263","","null","","","null","16","","","","","","","","","","","","","","","",""
"","time_out","","html-keyboard-response","116","238343","0.0-1.0-152.0-0.0","0","0","83263","","null","","","null","16","","","","","","","","","","","","","","","",""
"","ITI","","html-keyboard-response","117","239346","0.0-1.0-153.0","0","0","83263","","null","","","null","16","","","","","","","","","","","","","","","NaN",""
"","S1","","html-keyboard-response","118","239599","0.0-1.0-155.0","0","0","83263","","null","","","null","17","","","","","","","","","","","","","","","",""
"","ISI","","html-keyboard-response","119","241603","0.0-1.0-156.0","0","0","83263","","null","","","null","17","NaN","","","","","","","","","","","","","","",""
"","S2","","html-keyboard-response","120","241857","0.0-1.0-157.0","0","0","83263","","null","","","null","17","","NaN","","","","","","","","","","","","","",""
"","response","","html-keyboard-response","121","242270","0.0-1.0-158.0-0.0","0","0","83263","","410","","","68","17","","","1","17","training","adjacent","ED","5","4","P.jpg","O.jpg","0","0","1","",""
"","feedback","","html-keyboard-response","122","243274","0.0-1.0-159.0-0.0","0","0","83263","","null","","","null","17","","","","","","","","","","","","","","","",""
"","ITI","","html-keyboard-response","123","244278","0.0-1.0-162.0","0","0","83263","","null","","","null","17","","","","","","","","","","","","","","","NaN",""
"","S1","","html-keyboard-response","124","244533","0.0-1.0-164.0","0","0","83263","","null","","","null","18","","","","","","","","","","","","","","","",""
"","ISI","","html-keyboard-response","125","246536","0.0-1.0-165.0","0","0","83263","","null","","","null","18","NaN","","","","","","","","","","","","","","",""
"","S2","","html-keyboard-response","126","246789","0.0-1.0-166.0","0","0","83263","","null","","","null","18","","NaN","","","","","","","","","","","","","",""
"","response","","html-keyboard-response","127","247295","0.0-1.0-167.0-0.0","0","0","83263","","502","","","75","18","","","1","18","training","adjacent","CB","3","2","M.jpg","R.jpg","1","0","0","",""
"","feedback","","html-keyboard-response","128","248299","0.0-1.0-168.0-0.0","0","0","83263","","null","","","null","18","","","","","","","","","","","","","","","",""
"","time_out","","html-keyboard-response","129","250303","0.0-1.0-170.0-0.0","0","0","83263","","null","","","null","18","","","","","","","","","","","","","","","",""
"","ITI","","html-keyboard-response","130","251306","0.0-1.0-171.0","0","0","83263","","null","","","null","18","","","","","","","","","","","","","","","NaN",""
"","S1","","html-keyboard-response","131","251561","0.0-1.0-173.0","0","0","83263","","null","","","null","19","","","","","","","","","","","","","","","",""
"","ISI","","html-keyboard-response","132","253565","0.0-1.0-174.0","0","0","83263","","null","","","null","19","NaN","","","","","","","","","","","","","","",""
"","S2","","html-keyboard-response","133","253819","0.0-1.0-175.0","0","0","83263","","null","","","null","19","","NaN","","","","","","","","","","","","","",""
"","response","","html-keyboard-response","134","254249","0.0-1.0-176.0-0.0","0","0","83263","","426","","","75","19","","","1","19","training","adjacent","FE","6","5","Q.jpg","P.jpg","1","0","0","",""
"","feedback","","html-keyboard-response","135","255254","0.0-1.0-177.0-0.0","0","0","83263","","null","","","null","19","","","","","","","","","","","","","","","",""
"","time_out","","html-keyboard-response","136","257257","0.0-1.0-179.0-0.0","0","0","83263","","null","","","null","19","","","","","","","","","","","","","","","",""
"","ITI","","html-keyboard-response","137","258261","0.0-1.0-180.0","0","0","83263","","null","","","null","19","","","","","","","","","","","","","","","NaN",""
"","S1","","html-keyboard-response","138","258514","0.0-1.0-182.0","0","0","83263","","null","","","null","20","","","","","","","","","","","","","","","",""
"","ISI","","html-keyboard-response","139","260517","0.0-1.0-183.0","0","0","83263","","null","","","null","20","NaN","","","","","","","","","","","","","","",""
"","S2","","html-keyboard-response","140","260771","0.0-1.0-184.0","0","0","83263","","null","","","null","20","","NaN","","","","","","","","","","","","","",""
"","response","","html-keyboard-response","141","261313","0.0-1.0-185.0-0.0","0","0","83263","","539","","","75","20","","","1","20","training","adjacent","CB","3","2","M.jpg","R.jpg","1","0","0","",""
"","feedback","","html-keyboard-response","142","262318","0.0-1.0-186.0-0.0","0","0","83263","","null","","","null","20","","","","","","","","","","","","","","","",""
"","time_out","","html-keyboard-response","143","264322","0.0-1.0-188.0-0.0","0","0","83263","","null","","","null","20","","","","","","","","","","","","","","","",""
"","ITI","","html-keyboard-response","144","265326","0.0-1.0-189.0","0","0","83263","","null","","","null","20","","","","","","","","","","","","","","","NaN",""
"","S1","","html-keyboard-response","145","265580","0.0-1.0-191.0","0","0","83263","","null","","","null","21","","","","","","","","","","","","","","","",""
"","ISI","","html-keyboard-response","146","267583","0.0-1.0-192.0","0","0","83263","","null","","","null","21","NaN","","","","","","","","","","","","","","",""
"","S2","","html-keyboard-response","147","267839","0.0-1.0-193.0","0","0","83263","","null","","","null","21","","NaN","","","","","","","","","","","","","",""
"","response","","html-keyboard-response","148","268218","0.0-1.0-194.0-0.0","0","0","83263","","376","","","68","21","","","1","21","training","adjacent","EF","5","6","P.jpg","Q.jpg","0","1","0","",""
"","feedback","","html-keyboard-response","149","269223","0.0-1.0-195.0-0.0","0","0","83263","","null","","","null","21","","","","","","","","","","","","","","","",""
"","time_out","","html-keyboard-response","150","271226","0.0-1.0-197.0-0.0","0","0","83263","","null","","","null","21","","","","","","","","","","","","","","","",""
"","ITI","","html-keyboard-response","151","272230","0.0-1.0-198.0","0","0","83263","","null","","","null","21","","","","","","","","","","","","","","","NaN",""
"","S1","","html-keyboard-response","152","272483","0.0-1.0-200.0","0","0","83263","","null","","","null","22","","","","","","","","","","","","","","","",""
"","ISI","","html-keyboard-response","153","274486","0.0-1.0-201.0","0","0","83263","","null","","","null","22","NaN","","","","","","","","","","","","","","",""
"","S2","","html-keyboard-response","154","274740","0.0-1.0-202.0","0","0","83263","","null","","","null","22","","NaN","","","","","","","","","","","","","",""
"","response","","html-keyboard-response","155","275381","0.0-1.0-203.0-0.0","0","0","83263","","637","","","68","22","","","1","22","training","adjacent","BA","2","1","R.jpg","N.jpg","0","0","1","",""
"","feedback","","html-keyboard-response","156","276385","0.0-1.0-204.0-0.0","0","0","83263","","null","","","null","22","","","","","","","","","","","","","","","",""
"","ITI","","html-keyboard-response","157","277389","0.0-1.0-207.0","0","0","83263","","null","","","null","22","","","","","","","","","","","","","","","NaN",""
"","S1","","html-keyboard-response","158","277643","0.0-1.0-209.0","0","0","83263","","null","","","null","23","","","","","","","","","","","","","","","",""
"","ISI","","html-keyboard-response","159","279647","0.0-1.0-210.0","0","0","83263","","null","","","null","23","NaN","","","","","","","","","","","","","","",""
"","S2","","html-keyboard-response","160","279901","0.0-1.0-211.0","0","0","83263","","null","","","null","23","","NaN","","","","","","","","","","","","","",""
"","response","","html-keyboard-response","161","280416","0.0-1.0-212.0-0.0","0","0","83263","","511","","","68","23","","","1","23","training","adjacent","DC","4","3","O.jpg","M.jpg","0","0","1","",""
"","feedback","","html-keyboard-response","162","281425","0.0-1.0-213.0-0.0","0","0","83263","","null","","","null","23","","","","","","","","","","","","","","","",""
"","ITI","","html-keyboard-response","163","282429","0.0-1.0-216.0","0","0","83263","","null","","","null","23","","","","","","","","","","","","","","","NaN",""
"","S1","","html-keyboard-response","164","282683","0.0-1.0-218.0","0","0","83263","","null","","","null","24","","","","","","","","","","","","","","","",""
"","ISI","","html-keyboard-response","165","284686","0.0-1.0-219.0","0","0","83263","","null","","","null","24","NaN","","","","","","","","","","","","","","",""
"","S2","","html-keyboard-response","166","284941","0.0-1.0-220.0","0","0","83263","","null","","","null","24","","NaN","","","","","","","","","","","","","",""
"","response","","html-keyboard-response","167","285341","0.0-1.0-221.0-0.0","0","0","83263","","396","","","75","24","","","1","24","training","adjacent","FG","6","7","Q.jpg","L.jpg","1","1","1","",""
"","feedback","","html-keyboard-response","168","286346","0.0-1.0-222.0-0.0","0","0","83263","","null","","","null","24","","","","","","","","","","","","","","","",""
"","ITI","","html-keyboard-response","169","287349","0.0-1.0-225.0","0","0","83263","","null","","","null","24","","","","","","","","","","","","","","","NaN",""
"","S1","","html-keyboard-response","170","287604","0.0-1.0-227.0","0","0","83263","","null","","","null","25","","","","","","","","","","","","","","","",""
"","ISI","","html-keyboard-response","171","289609","0.0-1.0-228.0","0","0","83263","","null","","","null","25","NaN","","","","","","","","","","","","","","",""
"","S2","","html-keyboard-response","172","289863","0.0-1.0-229.0","0","0","83263","","null","","","null","25","","NaN","","","","","","","","","","","","","",""
"","response","","html-keyboard-response","173","290535","0.0-1.0-230.0-0.0","0","0","83263","","670","","","68","25","","","1","25","training","adjacent","BC","2","3","R.jpg","M.jpg","0","1","0","",""
"","feedback","","html-keyboard-response","174","291537","0.0-1.0-231.0-0.0","0","0","83263","","null","","","null","25","","","","","","","","","","","","","","","",""
"","time_out","","html-keyboard-response","175","293541","0.0-1.0-233.0-0.0","0","0","83263","","null","","","null","25","","","","","","","","","","","","","","","",""
"","ITI","","html-keyboard-response","176","294544","0.0-1.0-234.0","0","0","83263","","null","","","null","25","","","","","","","","","","","","","","","NaN",""
"","S1","","html-keyboard-response","177","294799","0.0-1.0-236.0","0","0","83263","","null","","","null","26","","","","","","","","","","","","","","","",""
"","ISI","","html-keyboard-response","178","296802","0.0-1.0-237.0","0","0","83263","","null","","","null","26","NaN","","","","","","","","","","","","","","",""
"","S2","","html-keyboard-response","179","297056","0.0-1.0-238.0","0","0","83263","","null","","","null","26","","NaN","","","","","","","","","","","","","",""
"","response","","html-keyboard-response","180","298126","0.0-1.0-239.0-0.0","0","0","83263","","1066","","","75","26","","","1","26","training","adjacent","CB","3","2","M.jpg","R.jpg","1","0","0","",""
"","feedback","","html-keyboard-response","181","299130","0.0-1.0-240.0-0.0","0","0","83263","","null","","","null","26","","","","","","","","","","","","","","","",""
"","time_out","","html-keyboard-response","182","301134","0.0-1.0-242.0-0.0","0","0","83263","","null","","","null","26","","","","","","","","","","","","","","","",""
"","ITI","","html-keyboard-response","183","302138","0.0-1.0-243.0","0","0","83263","","null","","","null","26","","","","","","","","","","","","","","","NaN",""
"","S1","","html-keyboard-response","184","302393","0.0-1.0-245.0","0","0","83263","","null","","","null","27","","","","","","","","","","","","","","","",""
"","ISI","","html-keyboard-response","185","304397","0.0-1.0-246.0","0","0","83263","","null","","","null","27","NaN","","","","","","","","","","","","","","",""
"","S2","","html-keyboard-response","186","304651","0.0-1.0-247.0","0","0","83263","","null","","","null","27","","NaN","","","","","","","","","","","","","",""
"","response","","html-keyboard-response","187","305424","0.0-1.0-248.0-0.0","0","0","83263","","770","","","68","27","","","1","27","training","adjacent","BA","2","1","R.jpg","N.jpg","0","0","1","",""
"","feedback","","html-keyboard-response","188","306429","0.0-1.0-249.0-0.0","0","0","83263","","null","","","null","27","","","","","","","","","","","","","","","",""
"","ITI","","html-keyboard-response","189","307433","0.0-1.0-252.0","0","0","83263","","null","","","null","27","","","","","","","","","","","","","","","NaN",""
"","S1","","html-keyboard-response","190","307686","0.0-1.0-254.0","0","0","83263","","null","","","null","28","","","","","","","","","","","","","","","",""
"","ISI","","html-keyboard-response","191","309690","0.0-1.0-255.0","0","0","83263","","null","","","null","28","NaN","","","","","","","","","","","","","","",""
"","S2","","html-keyboard-response","192","309944","0.0-1.0-256.0","0","0","83263","","null","","","null","28","","NaN","","","","","","","","","","","","","",""
"","response","","html-keyboard-response","193","310573","0.0-1.0-257.0-0.0","0","0","83263","","625","","","68","28","","","1","28","training","adjacent","AB","1","2","N.jpg","R.jpg","0","1","0","",""
"","feedback","","html-keyboard-response","194","311576","0.0-1.0-258.0-0.0","0","0","83263","","null","","","null","28","","","","","","","","","","","","","","","",""
"","time_out","","html-keyboard-response","195","313579","0.0-1.0-260.0-0.0","0","0","83263","","null","","","null","28","","","","","","","","","","","","","","","",""
"","ITI","","html-keyboard-response","196","314584","0.0-1.0-261.0","0","0","83263","","null","","","null","28","","","","","","","","","","","","","","","NaN",""
"","S1","","html-keyboard-response","197","314838","0.0-1.0-263.0","0","0","83263","","null","","","null","29","","","","","","","","","","","","","","","",""
"","ISI","","html-keyboard-response","198","316842","0.0-1.0-264.0","0","0","83263","","null","","","null","29","NaN","","","","","","","","","","","","","","",""
"","S2","","html-keyboard-response","199","317096","0.0-1.0-265.0","0","0","83263","","null","","","null","29","","NaN","","","","","","","","","","","","","",""
"","response","","html-keyboard-response","200","317638","0.0-1.0-266.0-0.0","0","0","83263","","538","","","75","29","","","1","29","training","adjacent","FG","6","7","Q.jpg","L.jpg","1","1","1","",""
"","feedback","","html-keyboard-response","201","318647","0.0-1.0-267.0-0.0","0","0","83263","","null","","","null","29","","","","","","","","","","","","","","","",""
"","ITI","","html-keyboard-response","202","319651","0.0-1.0-270.0","0","0","83263","","null","","","null","29","","","","","","","","","","","","","","","NaN",""
"","S1","","html-keyboard-response","203","319904","0.0-1.0-272.0","0","0","83263","","null","","","null","30","","","","","","","","","","","","","","","",""
"","ISI","","html-keyboard-response","204","321908","0.0-1.0-273.0","0","0","83263","","null","","","null","30","NaN","","","","","","","","","","","","","","",""
"","S2","","html-keyboard-response","205","322162","0.0-1.0-274.0","0","0","83263","","null","","","null","30","","NaN","","","","","","","","","","","","","",""
"","response","","html-keyboard-response","206","322672","0.0-1.0-275.0-0.0","0","0","83263","","506","","","75","30","","","1","30","training","adjacent","FE","6","5","Q.jpg","P.jpg","1","0","0","",""
"","feedback","","html-keyboard-response","207","323676","0.0-1.0-276.0-0.0","0","0","83263","","null","","","null","30","","","","","","","","","","","","","","","",""
"","time_out","","html-keyboard-response","208","325680","0.0-1.0-278.0-0.0","0","0","83263","","null","","","null","30","","","","","","","","","","","","","","","",""
"","ITI","","html-keyboard-response","209","326684","0.0-1.0-279.0","0","0","83263","","null","","","null","30","","","","","","","","","","","","","","","NaN",""
"","S1","","html-keyboard-response","210","326951","0.0-1.0-281.0","0","0","83263","","null","","","null","31","","","","","","","","","","","","","","","",""
"","ISI","","html-keyboard-response","211","328954","0.0-1.0-282.0","0","0","83263","","null","","","null","31","NaN","","","","","","","","","","","","","","",""
"","S2","","html-keyboard-response","212","329209","0.0-1.0-283.0","0","0","83263","","null","","","null","31","","NaN","","","","","","","","","","","","","",""
"","response","","html-keyboard-response","213","329921","0.0-1.0-284.0-0.0","0","0","83263","","709","","","68","31","","","1","31","training","adjacent","DE","4","5","O.jpg","P.jpg","0","1","0","",""
"","feedback","","html-keyboard-response","214","330925","0.0-1.0-285.0-0.0","0","0","83263","","null","","","null","31","","","","","","","","","","","","","","","",""
"","time_out","","html-keyboard-response","215","332929","0.0-1.0-287.0-0.0","0","0","83263","","null","","","null","31","","","","","","","","","","","","","","","",""
"","ITI","","html-keyboard-response","216","333933","0.0-1.0-288.0","0","0","83263","","null","","","null","31","","","","","","","","","","","","","","","NaN",""
"","S1","","html-keyboard-response","217","334188","0.0-1.0-290.0","0","0","83263","","null","","","null","32","","","","","","","","","","","","","","","",""
"","ISI","","html-keyboard-response","218","336192","0.0-1.0-291.0","0","0","83263","","null","","","null","32","NaN","","","","","","","","","","","","","","",""
"","S2","","html-keyboard-response","219","336447","0.0-1.0-292.0","0","0","83263","","null","","","null","32","","NaN","","","","","","","","","","","","","",""
"","response","","html-keyboard-response","220","336891","0.0-1.0-293.0-0.0","0","0","83263","","440","","","68","32","","","1","32","training","adjacent","BA","2","1","R.jpg","N.jpg","0","0","1","",""
"","feedback","","html-keyboard-response","221","337896","0.0-1.0-294.0-0.0","0","0","83263","","null","","","null","32","","","","","","","","","","","","","","","",""
"","ITI","","html-keyboard-response","222","338899","0.0-1.0-297.0","0","0","83263","","null","","","null","32","","","","","","","","","","","","","","","NaN",""
"","S1","","html-keyboard-response","223","339154","0.0-1.0-299.0","0","0","83263","","null","","","null","33","","","","","","","","","","","","","","","",""
"","ISI","","html-keyboard-response","224","341158","0.0-1.0-300.0","0","0","83263","","null","","","null","33","NaN","","","","","","","","","","","","","","",""
"","S2","","html-keyboard-response","225","341413","0.0-1.0-301.0","0","0","83263","","null","","","null","33","","NaN","","","","","","","","","","","","","",""
"","response","","html-keyboard-response","226","342547","0.0-1.0-302.0-0.0","0","0","83263","","1132","","","68","33","","","1","33","training","adjacent","DE","4","5","O.jpg","P.jpg","0","1","0","",""
"","feedback","","html-keyboard-response","227","343550","0.0-1.0-303.0-0.0","0","0","83263","","null","","","null","33","","","","","","","","","","","","","","","",""
"","time_out","","html-keyboard-response","228","345554","0.0-1.0-305.0-0.0","0","0","83263","","null","","","null","33","","","","","","","","","","","","","","","",""
"","ITI","","html-keyboard-response","229","346559","0.0-1.0-306.0","0","0","83263","","null","","","null","33","","","","","","","","","","","","","","","NaN",""
"","S1","","html-keyboard-response","230","346814","0.0-1.0-308.0","0","0","83263","","null","","","null","34","","","","","","","","","","","","","","","",""
"","ISI","","html-keyboard-response","231","348819","0.0-1.0-309.0","0","0","83263","","null","","","null","34","NaN","","","","","","","","","","","","","","",""
"","S2","","html-keyboard-response","232","349073","0.0-1.0-310.0","0","0","83263","","null","","","null","34","","NaN","","","","","","","","","","","","","",""
"","response","","html-keyboard-response","233","349571","0.0-1.0-311.0-0.0","0","0","83263","","495","","","75","34","","","1","34","training","adjacent","FG","6","7","Q.jpg","L.jpg","1","1","1","",""
"","feedback","","html-keyboard-response","234","350576","0.0-1.0-312.0-0.0","0","0","83263","","null","","","null","34","","","","","","","","","","","","","","","",""
"","ITI","","html-keyboard-response","235","351582","0.0-1.0-315.0","0","0","83263","","null","","","null","34","","","","","","","","","","","","","","","NaN",""
"","S1","","html-keyboard-response","236","351835","0.0-1.0-317.0","0","0","83263","","null","","","null","35","","","","","","","","","","","","","","","",""
"","ISI","","html-keyboard-response","237","353838","0.0-1.0-318.0","0","0","83263","","null","","","null","35","NaN","","","","","","","","","","","","","","",""
"","S2","","html-keyboard-response","238","354091","0.0-1.0-319.0","0","0","83263","","null","","","null","35","","NaN","","","","","","","","","","","","","",""
"","response","","html-keyboard-response","239","354567","0.0-1.0-320.0-0.0","0","0","83263","","473","","","75","35","","","1","35","training","adjacent","FE","6","5","Q.jpg","P.jpg","1","0","0","",""
"","feedback","","html-keyboard-response","240","355571","0.0-1.0-321.0-0.0","0","0","83263","","null","","","null","35","","","","","","","","","","","","","","","",""
"","time_out","","html-keyboard-response","241","357576","0.0-1.0-323.0-0.0","0","0","83263","","null","","","null","35","","","","","","","","","","","","","","","",""
"","ITI","","html-keyboard-response","242","358579","0.0-1.0-324.0","0","0","83263","","null","","","null","35","","","","","","","","","","","","","","","NaN",""
"","S1","","html-keyboard-response","243","358833","0.0-1.0-326.0","0","0","83263","","null","","","null","36","","","","","","","","","","","","","","","",""
"","ISI","","html-keyboard-response","244","360837","0.0-1.0-327.0","0","0","83263","","null","","","null","36","NaN","","","","","","","","","","","","","","",""
"","S2","","html-keyboard-response","245","361092","0.0-1.0-328.0","0","0","83263","","null","","","null","36","","NaN","","","","","","","","","","","","","",""
"","response","","html-keyboard-response","246","361729","0.0-1.0-329.0-0.0","0","0","83263","","634","","","68","36","","","1","36","training","adjacent","AB","1","2","N.jpg","R.jpg","0","1","0","",""
"","feedback","","html-keyboard-response","247","362733","0.0-1.0-330.0-0.0","0","0","83263","","null","","","null","36","","","","","","","","","","","","","","","",""
"","time_out","","html-keyboard-response","248","364737","0.0-1.0-332.0-0.0","0","0","83263","","null","","","null","36","","","","","","","","","","","","","","","",""
"","ITI","","html-keyboard-response","249","365740","0.0-1.0-333.0","0","0","83263","","null","","","null","36","","","","","","","","","","","","","","","NaN",""
"","S1","","html-keyboard-response","250","365995","0.0-1.0-335.0","0","0","83263","","null","","","null","37","","","","","","","","","","","","","","","",""
"","ISI","","html-keyboard-response","251","367999","0.0-1.0-336.0","0","0","83263","","null","","","null","37","NaN","","","","","","","","","","","","","","",""
"","S2","","html-keyboard-response","252","368254","0.0-1.0-337.0","0","0","83263","","null","","","null","37","","NaN","","","","","","","","","","","","","",""
"","response","","html-keyboard-response","253","368887","0.0-1.0-338.0-0.0","0","0","83263","","630","","","68","37","","","1","37","training","adjacent","BC","2","3","R.jpg","M.jpg","0","1","0","",""
"","feedback","","html-keyboard-response","254","369902","0.0-1.0-339.0-0.0","0","0","83263","","null","","","null","37","","","","","","","","","","","","","","","",""
"","time_out","","html-keyboard-response","255","371905","0.0-1.0-341.0-0.0","0","0","83263","","null","","","null","37","","","","","","","","","","","","","","","",""
"","ITI","","html-keyboard-response","256","372909","0.0-1.0-342.0","0","0","83263","","null","","","null","37","","","","","","","","","","","","","","","NaN",""
"","S1","","html-keyboard-response","257","373163","0.0-1.0-344.0","0","0","83263","","null","","","null","38","","","","","","","","","","","","","","","",""
"","ISI","","html-keyboard-response","258","375167","0.0-1.0-345.0","0","0","83263","","null","","","null","38","NaN","","","","","","","","","","","","","","",""
"","S2","","html-keyboard-response","259","375422","0.0-1.0-346.0","0","0","83263","","null","","","null","38","","NaN","","","","","","","","","","","","","",""
"","response","","html-keyboard-response","260","375921","0.0-1.0-347.0-0.0","0","0","83263","","496","","","68","38","","","1","38","training","adjacent","CB","3","2","M.jpg","R.jpg","0","0","1","",""
"","feedback","","html-keyboard-response","261","376925","0.0-1.0-348.0-0.0","0","0","83263","","null","","","null","38","","","","","","","","","","","","","","","",""
"","ITI","","html-keyboard-response","262","377929","0.0-1.0-351.0","0","0","83263","","null","","","null","38","","","","","","","","","","","","","","","NaN",""
"","S1","","html-keyboard-response","263","378184","0.0-1.0-353.0","0","0","83263","","null","","","null","39","","","","","","","","","","","","","","","",""
"","ISI","","html-keyboard-response","264","380187","0.0-1.0-354.0","0","0","83263","","null","","","null","39","NaN","","","","","","","","","","","","","","",""
"","S2","","html-keyboard-response","265","380442","0.0-1.0-355.0","0","0","83263","","null","","","null","39","","NaN","","","","","","","","","","","","","",""
"","response","","html-keyboard-response","266","381052","0.0-1.0-356.0-0.0","0","0","83263","","608","","","75","39","","","1","39","training","adjacent","DE","4","5","O.jpg","P.jpg","1","1","1","",""
"","feedback","","html-keyboard-response","267","382057","0.0-1.0-357.0-0.0","0","0","83263","","null","","","null","39","","","","","","","","","","","","","","","",""
"","ITI","","html-keyboard-response","268","383061","0.0-1.0-360.0","0","0","83263","","null","","","null","39","","","","","","","","","","","","","","","NaN",""
"","S1","","html-keyboard-response","269","383315","0.0-1.0-362.0","0","0","83263","","null","","","null","40","","","","","","","","","","","","","","","",""
"","ISI","","html-keyboard-response","270","385319","0.0-1.0-363.0","0","0","83263","","null","","","null","40","NaN","","","","","","","","","","","","","","",""
"","S2","","html-keyboard-response","271","385573","0.0-1.0-364.0","0","0","83263","","null","","","null","40","","NaN","","","","","","","","","","","","","",""
"","response","","html-keyboard-response","272","386361","0.0-1.0-365.0-0.0","0","0","83263","","786","","","68","40","","","1","40","training","adjacent","GF","7","6","L.jpg","Q.jpg","0","0","1","",""
"","feedback","","html-keyboard-response","273","387365","0.0-1.0-366.0-0.0","0","0","83263","","null","","","null","40","","","","","","","","","","","","","","","",""
"","ITI","","html-keyboard-response","274","388369","0.0-1.0-369.0","0","0","83263","","null","","","null","40","","","","","","","","","","","","","","","NaN",""
"","S1","","html-keyboard-response","275","388623","0.0-1.0-371.0","0","0","83263","","null","","","null","41","","","","","","","","","","","","","","","",""
"","ISI","","html-keyboard-response","276","390626","0.0-1.0-372.0","0","0","83263","","null","","","null","41","NaN","","","","","","","","","","","","","","",""
"","S2","","html-keyboard-response","277","390880","0.0-1.0-373.0","0","0","83263","","null","","","null","41","","NaN","","","","","","","","","","","","","",""
"","response","","html-keyboard-response","278","391485","0.0-1.0-374.0-0.0","0","0","83263","","602","","","75","41","","","1","41","training","adjacent","FG","6","7","Q.jpg","L.jpg","1","1","1","",""
"","feedback","","html-keyboard-response","279","392489","0.0-1.0-375.0-0.0","0","0","83263","","null","","","null","41","","","","","","","","","","","","","","","",""
"","ITI","","html-keyboard-response","280","393492","0.0-1.0-378.0","0","0","83263","","null","","","null","41","","","","","","","","","","","","","","","NaN",""
"","S1","","html-keyboard-response","281","393746","0.0-1.0-380.0","0","0","83263","","null","","","null","42","","","","","","","","","","","","","","","",""
"","ISI","","html-keyboard-response","282","395749","0.0-1.0-381.0","0","0","83263","","null","","","null","42","NaN","","","","","","","","","","","","","","",""
"","S2","","html-keyboard-response","283","396004","0.0-1.0-382.0","0","0","83263","","null","","","null","42","","NaN","","","","","","","","","","","","","",""
"","response","","html-keyboard-response","284","397200","0.0-1.0-383.0-0.0","0","0","83263","","1193","","","68","42","","","1","42","training","adjacent","CD","3","4","M.jpg","O.jpg","0","1","0","",""
"","feedback","","html-keyboard-response","285","398205","0.0-1.0-384.0-0.0","0","0","83263","","null","","","null","42","","","","","","","","","","","","","","","",""
"","time_out","","html-keyboard-response","286","400209","0.0-1.0-386.0-0.0","0","0","83263","","null","","","null","42","","","","","","","","","","","","","","","",""
"","ITI","","html-keyboard-response","287","401213","0.0-1.0-387.0","0","0","83263","","null","","","null","42","","","","","","","","","","","","","","","NaN",""
"","S1","","html-keyboard-response","288","401466","0.0-1.0-389.0","0","0","83263","","null","","","null","43","","","","","","","","","","","","","","","",""
"","ISI","","html-keyboard-response","289","403470","0.0-1.0-390.0","0","0","83263","","null","","","null","43","NaN","","","","","","","","","","","","","","",""
"","S2","","html-keyboard-response","290","403724","0.0-1.0-391.0","0","0","83263","","null","","","null","43","","NaN","","","","","","","","","","","","","",""
"","response","","html-keyboard-response","291","404959","0.0-1.0-392.0-0.0","0","0","83263","","1231","","","68","43","","","1","43","training","adjacent","EF","5","6","P.jpg","Q.jpg","0","1","0","",""
"","feedback","","html-keyboard-response","292","405963","0.0-1.0-393.0-0.0","0","0","83263","","null","","","null","43","","","","","","","","","","","","","","","",""
"","time_out","","html-keyboard-response","293","407969","0.0-1.0-395.0-0.0","0","0","83263","","null","","","null","43","","","","","","","","","","","","","","","",""
"","ITI","","html-keyboard-response","294","408973","0.0-1.0-396.0","0","0","83263","","null","","","null","43","","","","","","","","","","","","","","","NaN",""
"","S1","","html-keyboard-response","295","409227","0.0-1.0-398.0","0","0","83263","","null","","","null","44","","","","","","","","","","","","","","","",""
"","ISI","","html-keyboard-response","296","411230","0.0-1.0-399.0","0","0","83263","","null","","","null","44","NaN","","","","","","","","","","","","","","",""
"","S2","","html-keyboard-response","297","411484","0.0-1.0-400.0","0","0","83263","","null","","","null","44","","NaN","","","","","","","","","","","","","",""
"","response","","html-keyboard-response","298","412066","0.0-1.0-401.0-0.0","0","0","83263","","579","","","68","44","","","1","44","training","adjacent","BA","2","1","R.jpg","N.jpg","0","0","1","",""
"","feedback","","html-keyboard-response","299","413071","0.0-1.0-402.0-0.0","0","0","83263","","null","","","null","44","","","","","","","","","","","","","","","",""
"","ITI","","html-keyboard-response","300","414075","0.0-1.0-405.0","0","0","83263","","null","","","null","44","","","","","","","","","","","","","","","NaN",""
"","S1","","html-keyboard-response","301","414329","0.0-1.0-407.0","0","0","83263","","null","","","null","45","","","","","","","","","","","","","","","",""
"","ISI","","html-keyboard-response","302","416333","0.0-1.0-408.0","0","0","83263","","null","","","null","45","NaN","","","","","","","","","","","","","","",""
"","S2","","html-keyboard-response","303","416587","0.0-1.0-409.0","0","0","83263","","null","","","null","45","","NaN","","","","","","","","","","","","","",""
"","response","","html-keyboard-response","304","417852","0.0-1.0-410.0-0.0","0","0","83263","","1261","","","68","45","","","1","45","training","adjacent","CD","3","4","M.jpg","O.jpg","0","1","0","",""
"","feedback","","html-keyboard-response","305","418856","0.0-1.0-411.0-0.0","0","0","83263","","null","","","null","45","","","","","","","","","","","","","","","",""
"","time_out","","html-keyboard-response","306","420860","0.0-1.0-413.0-0.0","0","0","83263","","null","","","null","45","","","","","","","","","","","","","","","",""
"","ITI","","html-keyboard-response","307","421864","0.0-1.0-414.0","0","0","83263","","null","","","null","45","","","","","","","","","","","","","","","NaN",""
"","S1","","html-keyboard-response","308","422118","0.0-1.0-416.0","0","0","83263","","null","","","null","46","","","","","","","","","","","","","","","",""
"","ISI","","html-keyboard-response","309","424121","0.0-1.0-417.0","0","0","83263","","null","","","null","46","NaN","","","","","","","","","","","","","","",""
"","S2","","html-keyboard-response","310","424376","0.0-1.0-418.0","0","0","83263","","null","","","null","46","","NaN","","","","","","","","","","","","","",""
"","response","","html-keyboard-response","311","425361","0.0-1.0-419.0-0.0","0","0","83263","","982","","","68","46","","","1","46","training","adjacent","GF","7","6","L.jpg","Q.jpg","0","0","1","",""
"","feedback","","html-keyboard-response","312","426366","0.0-1.0-420.0-0.0","0","0","83263","","null","","","null","46","","","","","","","","","","","","","","","",""
"","ITI","","html-keyboard-response","313","427369","0.0-1.0-423.0","0","0","83263","","null","","","null","46","","","","","","","","","","","","","","","NaN",""
"","S1","","html-keyboard-response","314","427623","0.0-1.0-425.0","0","0","83263","","null","","","null","47","","","","","","","","","","","","","","","",""
"","ISI","","html-keyboard-response","315","429626","0.0-1.0-426.0","0","0","83263","","null","","","null","47","NaN","","","","","","","","","","","","","","",""
"","S2","","html-keyboard-response","316","429880","0.0-1.0-427.0","0","0","83263","","null","","","null","47","","NaN","","","","","","","","","","","","","",""
"","response","","html-keyboard-response","317","430826","0.0-1.0-428.0-0.0","0","0","83263","","942","","","68","47","","","1","47","training","adjacent","EF","5","6","P.jpg","Q.jpg","0","1","0","",""
"","feedback","","html-keyboard-response","318","431830","0.0-1.0-429.0-0.0","0","0","83263","","null","","","null","47","","","","","","","","","","","","","","","",""
"","time_out","","html-keyboard-response","319","433835","0.0-1.0-431.0-0.0","0","0","83263","","null","","","null","47","","","","","","","","","","","","","","","",""
"","ITI","","html-keyboard-response","320","434839","0.0-1.0-432.0","0","0","83263","","null","","","null","47","","","","","","","","","","","","","","","NaN",""
"","block_over","","html-keyboard-response","321","441796","0.0-1.0-433.0-0.0","0","0","83263","","6953","","","32","47","","","","","","","","","","","","","","","",""
"","S1","","html-keyboard-response","322","442051","0.0-1.0-434.0","0","0","83263","","null","","","null","48","","","","","","","","","","","","","","","",""
"","ISI","","html-keyboard-response","323","444055","0.0-1.0-435.0","0","0","83263","","null","","","null","48","NaN","","","","","","","","","","","","","","",""
"","S2","","html-keyboard-response","324","444309","0.0-1.0-436.0","0","0","83263","","null","","","null","48","","NaN","","","","","","","","","","","","","",""
"","response","","html-keyboard-response","325","445376","0.0-1.0-437.0-0.0","0","0","83263","","1064","","","68","48","","","2","48","training","adjacent","EF","5","6","P.jpg","Q.jpg","0","1","0","",""
"","feedback","","html-keyboard-response","326","446380","0.0-1.0-438.0-0.0","0","0","83263","","null","","","null","48","","","","","","","","","","","","","","","",""
"","time_out","","html-keyboard-response","327","448386","0.0-1.0-440.0-0.0","0","0","83263","","null","","","null","48","","","","","","","","","","","","","","","",""
"","ITI","","html-keyboard-response","328","449390","0.0-1.0-441.0","0","0","83263","","null","","","null","48","","","","","","","","","","","","","","","NaN",""
"","S1","","html-keyboard-response","329","449643","0.0-1.0-443.0","0","0","83263","","null","","","null","49","","","","","","","","","","","","","","","",""
"","ISI","","html-keyboard-response","330","451648","0.0-1.0-444.0","0","0","83263","","null","","","null","49","NaN","","","","","","","","","","","","","","",""
"","S2","","html-keyboard-response","331","451902","0.0-1.0-445.0","0","0","83263","","null","","","null","49","","NaN","","","","","","","","","","","","","",""
"","response","","html-keyboard-response","332","453328","0.0-1.0-446.0-0.0","0","0","83263","","1423","","","68","49","","","2","49","training","adjacent","DE","4","5","O.jpg","P.jpg","0","1","0","",""
"","feedback","","html-keyboard-response","333","454333","0.0-1.0-447.0-0.0","0","0","83263","","null","","","null","49","","","","","","","","","","","","","","","",""
"","time_out","","html-keyboard-response","334","456337","0.0-1.0-449.0-0.0","0","0","83263","","null","","","null","49","","","","","","","","","","","","","","","",""
"","ITI","","html-keyboard-response","335","457341","0.0-1.0-450.0","0","0","83263","","null","","","null","49","","","","","","","","","","","","","","","NaN",""
"","S1","","html-keyboard-response","336","457595","0.0-1.0-452.0","0","0","83263","","null","","","null","50","","","","","","","","","","","","","","","",""
"","ISI","","html-keyboard-response","337","459598","0.0-1.0-453.0","0","0","83263","","null","","","null","50","NaN","","","","","","","","","","","","","","",""
"","S2","","html-keyboard-response","338","459852","0.0-1.0-454.0","0","0","83263","","null","","","null","50","","NaN","","","","","","","","","","","","","",""
"","response","","html-keyboard-response","339","460742","0.0-1.0-455.0-0.0","0","0","83263","","887","","","68","50","","","2","50","training","adjacent","CD","3","4","M.jpg","O.jpg","0","1","0","",""
"","feedback","","html-keyboard-response","340","461747","0.0-1.0-456.0-0.0","0","0","83263","","null","","","null","50","","","","","","","","","","","","","","","",""
"","time_out","","html-keyboard-response","341","463751","0.0-1.0-458.0-0.0","0","0","83263","","null","","","null","50","","","","","","","","","","","","","","","",""
"","ITI","","html-keyboard-response","342","464755","0.0-1.0-459.0","0","0","83263","","null","","","null","50","","","","","","","","","","","","","","","NaN",""
"","S1","","html-keyboard-response","343","465009","0.0-1.0-461.0","0","0","83263","","null","","","null","51","","","","","","","","","","","","","","","",""
"","ISI","","html-keyboard-response","344","467013","0.0-1.0-462.0","0","0","83263","","null","","","null","51","NaN","","","","","","","","","","","","","","",""
"","S2","","html-keyboard-response","345","467268","0.0-1.0-463.0","0","0","83263","","null","","","null","51","","NaN","","","","","","","","","","","","","",""
"","response","","html-keyboard-response","346","468355","0.0-1.0-464.0-0.0","0","0","83263","","1084","","","68","51","","","2","51","training","adjacent","BA","2","1","R.jpg","N.jpg","0","0","1","",""
"","feedback","","html-keyboard-response","347","469359","0.0-1.0-465.0-0.0","0","0","83263","","null","","","null","51","","","","","","","","","","","","","","","",""
"","ITI","","html-keyboard-response","348","470363","0.0-1.0-468.0","0","0","83263","","null","","","null","51","","","","","","","","","","","","","","","NaN",""
"","S1","","html-keyboard-response","349","470618","0.0-1.0-470.0","0","0","83263","","null","","","null","52","","","","","","","","","","","","","","","",""
"","ISI","","html-keyboard-response","350","472622","0.0-1.0-471.0","0","0","83263","","null","","","null","52","NaN","","","","","","","","","","","","","","",""
"","S2","","html-keyboard-response","351","472877","0.0-1.0-472.0","0","0","83263","","null","","","null","52","","NaN","","","","","","","","","","","","","",""
"","response","","html-keyboard-response","352","473474","0.0-1.0-473.0-0.0","0","0","83263","","593","","","75","52","","","2","52","training","adjacent","AB","1","2","N.jpg","R.jpg","1","1","1","",""
"","feedback","","html-keyboard-response","353","474479","0.0-1.0-474.0-0.0","0","0","83263","","null","","","null","52","","","","","","","","","","","","","","","",""
"","ITI","","html-keyboard-response","354","475483","0.0-1.0-477.0","0","0","83263","","null","","","null","52","","","","","","","","","","","","","","","NaN",""
"","S1","","html-keyboard-response","355","475737","0.0-1.0-479.0","0","0","83263","","null","","","null","53","","","","","","","","","","","","","","","",""
"","ISI","","html-keyboard-response","356","477740","0.0-1.0-480.0","0","0","83263","","null","","","null","53","NaN","","","","","","","","","","","","","","",""
"","S2","","html-keyboard-response","357","477995","0.0-1.0-481.0","0","0","83263","","null","","","null","53","","NaN","","","","","","","","","","","","","",""
"","response","","html-keyboard-response","358","478678","0.0-1.0-482.0-0.0","0","0","83263","","679","","","68","53","","","2","53","training","adjacent","GF","7","6","L.jpg","Q.jpg","0","0","1","",""
"","feedback","","html-keyboard-response","359","479682","0.0-1.0-483.0-0.0","0","0","83263","","null","","","null","53","","","","","","","","","","","","","","","",""
"","ITI","","html-keyboard-response","360","480695","0.0-1.0-486.0","0","0","83263","","null","","","null","53","","","","","","","","","","","","","","","NaN",""
"","S1","","html-keyboard-response","361","480949","0.0-1.0-488.0","0","0","83263","","null","","","null","54","","","","","","","","","","","","","","","",""
"","ISI","","html-keyboard-response","362","482954","0.0-1.0-489.0","0","0","83263","","null","","","null","54","NaN","","","","","","","","","","","","","","",""
"","S2","","html-keyboard-response","363","483216","0.0-1.0-490.0","0","0","83263","","null","","","null","54","","NaN","","","","","","","","","","","","","",""
"","response","","html-keyboard-response","364","484128","0.0-1.0-491.0-0.0","0","0","83263","","908","","","75","54","","","2","54","training","adjacent","AB","1","2","N.jpg","R.jpg","1","1","1","",""
"","feedback","","html-keyboard-response","365","485132","0.0-1.0-492.0-0.0","0","0","83263","","null","","","null","54","","","","","","","","","","","","","","","",""
"","ITI","","html-keyboard-response","366","486136","0.0-1.0-495.0","0","0","83263","","null","","","null","54","","","","","","","","","","","","","","","NaN",""
"","S1","","html-keyboard-response","367","486391","0.0-1.0-497.0","0","0","83263","","null","","","null","55","","","","","","","","","","","","","","","",""
"","ISI","","html-keyboard-response","368","488394","0.0-1.0-498.0","0","0","83263","","null","","","null","55","NaN","","","","","","","","","","","","","","",""
"","S2","","html-keyboard-response","369","488656","0.0-1.0-499.0","0","0","83263","","null","","","null","55","","NaN","","","","","","","","","","","","","",""
"","response","","html-keyboard-response","370","490172","0.0-1.0-500.0-0.0","0","0","83263","","1513","","","75","55","","","2","55","training","adjacent","BC","2","3","R.jpg","M.jpg","1","1","1","",""
"","feedback","","html-keyboard-response","371","491176","0.0-1.0-501.0-0.0","0","0","83263","","null","","","null","55","","","","","","","","","","","","","","","",""
"","ITI","","html-keyboard-response","372","492180","0.0-1.0-504.0","0","0","83263","","null","","","null","55","","","","","","","","","","","","","","","NaN",""
"","S1","","html-keyboard-response","373","492434","0.0-1.0-506.0","0","0","83263","","null","","","null","56","","","","","","","","","","","","","","","",""
"","ISI","","html-keyboard-response","374","494439","0.0-1.0-507.0","0","0","83263","","null","","","null","56","NaN","","","","","","","","","","","","","","",""
"","S2","","html-keyboard-response","375","494693","0.0-1.0-508.0","0","0","83263","","null","","","null","56","","NaN","","","","","","","","","","","","","",""
"","response","","html-keyboard-response","376","496447","0.0-1.0-509.0-0.0","0","0","83263","","null","","","null","56","","","2","56","training","adjacent","BA","2","1","R.jpg","N.jpg","NaN","0","0","",""
"","too_slow_prompt","","html-keyboard-response","377","497451","0.0-1.0-511.0-0.0","1","0","83263","","null","","","null","","","","","","","","","","","","","","","","",""
"","time_out","","html-keyboard-response","378","499456","0.0-1.0-512.0-0.0","0","0","83263","","null","","","null","56","","","","","","","","","","","","","","","",""
"","ITI","","html-keyboard-response","379","500462","0.0-1.0-513.0","0","0","83263","","null","","","null","56","","","","","","","","","","","","","","","NaN",""
"","S1","","html-keyboard-response","380","500716","0.0-1.0-515.0","0","0","83263","","null","","","null","57","","","","","","","","","","","","","","","",""
"","ISI","","html-keyboard-response","381","502719","0.0-1.0-516.0","0","0","83263","","null","","","null","57","NaN","","","","","","","","","","","","","","",""
"","S2","","html-keyboard-response","382","502974","0.0-1.0-517.0","0","0","83263","","null","","","null","57","","NaN","","","","","","","","","","","","","",""
"","response","","html-keyboard-response","383","503969","0.0-1.0-518.0-0.0","0","0","83263","","991","","","68","57","","","2","57","training","adjacent","GF","7","6","L.jpg","Q.jpg","0","0","1","",""
"","feedback","","html-keyboard-response","384","504979","0.0-1.0-519.0-0.0","0","0","83263","","null","","","null","57","","","","","","","","","","","","","","","",""
"","ITI","","html-keyboard-response","385","505985","0.0-1.0-522.0","0","0","83263","","null","","","null","57","","","","","","","","","","","","","","","NaN",""
"","S1","","html-keyboard-response","386","506239","0.0-1.0-524.0","0","0","83263","","null","","","null","58","","","","","","","","","","","","","","","",""
"","ISI","","html-keyboard-response","387","508243","0.0-1.0-525.0","0","0","83263","","null","","","null","58","NaN","","","","","","","","","","","","","","",""
"","S2","","html-keyboard-response","388","508498","0.0-1.0-526.0","0","0","83263","","null","","","null","58","","NaN","","","","","","","","","","","","","",""
"","response","","html-keyboard-response","389","509022","0.0-1.0-527.0-0.0","0","0","83263","","521","","","75","58","","","2","58","training","adjacent","FG","6","7","Q.jpg","L.jpg","1","1","1","",""
"","feedback","","html-keyboard-response","390","510026","0.0-1.0-528.0-0.0","0","0","83263","","null","","","null","58","","","","","","","","","","","","","","","",""
"","ITI","","html-keyboard-response","391","511029","0.0-1.0-531.0","0","0","83263","","null","","","null","58","","","","","","","","","","","","","","","NaN",""
"","S1","","html-keyboard-response","392","511283","0.0-1.0-533.0","0","0","83263","","null","","","null","59","","","","","","","","","","","","","","","",""
"","ISI","","html-keyboard-response","393","513286","0.0-1.0-534.0","0","0","83263","","null","","","null","59","NaN","","","","","","","","","","","","","","",""
"","S2","","html-keyboard-response","394","513539","0.0-1.0-535.0","0","0","83263","","null","","","null","59","","NaN","","","","","","","","","","","","","",""
"","response","","html-keyboard-response","395","514127","0.0-1.0-536.0-0.0","0","0","83263","","586","","","75","59","","","2","59","training","adjacent","DC","4","3","O.jpg","M.jpg","1","0","0","",""
"","feedback","","html-keyboard-response","396","515132","0.0-1.0-537.0-0.0","0","0","83263","","null","","","null","59","","","","","","","","","","","","","","","",""
"","time_out","","html-keyboard-response","397","517136","0.0-1.0-539.0-0.0","0","0","83263","","null","","","null","59","","","","","","","","","","","","","","","",""
"","ITI","","html-keyboard-response","398","518140","0.0-1.0-540.0","0","0","83263","","null","","","null","59","","","","","","","","","","","","","","","NaN",""
"","S1","","html-keyboard-response","399","518394","0.0-1.0-542.0","0","0","83263","","null","","","null","60","","","","","","","","","","","","","","","",""
"","ISI","","html-keyboard-response","400","520398","0.0-1.0-543.0","0","0","83263","","null","","","null","60","NaN","","","","","","","","","","","","","","",""
"","S2","","html-keyboard-response","401","520652","0.0-1.0-544.0","0","0","83263","","null","","","null","60","","NaN","","","","","","","","","","","","","",""
"","response","","html-keyboard-response","402","520956","0.0-1.0-545.0-0.0","0","0","83263","","300","","","68","60","","","2","60","training","adjacent","EF","5","6","P.jpg","Q.jpg","0","1","0","",""
"","feedback","","html-keyboard-response","403","521960","0.0-1.0-546.0-0.0","0","0","83263","","null","","","null","60","","","","","","","","","","","","","","","",""
"","time_out","","html-keyboard-response","404","523964","0.0-1.0-548.0-0.0","0","0","83263","","null","","","null","60","","","","","","","","","","","","","","","",""
"","ITI","","html-keyboard-response","405","524969","0.0-1.0-549.0","0","0","83263","","null","","","null","60","","","","","","","","","","","","","","","NaN",""
"","S1","","html-keyboard-response","406","525223","0.0-1.0-551.0","0","0","83263","","null","","","null","61","","","","","","","","","","","","","","","",""
"","ISI","","html-keyboard-response","407","527227","0.0-1.0-552.0","0","0","83263","","null","","","null","61","NaN","","","","","","","","","","","","","","",""
"","S2","","html-keyboard-response","408","527481","0.0-1.0-553.0","0","0","83263","","null","","","null","61","","NaN","","","","","","","","","","","","","",""
"","response","","html-keyboard-response","409","528107","0.0-1.0-554.0-0.0","0","0","83263","","623","","","75","61","","","2","61","training","adjacent","BC","2","3","R.jpg","M.jpg","1","1","1","",""
"","feedback","","html-keyboard-response","410","529112","0.0-1.0-555.0-0.0","0","0","83263","","null","","","null","61","","","","","","","","","","","","","","","",""
"","ITI","","html-keyboard-response","411","530117","0.0-1.0-558.0","0","0","83263","","null","","","null","61","","","","","","","","","","","","","","","NaN",""
"","S1","","html-keyboard-response","412","530372","0.0-1.0-560.0","0","0","83263","","null","","","null","62","","","","","","","","","","","","","","","",""
"","ISI","","html-keyboard-response","413","532376","0.0-1.0-561.0","0","0","83263","","null","","","null","62","NaN","","","","","","","","","","","","","","",""
"","S2","","html-keyboard-response","414","532630","0.0-1.0-562.0","0","0","83263","","null","","","null","62","","NaN","","","","","","","","","","","","","",""
"","response","","html-keyboard-response","415","533325","0.0-1.0-563.0-0.0","0","0","83263","","691","","","68","62","","","2","62","training","adjacent","BA","2","1","R.jpg","N.jpg","0","0","1","",""
"","feedback","","html-keyboard-response","416","534330","0.0-1.0-564.0-0.0","0","0","83263","","null","","","null","62","","","","","","","","","","","","","","","",""
"","ITI","","html-keyboard-response","417","535334","0.0-1.0-567.0","0","0","83263","","null","","","null","62","","","","","","","","","","","","","","","NaN",""
"","S1","","html-keyboard-response","418","535588","0.0-1.0-569.0","0","0","83263","","null","","","null","63","","","","","","","","","","","","","","","",""
"","ISI","","html-keyboard-response","419","537592","0.0-1.0-570.0","0","0","83263","","null","","","null","63","NaN","","","","","","","","","","","","","","",""
"","S2","","html-keyboard-response","420","537847","0.0-1.0-571.0","0","0","83263","","null","","","null","63","","NaN","","","","","","","","","","","","","",""
"","response","","html-keyboard-response","421","538275","0.0-1.0-572.0-0.0","0","0","83263","","425","","","75","63","","","2","63","training","adjacent","DE","4","5","O.jpg","P.jpg","1","1","1","",""
"","feedback","","html-keyboard-response","422","539281","0.0-1.0-573.0-0.0","0","0","83263","","null","","","null","63","","","","","","","","","","","","","","","",""
"","ITI","","html-keyboard-response","423","540285","0.0-1.0-576.0","0","0","83263","","null","","","null","63","","","","","","","","","","","","","","","NaN",""
"","S1","","html-keyboard-response","424","540539","0.0-1.0-578.0","0","0","83263","","null","","","null","64","","","","","","","","","","","","","","","",""
"","ISI","","html-keyboard-response","425","542542","0.0-1.0-579.0","0","0","83263","","null","","","null","64","NaN","","","","","","","","","","","","","","",""
"","S2","","html-keyboard-response","426","542795","0.0-1.0-580.0","0","0","83263","","null","","","null","64","","NaN","","","","","","","","","","","","","",""
"","response","","html-keyboard-response","427","543289","0.0-1.0-581.0-0.0","0","0","83263","","490","","","75","64","","","2","64","training","adjacent","ED","5","4","P.jpg","O.jpg","1","0","0","",""
"","feedback","","html-keyboard-response","428","544294","0.0-1.0-582.0-0.0","0","0","83263","","null","","","null","64","","","","","","","","","","","","","","","",""
"","time_out","","html-keyboard-response","429","546298","0.0-1.0-584.0-0.0","0","0","83263","","null","","","null","64","","","","","","","","","","","","","","","",""
"","ITI","","html-keyboard-response","430","547302","0.0-1.0-585.0","0","0","83263","","null","","","null","64","","","","","","","","","","","","","","","NaN",""
"","S1","","html-keyboard-response","431","547556","0.0-1.0-587.0","0","0","83263","","null","","","null","65","","","","","","","","","","","","","","","",""
"","ISI","","html-keyboard-response","432","549560","0.0-1.0-588.0","0","0","83263","","null","","","null","65","NaN","","","","","","","","","","","","","","",""
"","S2","","html-keyboard-response","433","549815","0.0-1.0-589.0","0","0","83263","","null","","","null","65","","NaN","","","","","","","","","","","","","",""
"","response","","html-keyboard-response","434","550569","0.0-1.0-590.0-0.0","0","0","83263","","751","","","68","65","","","2","65","training","adjacent","DE","4","5","O.jpg","P.jpg","0","1","0","",""
"","feedback","","html-keyboard-response","435","551574","0.0-1.0-591.0-0.0","0","0","83263","","null","","","null","65","","","","","","","","","","","","","","","",""
"","time_out","","html-keyboard-response","436","553579","0.0-1.0-593.0-0.0","0","0","83263","","null","","","null","65","","","","","","","","","","","","","","","",""
"","ITI","","html-keyboard-response","437","554582","0.0-1.0-594.0","0","0","83263","","null","","","null","65","","","","","","","","","","","","","","","NaN",""
"","S1","","html-keyboard-response","438","554836","0.0-1.0-596.0","0","0","83263","","null","","","null","66","","","","","","","","","","","","","","","",""
"","ISI","","html-keyboard-response","439","556841","0.0-1.0-597.0","0","0","83263","","null","","","null","66","NaN","","","","","","","","","","","","","","",""
"","S2","","html-keyboard-response","440","557095","0.0-1.0-598.0","0","0","83263","","null","","","null","66","","NaN","","","","","","","","","","","","","",""
"","response","","html-keyboard-response","441","557469","0.0-1.0-599.0-0.0","0","0","83263","","369","","","75","66","","","2","66","training","adjacent","FE","6","5","Q.jpg","P.jpg","1","0","0","",""
"","feedback","","html-keyboard-response","442","558475","0.0-1.0-600.0-0.0","0","0","83263","","null","","","null","66","","","","","","","","","","","","","","","",""
"","time_out","","html-keyboard-response","443","560480","0.0-1.0-602.0-0.0","0","0","83263","","null","","","null","66","","","","","","","","","","","","","","","",""
"","ITI","","html-keyboard-response","444","561484","0.0-1.0-603.0","0","0","83263","","null","","","null","66","","","","","","","","","","","","","","","NaN",""
"","S1","","html-keyboard-response","445","561739","0.0-1.0-605.0","0","0","83263","","null","","","null","67","","","","","","","","","","","","","","","",""
"","ISI","","html-keyboard-response","446","563743","0.0-1.0-606.0","0","0","83263","","null","","","null","67","NaN","","","","","","","","","","","","","","",""
"","S2","","html-keyboard-response","447","563998","0.0-1.0-607.0","0","0","83263","","null","","","null","67","","NaN","","","","","","","","","","","","","",""
"","response","","html-keyboard-response","448","564281","0.0-1.0-608.0-0.0","0","0","83263","","279","","","75","67","","","2","67","training","adjacent","AB","1","2","N.jpg","R.jpg","1","1","1","",""
"","feedback","","html-keyboard-response","449","565286","0.0-1.0-609.0-0.0","0","0","83263","","null","","","null","67","","","","","","","","","","","","","","","",""
"","ITI","","html-keyboard-response","450","566290","0.0-1.0-612.0","0","0","83263","","null","","","null","67","","","","","","","","","","","","","","","NaN",""
"","S1","","html-keyboard-response","451","566545","0.0-1.0-614.0","0","0","83263","","null","","","null","68","","","","","","","","","","","","","","","",""
"","ISI","","html-keyboard-response","452","568547","0.0-1.0-615.0","0","0","83263","","null","","","null","68","NaN","","","","","","","","","","","","","","",""
"","S2","","html-keyboard-response","453","568800","0.0-1.0-616.0","0","0","83263","","null","","","null","68","","NaN","","","","","","","","","","","","","",""
"","response","","html-keyboard-response","454","569216","0.0-1.0-617.0-0.0","0","0","83263","","412","","","75","68","","","2","68","training","adjacent","FG","6","7","Q.jpg","L.jpg","1","1","1","",""
"","feedback","","html-keyboard-response","455","570221","0.0-1.0-618.0-0.0","0","0","83263","","null","","","null","68","","","","","","","","","","","","","","","",""
"","ITI","","html-keyboard-response","456","571225","0.0-1.0-621.0","0","0","83263","","null","","","null","68","","","","","","","","","","","","","","","NaN",""
"","S1","","html-keyboard-response","457","571479","0.0-1.0-623.0","0","0","83263","","null","","","null","69","","","","","","","","","","","","","","","",""
"","ISI","","html-keyboard-response","458","573482","0.0-1.0-624.0","0","0","83263","","null","","","null","69","NaN","","","","","","","","","","","","","","",""
"","S2","","html-keyboard-response","459","573737","0.0-1.0-625.0","0","0","83263","","null","","","null","69","","NaN","","","","","","","","","","","","","",""
"","response","","html-keyboard-response","460","574547","0.0-1.0-626.0-0.0","0","0","83263","","806","","","68","69","","","2","69","training","adjacent","BC","2","3","R.jpg","M.jpg","0","1","0","",""
"","feedback","","html-keyboard-response","461","575552","0.0-1.0-627.0-0.0","0","0","83263","","null","","","null","69","","","","","","","","","","","","","","","",""
"","time_out","","html-keyboard-response","462","577555","0.0-1.0-629.0-0.0","0","0","83263","","null","","","null","69","","","","","","","","","","","","","","","",""
"","ITI","","html-keyboard-response","463","578558","0.0-1.0-630.0","0","0","83263","","null","","","null","69","","","","","","","","","","","","","","","NaN",""
"","S1","","html-keyboard-response","464","578812","0.0-1.0-632.0","0","0","83263","","null","","","null","70","","","","","","","","","","","","","","","",""
"","ISI","","html-keyboard-response","465","580816","0.0-1.0-633.0","0","0","83263","","null","","","null","70","NaN","","","","","","","","","","","","","","",""
"","S2","","html-keyboard-response","466","581071","0.0-1.0-634.0","0","0","83263","","null","","","null","70","","NaN","","","","","","","","","","","","","",""
"","response","","html-keyboard-response","467","581696","0.0-1.0-635.0-0.0","0","0","83263","","622","","","75","70","","","2","70","training","adjacent","DC","4","3","O.jpg","M.jpg","1","0","0","",""
"","feedback","","html-keyboard-response","468","582701","0.0-1.0-636.0-0.0","0","0","83263","","null","","","null","70","","","","","","","","","","","","","","","",""
"","time_out","","html-keyboard-response","469","584705","0.0-1.0-638.0-0.0","0","0","83263","","null","","","null","70","","","","","","","","","","","","","","","",""
"","ITI","","html-keyboard-response","470","585710","0.0-1.0-639.0","0","0","83263","","null","","","null","70","","","","","","","","","","","","","","","NaN",""
"","S1","","html-keyboard-response","471","585964","0.0-1.0-641.0","0","0","83263","","null","","","null","71","","","","","","","","","","","","","","","",""
"","ISI","","html-keyboard-response","472","587969","0.0-1.0-642.0","0","0","83263","","null","","","null","71","NaN","","","","","","","","","","","","","","",""
"","S2","","html-keyboard-response","473","588223","0.0-1.0-643.0","0","0","83263","","null","","","null","71","","NaN","","","","","","","","","","","","","",""
"","response","","html-keyboard-response","474","588871","0.0-1.0-644.0-0.0","0","0","83263","","645","","","68","71","","","2","71","training","adjacent","BC","2","3","R.jpg","M.jpg","0","1","0","",""
"","feedback","","html-keyboard-response","475","589883","0.0-1.0-645.0-0.0","0","0","83263","","null","","","null","71","","","","","","","","","","","","","","","",""
"","time_out","","html-keyboard-response","476","591887","0.0-1.0-647.0-0.0","0","0","83263","","null","","","null","71","","","","","","","","","","","","","","","",""
"","ITI","","html-keyboard-response","477","592890","0.0-1.0-648.0","0","0","83263","","null","","","null","71","","","","","","","","","","","","","","","NaN",""
"","S1","","html-keyboard-response","478","593145","0.0-1.0-650.0","0","0","83263","","null","","","null","72","","","","","","","","","","","","","","","",""
"","ISI","","html-keyboard-response","479","595149","0.0-1.0-651.0","0","0","83263","","null","","","null","72","NaN","","","","","","","","","","","","","","",""
"","S2","","html-keyboard-response","480","595403","0.0-1.0-652.0","0","0","83263","","null","","","null","72","","NaN","","","","","","","","","","","","","",""
"","response","","html-keyboard-response","481","596055","0.0-1.0-653.0-0.0","0","0","83263","","648","","","75","72","","","2","72","training","adjacent","DE","4","5","O.jpg","P.jpg","1","1","1","",""
"","feedback","","html-keyboard-response","482","597060","0.0-1.0-654.0-0.0","0","0","83263","","null","","","null","72","","","","","","","","","","","","","","","",""
"","ITI","","html-keyboard-response","483","598078","0.0-1.0-657.0","0","0","83263","","null","","","null","72","","","","","","","","","","","","","","","NaN",""
"","S1","","html-keyboard-response","484","598332","0.0-1.0-659.0","0","0","83263","","null","","","null","73","","","","","","","","","","","","","","","",""
"","ISI","","html-keyboard-response","485","600335","0.0-1.0-660.0","0","0","83263","","null","","","null","73","NaN","","","","","","","","","","","","","","",""
"","S2","","html-keyboard-response","486","600589","0.0-1.0-661.0","0","0","83263","","null","","","null","73","","NaN","","","","","","","","","","","","","",""
"","response","","html-keyboard-response","487","601223","0.0-1.0-662.0-0.0","0","0","83263","","631","","","68","73","","","2","73","training","adjacent","CB","3","2","M.jpg","R.jpg","0","0","1","",""
"","feedback","","html-keyboard-response","488","602228","0.0-1.0-663.0-0.0","0","0","83263","","null","","","null","73","","","","","","","","","","","","","","","",""
"","ITI","","html-keyboard-response","489","603232","0.0-1.0-666.0","0","0","83263","","null","","","null","73","","","","","","","","","","","","","","","NaN",""
"","S1","","html-keyboard-response","490","603486","0.0-1.0-668.0","0","0","83263","","null","","","null","74","","","","","","","","","","","","","","","",""
"","ISI","","html-keyboard-response","491","605489","0.0-1.0-669.0","0","0","83263","","null","","","null","74","NaN","","","","","","","","","","","","","","",""
"","S2","","html-keyboard-response","492","605743","0.0-1.0-670.0","0","0","83263","","null","","","null","74","","NaN","","","","","","","","","","","","","",""
"","response","","html-keyboard-response","493","607086","0.0-1.0-671.0-0.0","0","0","83263","","1339","","","75","74","","","2","74","training","adjacent","CB","3","2","M.jpg","R.jpg","1","0","0","",""
"","feedback","","html-keyboard-response","494","608091","0.0-1.0-672.0-0.0","0","0","83263","","null","","","null","74","","","","","","","","","","","","","","","",""
"","time_out","","html-keyboard-response","495","610095","0.0-1.0-674.0-0.0","0","0","83263","","null","","","null","74","","","","","","","","","","","","","","","",""
"","ITI","","html-keyboard-response","496","611098","0.0-1.0-675.0","0","0","83263","","null","","","null","74","","","","","","","","","","","","","","","NaN",""
"","S1","","html-keyboard-response","497","611352","0.0-1.0-677.0","0","0","83263","","null","","","null","75","","","","","","","","","","","","","","","",""
"","ISI","","html-keyboard-response","498","613357","0.0-1.0-678.0","0","0","83263","","null","","","null","75","NaN","","","","","","","","","","","","","","",""
"","S2","","html-keyboard-response","499","613611","0.0-1.0-679.0","0","0","83263","","null","","","null","75","","NaN","","","","","","","","","","","","","",""
"","response","","html-keyboard-response","500","614532","0.0-1.0-680.0-0.0","0","0","83263","","917","","","75","75","","","2","75","training","adjacent","CB","3","2","M.jpg","R.jpg","1","0","0","",""
"","feedback","","html-keyboard-response","501","615534","0.0-1.0-681.0-0.0","0","0","83263","","null","","","null","75","","","","","","","","","","","","","","","",""
"","time_out","","html-keyboard-response","502","617537","0.0-1.0-683.0-0.0","0","0","83263","","null","","","null","75","","","","","","","","","","","","","","","",""
"","ITI","","html-keyboard-response","503","618539","0.0-1.0-684.0","0","0","83263","","null","","","null","75","","","","","","","","","","","","","","","NaN",""
"","S1","","html-keyboard-response","504","618793","0.0-1.0-686.0","0","0","83263","","null","","","null","76","","","","","","","","","","","","","","","",""
"","ISI","","html-keyboard-response","505","620797","0.0-1.0-687.0","0","0","83263","","null","","","null","76","NaN","","","","","","","","","","","","","","",""
"","S2","","html-keyboard-response","506","621051","0.0-1.0-688.0","0","0","83263","","null","","","null","76","","NaN","","","","","","","","","","","","","",""
"","response","","html-keyboard-response","507","622119","0.0-1.0-689.0-0.0","0","0","83263","","1063","","","68","76","","","2","76","training","adjacent","BA","2","1","R.jpg","N.jpg","0","0","1","",""
"","feedback","","html-keyboard-response","508","623124","0.0-1.0-690.0-0.0","0","0","83263","","null","","","null","76","","","","","","","","","","","","","","","",""
"","ITI","","html-keyboard-response","509","624129","0.0-1.0-693.0","0","0","83263","","null","","","null","76","","","","","","","","","","","","","","","NaN",""
"","S1","","html-keyboard-response","510","624383","0.0-1.0-695.0","0","0","83263","","null","","","null","77","","","","","","","","","","","","","","","",""
"","ISI","","html-keyboard-response","511","626387","0.0-1.0-696.0","0","0","83263","","null","","","null","77","NaN","","","","","","","","","","","","","","",""
"","S2","","html-keyboard-response","512","626640","0.0-1.0-697.0","0","0","83263","","null","","","null","77","","NaN","","","","","","","","","","","","","",""
"","response","","html-keyboard-response","513","627095","0.0-1.0-698.0-0.0","0","0","83263","","452","","","75","77","","","2","77","training","adjacent","FG","6","7","Q.jpg","L.jpg","1","1","1","",""
"","feedback","","html-keyboard-response","514","628100","0.0-1.0-699.0-0.0","0","0","83263","","null","","","null","77","","","","","","","","","","","","","","","",""
"","ITI","","html-keyboard-response","515","629105","0.0-1.0-702.0","0","0","83263","","null","","","null","77","","","","","","","","","","","","","","","NaN",""
"","S1","","html-keyboard-response","516","629359","0.0-1.0-704.0","0","0","83263","","null","","","null","78","","","","","","","","","","","","","","","",""
"","ISI","","html-keyboard-response","517","631363","0.0-1.0-705.0","0","0","83263","","null","","","null","78","NaN","","","","","","","","","","","","","","",""
"","S2","","html-keyboard-response","518","631628","0.0-1.0-706.0","0","0","83263","","null","","","null","78","","NaN","","","","","","","","","","","","","",""
"","response","","html-keyboard-response","519","632006","0.0-1.0-707.0-0.0","0","0","83263","","374","","","75","78","","","2","78","training","adjacent","FE","6","5","Q.jpg","P.jpg","1","0","0","",""
"","feedback","","html-keyboard-response","520","633025","0.0-1.0-708.0-0.0","0","0","83263","","null","","","null","78","","","","","","","","","","","","","","","",""
"","time_out","","html-keyboard-response","521","635030","0.0-1.0-710.0-0.0","0","0","83263","","null","","","null","78","","","","","","","","","","","","","","","",""
"","ITI","","html-keyboard-response","522","636034","0.0-1.0-711.0","0","0","83263","","null","","","null","78","","","","","","","","","","","","","","","NaN",""
"","S1","","html-keyboard-response","523","636289","0.0-1.0-713.0","0","0","83263","","null","","","null","79","","","","","","","","","","","","","","","",""
"","ISI","","html-keyboard-response","524","638292","0.0-1.0-714.0","0","0","83263","","null","","","null","79","NaN","","","","","","","","","","","","","","",""
"","S2","","html-keyboard-response","525","638545","0.0-1.0-715.0","0","0","83263","","null","","","null","79","","NaN","","","","","","","","","","","","","",""
"","response","","html-keyboard-response","526","638908","0.0-1.0-716.0-0.0","0","0","83263","","359","","","75","79","","","2","79","training","adjacent","FG","6","7","Q.jpg","L.jpg","1","1","1","",""
"","feedback","","html-keyboard-response","527","639913","0.0-1.0-717.0-0.0","0","0","83263","","null","","","null","79","","","","","","","","","","","","","","","",""
"","ITI","","html-keyboard-response","528","640917","0.0-1.0-720.0","0","0","83263","","null","","","null","79","","","","","","","","","","","","","","","NaN",""
"","S1","","html-keyboard-response","529","641171","0.0-1.0-722.0","0","0","83263","","null","","","null","80","","","","","","","","","","","","","","","",""
"","ISI","","html-keyboard-response","530","643175","0.0-1.0-723.0","0","0","83263","","null","","","null","80","NaN","","","","","","","","","","","","","","",""
"","S2","","html-keyboard-response","531","643429","0.0-1.0-724.0","0","0","83263","","null","","","null","80","","NaN","","","","","","","","","","","","","",""
"","response","","html-keyboard-response","532","644055","0.0-1.0-725.0-0.0","0","0","83263","","622","","","68","80","","","2","80","training","adjacent","GF","7","6","L.jpg","Q.jpg","0","0","1","",""
"","feedback","","html-keyboard-response","533","645060","0.0-1.0-726.0-0.0","0","0","83263","","null","","","null","80","","","","","","","","","","","","","","","",""
"","ITI","","html-keyboard-response","534","646071","0.0-1.0-729.0","0","0","83263","","null","","","null","80","","","","","","","","","","","","","","","NaN",""
"","S1","","html-keyboard-response","535","646325","0.0-1.0-731.0","0","0","83263","","null","","","null","81","","","","","","","","","","","","","","","",""
"","ISI","","html-keyboard-response","536","648329","0.0-1.0-732.0","0","0","83263","","null","","","null","81","NaN","","","","","","","","","","","","","","",""
"","S2","","html-keyboard-response","537","648583","0.0-1.0-733.0","0","0","83263","","null","","","null","81","","NaN","","","","","","","","","","","","","",""
"","response","","html-keyboard-response","538","649136","0.0-1.0-734.0-0.0","0","0","83263","","548","","","75","81","","","2","81","training","adjacent","ED","5","4","P.jpg","O.jpg","1","0","0","",""
"","feedback","","html-keyboard-response","539","650142","0.0-1.0-735.0-0.0","0","0","83263","","null","","","null","81","","","","","","","","","","","","","","","",""
"","time_out","","html-keyboard-response","540","652147","0.0-1.0-737.0-0.0","0","0","83263","","null","","","null","81","","","","","","","","","","","","","","","",""
"","ITI","","html-keyboard-response","541","653152","0.0-1.0-738.0","0","0","83263","","null","","","null","81","","","","","","","","","","","","","","","NaN",""
"","S1","","html-keyboard-response","542","653406","0.0-1.0-740.0","0","0","83263","","null","","","null","82","","","","","","","","","","","","","","","",""
"","ISI","","html-keyboard-response","543","655409","0.0-1.0-741.0","0","0","83263","","null","","","null","82","NaN","","","","","","","","","","","","","","",""
"","S2","","html-keyboard-response","544","655664","0.0-1.0-742.0","0","0","83263","","null","","","null","82","","NaN","","","","","","","","","","","","","",""
"","response","","html-keyboard-response","545","656264","0.0-1.0-743.0-0.0","0","0","83263","","596","","","68","82","","","2","82","training","adjacent","EF","5","6","P.jpg","Q.jpg","0","1","0","",""
"","feedback","","html-keyboard-response","546","657269","0.0-1.0-744.0-0.0","0","0","83263","","null","","","null","82","","","","","","","","","","","","","","","",""
"","time_out","","html-keyboard-response","547","659274","0.0-1.0-746.0-0.0","0","0","83263","","null","","","null","82","","","","","","","","","","","","","","","",""
"","ITI","","html-keyboard-response","548","660278","0.0-1.0-747.0","0","0","83263","","null","","","null","82","","","","","","","","","","","","","","","NaN",""
"","S1","","html-keyboard-response","549","660531","0.0-1.0-749.0","0","0","83263","","null","","","null","83","","","","","","","","","","","","","","","",""
"","ISI","","html-keyboard-response","550","662534","0.0-1.0-750.0","0","0","83263","","null","","","null","83","NaN","","","","","","","","","","","","","","",""
"","S2","","html-keyboard-response","551","662789","0.0-1.0-751.0","0","0","83263","","null","","","null","83","","NaN","","","","","","","","","","","","","",""
"","response","","html-keyboard-response","552","663599","0.0-1.0-752.0-0.0","0","0","83263","","806","","","68","83","","","2","83","training","adjacent","ED","5","4","P.jpg","O.jpg","0","0","1","",""
"","feedback","","html-keyboard-response","553","664604","0.0-1.0-753.0-0.0","0","0","83263","","null","","","null","83","","","","","","","","","","","","","","","",""
"","ITI","","html-keyboard-response","554","665609","0.0-1.0-756.0","0","0","83263","","null","","","null","83","","","","","","","","","","","","","","","NaN",""
"","S1","","html-keyboard-response","555","665863","0.0-1.0-758.0","0","0","83263","","null","","","null","84","","","","","","","","","","","","","","","",""
"","ISI","","html-keyboard-response","556","667868","0.0-1.0-759.0","0","0","83263","","null","","","null","84","NaN","","","","","","","","","","","","","","",""
"","S2","","html-keyboard-response","557","668122","0.0-1.0-760.0","0","0","83263","","null","","","null","84","","NaN","","","","","","","","","","","","","",""
"","response","","html-keyboard-response","558","668621","0.0-1.0-761.0-0.0","0","0","83263","","495","","","75","84","","","2","84","training","adjacent","CD","3","4","M.jpg","O.jpg","1","1","1","",""
"","feedback","","html-keyboard-response","559","669628","0.0-1.0-762.0-0.0","0","0","83263","","null","","","null","84","","","","","","","","","","","","","","","",""
"","ITI","","html-keyboard-response","560","670632","0.0-1.0-765.0","0","0","83263","","null","","","null","84","","","","","","","","","","","","","","","NaN",""
"","S1","","html-keyboard-response","561","670887","0.0-1.0-767.0","0","0","83263","","null","","","null","85","","","","","","","","","","","","","","","",""
"","ISI","","html-keyboard-response","562","672890","0.0-1.0-768.0","0","0","83263","","null","","","null","85","NaN","","","","","","","","","","","","","","",""
"","S2","","html-keyboard-response","563","673145","0.0-1.0-769.0","0","0","83263","","null","","","null","85","","NaN","","","","","","","","","","","","","",""
"","response","","html-keyboard-response","564","673667","0.0-1.0-770.0-0.0","0","0","83263","","518","","","68","85","","","2","85","training","adjacent","DC","4","3","O.jpg","M.jpg","0","0","1","",""
"","feedback","","html-keyboard-response","565","674672","0.0-1.0-771.0-0.0","0","0","83263","","null","","","null","85","","","","","","","","","","","","","","","",""
"","ITI","","html-keyboard-response","566","675676","0.0-1.0-774.0","0","0","83263","","null","","","null","85","","","","","","","","","","","","","","","NaN",""
"","S1","","html-keyboard-response","567","675934","0.0-1.0-776.0","0","0","83263","","null","","","null","86","","","","","","","","","","","","","","","",""
"","ISI","","html-keyboard-response","568","677938","0.0-1.0-777.0","0","0","83263","","null","","","null","86","NaN","","","","","","","","","","","","","","",""
"","S2","","html-keyboard-response","569","678192","0.0-1.0-778.0","0","0","83263","","null","","","null","86","","NaN","","","","","","","","","","","","","",""
"","response","","html-keyboard-response","570","678563","0.0-1.0-779.0-0.0","0","0","83263","","367","","","68","86","","","2","86","training","adjacent","EF","5","6","P.jpg","Q.jpg","0","1","0","",""
"","feedback","","html-keyboard-response","571","679567","0.0-1.0-780.0-0.0","0","0","83263","","null","","","null","86","","","","","","","","","","","","","","","",""
"","time_out","","html-keyboard-response","572","681572","0.0-1.0-782.0-0.0","0","0","83263","","null","","","null","86","","","","","","","","","","","","","","","",""
"","ITI","","html-keyboard-response","573","682575","0.0-1.0-783.0","0","0","83263","","null","","","null","86","","","","","","","","","","","","","","","NaN",""
"","S1","","html-keyboard-response","574","682830","0.0-1.0-785.0","0","0","83263","","null","","","null","87","","","","","","","","","","","","","","","",""
"","ISI","","html-keyboard-response","575","684834","0.0-1.0-786.0","0","0","83263","","null","","","null","87","NaN","","","","","","","","","","","","","","",""
"","S2","","html-keyboard-response","576","685089","0.0-1.0-787.0","0","0","83263","","null","","","null","87","","NaN","","","","","","","","","","","","","",""
"","response","","html-keyboard-response","577","686047","0.0-1.0-788.0-0.0","0","0","83263","","954","","","68","87","","","2","87","training","adjacent","GF","7","6","L.jpg","Q.jpg","0","0","1","",""
"","feedback","","html-keyboard-response","578","687053","0.0-1.0-789.0-0.0","0","0","83263","","null","","","null","87","","","","","","","","","","","","","","","",""
"","ITI","","html-keyboard-response","579","688059","0.0-1.0-792.0","0","0","83263","","null","","","null","87","","","","","","","","","","","","","","","NaN",""
"","S1","","html-keyboard-response","580","688313","0.0-1.0-794.0","0","0","83263","","null","","","null","88","","","","","","","","","","","","","","","",""
