"success","ttype","start_time","trial_type","trial_index","time_elapsed","internal_node_id","warning","missed_checkup","PID","view_history","rt","responses","repeat_instructions","key_press","index","keypress_isi","keypress_S2","block","trial_num","phase","group_type","pair_type","S1_stim","S2_stim","S1_img","S2_img","S1_chosen","S1_higher","accuracy","keypress_iti","total_bonus_tally"
"true","full_screen","d03072023hr2204","fullscreen","0","28779","0.0-0.0","0","0","77609","","","","","","","","","","","","","","","","","","","","","",""
"","instructions","","instructions","1","52477","0.0-1.0-0.0-0.0","0","0","77609","[{""page_index"":0,""viewing_time"":5500},{""page_index"":1,""viewing_time"":13065},{""page_index"":2,""viewing_time"":3582},{""page_index"":3,""viewing_time"":1547}]","23694","","","","","","","","","","","","","","","","","","","",""
"","comprehension_check","","survey-multi-choice","2","67889","0.0-1.0-0.0-1.0","0","0","77609","","15406","{""Q0"":""True"",""Q1"":""D"",""Q2"":""Only when the screen 'MAKE A CHOICE' is shown"",""Q3"":""Green mark"",""Q4"":""either D or K""}","1","","","","","","","","","","","","","","","","","",""
"","missed_instruction_checkup","","html-keyboard-response","3","69303","0.0-1.0-0.0-2.0-0.0","0","1","77609","","1407","","","32","","","","","","","","","","","","","","","","",""
"","instructions","","instructions","4","92829","0.0-1.0-0.1-0.1","0","0","77609","[{""page_index"":0,""viewing_time"":4089},{""page_index"":1,""viewing_time"":10113},{""page_index"":2,""viewing_time"":8239},{""page_index"":3,""viewing_time"":1082}]","23523","","","","","","","","","","","","","","","","","","","",""
"","comprehension_check","","survey-multi-choice","5","106037","0.0-1.0-0.1-1.1","0","0","77609","","13202","{""Q0"":""True"",""Q1"":""D"",""Q2"":""Once the second image appears and while the screen 'MAKE A CHOICE' is shown"",""Q3"":""Green mark"",""Q4"":""either D or K""}","1","","","","","","","","","","","","","","","","","",""
"","missed_instruction_checkup","","html-keyboard-response","6","107068","0.0-1.0-0.1-2.1-0.1","0","1","77609","","1027","","","32","","","","","","","","","","","","","","","","",""
"","instructions","","instructions","7","130753","0.0-1.0-0.2-0.2","0","0","77609","[{""page_index"":0,""viewing_time"":6725},{""page_index"":1,""viewing_time"":15854},{""page_index"":2,""viewing_time"":524},{""page_index"":3,""viewing_time"":580}]","23683","","","","","","","","","","","","","","","","","","","",""
"","comprehension_check","","survey-multi-choice","8","137958","0.0-1.0-0.2-1.2","0","0","77609","","7200","{""Q0"":""True"",""Q1"":""K"",""Q2"":""Once the second image appears and while the screen 'MAKE A CHOICE' is shown"",""Q3"":""Green mark"",""Q4"":""either D or K""}","0","","","","","","","","","","","","","","","","","",""
"","start_exp","","html-keyboard-response","9","139266","0.0-1.0-1.0","0","0","77609","","1303","","","32","","","","","","","","","","","","","","","","",""
"","S1","","html-keyboard-response","10","139523","0.0-1.0-2.0","0","0","77609","","null","","","null","0","","","","","","","","","","","","","","","",""
"","ISI","","html-keyboard-response","11","140528","0.0-1.0-3.0","0","0","77609","","null","","","null","0","NaN","","","","","","","","","","","","","","",""
"","S2","","html-keyboard-response","12","140785","0.0-1.0-4.0","0","0","77609","","null","","","null","0","","NaN","","","","","","","","","","","","","",""
"","response","","html-keyboard-response","13","141359","0.0-1.0-5.0-0.0","0","0","77609","","569","","","75","0","","","1","0","training","adjacent","BA","2","1","M.jpg","O.jpg","1","0","0","",""
"","feedback","","html-keyboard-response","14","142365","0.0-1.0-6.0-0.0","0","0","77609","","null","","","null","0","","","","","","","","","","","","","","","",""
"","time_out","","html-keyboard-response","15","144370","0.0-1.0-8.0-0.0","0","0","77609","","null","","","null","0","","","","","","","","","","","","","","","",""
"","ITI","","html-keyboard-response","16","145374","0.0-1.0-9.0","0","0","77609","","null","","","null","0","","","","","","","","","","","","","","","NaN",""
"","S1","","html-keyboard-response","17","145631","0.0-1.0-11.0","0","0","77609","","null","","","null","1","","","","","","","","","","","","","","","",""
"","ISI","","html-keyboard-response","18","146636","0.0-1.0-12.0","0","0","77609","","null","","","null","1","NaN","","","","","","","","","","","","","","",""
"","S2","","html-keyboard-response","19","146891","0.0-1.0-13.0","0","0","77609","","null","","","null","1","","NaN","","","","","","","","","","","","","",""
"","response","","html-keyboard-response","20","147842","0.0-1.0-14.0-0.0","0","0","77609","","947","","","75","1","","","1","1","training","adjacent","DE","4","5","R.jpg","L.jpg","1","1","1","",""
"","feedback","","html-keyboard-response","21","148848","0.0-1.0-15.0-0.0","0","0","77609","","null","","","null","1","","","","","","","","","","","","","","","",""
"","ITI","","html-keyboard-response","22","149853","0.0-1.0-18.0","0","0","77609","","null","","","null","1","","","","","","","","","","","","","","","NaN",""
"","S1","","html-keyboard-response","23","150108","0.0-1.0-20.0","0","0","77609","","null","","","null","2","","","","","","","","","","","","","","","",""
"","ISI","","html-keyboard-response","24","151113","0.0-1.0-21.0","0","0","77609","","null","","","null","2","NaN","","","","","","","","","","","","","","",""
"","S2","","html-keyboard-response","25","151366","0.0-1.0-22.0","0","0","77609","","null","","","null","2","","NaN","","","","","","","","","","","","","",""
"","response","","html-keyboard-response","26","152033","0.0-1.0-23.0-0.0","0","0","77609","","662","","","75","2","","","1","2","training","adjacent","DC","4","3","R.jpg","P.jpg","1","0","0","",""
"","feedback","","html-keyboard-response","27","153038","0.0-1.0-24.0-0.0","0","0","77609","","null","","","null","2","","","","","","","","","","","","","","","",""
"","time_out","","html-keyboard-response","28","155044","0.0-1.0-26.0-0.0","0","0","77609","","null","","","null","2","","","","","","","","","","","","","","","",""
"","ITI","","html-keyboard-response","29","156047","0.0-1.0-27.0","0","0","77609","","null","","","null","2","","","","","","","","","","","","","","","NaN",""
"","S1","","html-keyboard-response","30","156302","0.0-1.0-29.0","0","0","77609","","null","","","null","3","","","","","","","","","","","","","","","",""
"","ISI","","html-keyboard-response","31","157306","0.0-1.0-30.0","0","0","77609","","null","","","null","3","NaN","","","","","","","","","","","","","","",""
"","S2","","html-keyboard-response","32","157562","0.0-1.0-31.0","0","0","77609","","null","","","null","3","","NaN","","","","","","","","","","","","","",""
"","response","","html-keyboard-response","33","158319","0.0-1.0-32.0-0.0","0","0","77609","","753","","","68","3","","","1","3","training","adjacent","BA","2","1","M.jpg","O.jpg","0","0","1","",""
"","feedback","","html-keyboard-response","34","159325","0.0-1.0-33.0-0.0","0","0","77609","","null","","","null","3","","","","","","","","","","","","","","","",""
"","ITI","","html-keyboard-response","35","160331","0.0-1.0-36.0","0","0","77609","","null","","","null","3","","","","","","","","","","","","","","","NaN",""
"","S1","","html-keyboard-response","36","160586","0.0-1.0-38.0","0","0","77609","","null","","","null","4","","","","","","","","","","","","","","","",""
"","ISI","","html-keyboard-response","37","161591","0.0-1.0-39.0","0","0","77609","","null","","","null","4","NaN","","","","","","","","","","","","","","",""
"","S2","","html-keyboard-response","38","161847","0.0-1.0-40.0","0","0","77609","","null","","","null","4","","NaN","","","","","","","","","","","","","",""
"","response","","html-keyboard-response","39","162425","0.0-1.0-41.0-0.0","0","0","77609","","575","","","68","4","","","1","4","training","adjacent","DC","4","3","R.jpg","P.jpg","0","0","1","",""
"","feedback","","html-keyboard-response","40","163430","0.0-1.0-42.0-0.0","0","0","77609","","null","","","null","4","","","","","","","","","","","","","","","",""
"","ITI","","html-keyboard-response","41","164435","0.0-1.0-45.0","0","0","77609","","null","","","null","4","","","","","","","","","","","","","","","NaN",""
"","S1","","html-keyboard-response","42","164691","0.0-1.0-47.0","0","0","77609","","null","","","null","5","","","","","","","","","","","","","","","",""
"","ISI","","html-keyboard-response","43","165695","0.0-1.0-48.0","0","0","77609","","null","","","null","5","NaN","","","","","","","","","","","","","","",""
"","S2","","html-keyboard-response","44","165948","0.0-1.0-49.0","0","0","77609","","null","","","null","5","","NaN","","","","","","","","","","","","","",""
"","response","","html-keyboard-response","45","166419","0.0-1.0-50.0-0.0","0","0","77609","","468","","","75","5","","","1","5","training","adjacent","CB","3","2","P.jpg","M.jpg","1","0","0","",""
"","feedback","","html-keyboard-response","46","167423","0.0-1.0-51.0-0.0","0","0","77609","","null","","","null","5","","","","","","","","","","","","","","","",""
"","time_out","","html-keyboard-response","47","169428","0.0-1.0-53.0-0.0","0","0","77609","","null","","","null","5","","","","","","","","","","","","","","","",""
"","ITI","","html-keyboard-response","48","170433","0.0-1.0-54.0","0","0","77609","","null","","","null","5","","","","","","","","","","","","","","","NaN",""
"","S1","","html-keyboard-response","49","170688","0.0-1.0-56.0","0","0","77609","","null","","","null","6","","","","","","","","","","","","","","","",""
"","ISI","","html-keyboard-response","50","171692","0.0-1.0-57.0","0","0","77609","","null","","","null","6","NaN","","","","","","","","","","","","","","",""
"","S2","","html-keyboard-response","51","171948","0.0-1.0-58.0","0","0","77609","","null","","","null","6","","NaN","","","","","","","","","","","","","",""
"","response","","html-keyboard-response","52","172559","0.0-1.0-59.0-0.0","0","0","77609","","606","","","75","6","","","1","6","training","adjacent","CD","3","4","P.jpg","R.jpg","1","1","1","",""
"","feedback","","html-keyboard-response","53","173564","0.0-1.0-60.0-0.0","0","0","77609","","null","","","null","6","","","","","","","","","","","","","","","",""
"","ITI","","html-keyboard-response","54","174567","0.0-1.0-63.0","0","0","77609","","null","","","null","6","","","","","","","","","","","","","","","NaN",""
"","S1","","html-keyboard-response","55","174822","0.0-1.0-65.0","0","0","77609","","null","","","null","7","","","","","","","","","","","","","","","",""
"","ISI","","html-keyboard-response","56","175828","0.0-1.0-66.0","0","0","77609","","null","","","null","7","NaN","","","","","","","","","","","","","","",""
"","S2","","html-keyboard-response","57","176083","0.0-1.0-67.0","0","0","77609","","null","","","null","7","","NaN","","","","","","","","","","","","","",""
"","response","","html-keyboard-response","58","176798","0.0-1.0-68.0-0.0","0","0","77609","","711","","","68","7","","","1","7","training","adjacent","DC","4","3","R.jpg","P.jpg","0","0","1","",""
"","feedback","","html-keyboard-response","59","177803","0.0-1.0-69.0-0.0","0","0","77609","","null","","","null","7","","","","","","","","","","","","","","","",""
"","ITI","","html-keyboard-response","60","178809","0.0-1.0-72.0","0","0","77609","","null","","","null","7","","","","","","","","","","","","","","","NaN",""
"","S1","","html-keyboard-response","61","179063","0.0-1.0-74.0","0","0","77609","","null","","","null","8","","","","","","","","","","","","","","","",""
"","ISI","","html-keyboard-response","62","180067","0.0-1.0-75.0","0","0","77609","","null","","","null","8","NaN","","","","","","","","","","","","","","",""
"","S2","","html-keyboard-response","63","180324","0.0-1.0-76.0","0","0","77609","","null","","","null","8","","NaN","","","","","","","","","","","","","",""
"","response","","html-keyboard-response","64","181705","0.0-1.0-77.0-0.0","0","0","77609","","1377","","","75","8","","","1","8","training","adjacent","GF","7","6","Q.jpg","N.jpg","1","0","0","",""
"","feedback","","html-keyboard-response","65","182710","0.0-1.0-78.0-0.0","0","0","77609","","null","","","null","8","","","","","","","","","","","","","","","",""
"","time_out","","html-keyboard-response","66","184714","0.0-1.0-80.0-0.0","0","0","77609","","null","","","null","8","","","","","","","","","","","","","","","",""
"","ITI","","html-keyboard-response","67","185719","0.0-1.0-81.0","0","0","77609","","null","","","null","8","","","","","","","","","","","","","","","NaN",""
"","S1","","html-keyboard-response","68","185973","0.0-1.0-83.0","0","0","77609","","null","","","null","9","","","","","","","","","","","","","","","",""
"","ISI","","html-keyboard-response","69","186978","0.0-1.0-84.0","0","0","77609","","null","","","null","9","NaN","","","","","","","","","","","","","","",""
"","S2","","html-keyboard-response","70","187234","0.0-1.0-85.0","0","0","77609","","null","","","null","9","","NaN","","","","","","","","","","","","","",""
"","response","","html-keyboard-response","71","188417","0.0-1.0-86.0-0.0","0","0","77609","","1178","","","68","9","","","1","9","training","adjacent","FE","6","5","N.jpg","L.jpg","0","0","1","",""
"","feedback","","html-keyboard-response","72","189422","0.0-1.0-87.0-0.0","0","0","77609","","null","","","null","9","","","","","","","","","","","","","","","",""
"","ITI","","html-keyboard-response","73","190427","0.0-1.0-90.0","0","0","77609","","null","","","null","9","","","","","","","","","","","","","","","NaN",""
"","S1","","html-keyboard-response","74","190681","0.0-1.0-92.0","0","0","77609","","null","","","null","10","","","","","","","","","","","","","","","",""
"","ISI","","html-keyboard-response","75","191686","0.0-1.0-93.0","0","0","77609","","null","","","null","10","NaN","","","","","","","","","","","","","","",""
"","S2","","html-keyboard-response","76","191942","0.0-1.0-94.0","0","0","77609","","null","","","null","10","","NaN","","","","","","","","","","","","","",""
"","response","","html-keyboard-response","77","193200","0.0-1.0-95.0-0.0","0","0","77609","","1254","","","75","10","","","1","10","training","adjacent","FG","6","7","N.jpg","Q.jpg","1","1","1","",""
"","feedback","","html-keyboard-response","78","194206","0.0-1.0-96.0-0.0","0","0","77609","","null","","","null","10","","","","","","","","","","","","","","","",""
"","ITI","","html-keyboard-response","79","195211","0.0-1.0-99.0","0","0","77609","","null","","","null","10","","","","","","","","","","","","","","","NaN",""
"","S1","","html-keyboard-response","80","195466","0.0-1.0-101.0","0","0","77609","","null","","","null","11","","","","","","","","","","","","","","","",""
"","ISI","","html-keyboard-response","81","196471","0.0-1.0-102.0","0","0","77609","","null","","","null","11","NaN","","","","","","","","","","","","","","",""
"","S2","","html-keyboard-response","82","196726","0.0-1.0-103.0","0","0","77609","","null","","","null","11","","NaN","","","","","","","","","","","","","",""
"","response","","html-keyboard-response","83","197692","0.0-1.0-104.0-0.0","0","0","77609","","963","","","75","11","","","1","11","training","adjacent","ED","5","4","L.jpg","R.jpg","1","0","0","",""
"","feedback","","html-keyboard-response","84","198697","0.0-1.0-105.0-0.0","0","0","77609","","null","","","null","11","","","","","","","","","","","","","","","",""
"","time_out","","html-keyboard-response","85","200699","0.0-1.0-107.0-0.0","0","0","77609","","null","","","null","11","","","","","","","","","","","","","","","",""
"","ITI","","html-keyboard-response","86","201703","0.0-1.0-108.0","0","0","77609","","null","","","null","11","","","","","","","","","","","","","","","NaN",""
"","S1","","html-keyboard-response","87","201959","0.0-1.0-110.0","0","0","77609","","null","","","null","12","","","","","","","","","","","","","","","",""
"","ISI","","html-keyboard-response","88","202964","0.0-1.0-111.0","0","0","77609","","null","","","null","12","NaN","","","","","","","","","","","","","","",""
"","S2","","html-keyboard-response","89","203220","0.0-1.0-112.0","0","0","77609","","null","","","null","12","","NaN","","","","","","","","","","","","","",""
"","response","","html-keyboard-response","90","203850","0.0-1.0-113.0-0.0","0","0","77609","","626","","","68","12","","","1","12","training","adjacent","DC","4","3","R.jpg","P.jpg","0","0","1","",""
"","feedback","","html-keyboard-response","91","204857","0.0-1.0-114.0-0.0","0","0","77609","","null","","","null","12","","","","","","","","","","","","","","","",""
"","ITI","","html-keyboard-response","92","205862","0.0-1.0-117.0","0","0","77609","","null","","","null","12","","","","","","","","","","","","","","","NaN",""
"","S1","","html-keyboard-response","93","206118","0.0-1.0-119.0","0","0","77609","","null","","","null","13","","","","","","","","","","","","","","","",""
"","ISI","","html-keyboard-response","94","207121","0.0-1.0-120.0","0","0","77609","","null","","","null","13","NaN","","","","","","","","","","","","","","",""
"","S2","","html-keyboard-response","95","207375","0.0-1.0-121.0","0","0","77609","","null","","","null","13","","NaN","","","","","","","","","","","","","",""
"","response","","html-keyboard-response","96","208709","0.0-1.0-122.0-0.0","0","0","77609","","1331","","","75","13","","","1","13","training","adjacent","AB","1","2","O.jpg","M.jpg","1","1","1","",""
"","feedback","","html-keyboard-response","97","209715","0.0-1.0-123.0-0.0","0","0","77609","","null","","","null","13","","","","","","","","","","","","","","","",""
"","ITI","","html-keyboard-response","98","210721","0.0-1.0-126.0","0","0","77609","","null","","","null","13","","","","","","","","","","","","","","","NaN",""
"","S1","","html-keyboard-response","99","210975","0.0-1.0-128.0","0","0","77609","","null","","","null","14","","","","","","","","","","","","","","","",""
"","ISI","","html-keyboard-response","100","211979","0.0-1.0-129.0","0","0","77609","","null","","","null","14","NaN","","","","","","","","","","","","","","",""
"","S2","","html-keyboard-response","101","212235","0.0-1.0-130.0","0","0","77609","","null","","","null","14","","NaN","","","","","","","","","","","","","",""
"","response","","html-keyboard-response","102","212834","0.0-1.0-131.0-0.0","0","0","77609","","595","","","68","14","","","1","14","training","adjacent","CB","3","2","P.jpg","M.jpg","0","0","1","",""
"","feedback","","html-keyboard-response","103","213840","0.0-1.0-132.0-0.0","0","0","77609","","null","","","null","14","","","","","","","","","","","","","","","",""
"","ITI","","html-keyboard-response","104","214844","0.0-1.0-135.0","0","0","77609","","null","","","null","14","","","","","","","","","","","","","","","NaN",""
"","S1","","html-keyboard-response","105","215098","0.0-1.0-137.0","0","0","77609","","null","","","null","15","","","","","","","","","","","","","","","",""
"","ISI","","html-keyboard-response","106","216102","0.0-1.0-138.0","0","0","77609","","null","","","null","15","NaN","","","","","","","","","","","","","","",""
"","S2","","html-keyboard-response","107","216355","0.0-1.0-139.0","0","0","77609","","null","","","null","15","","NaN","","","","","","","","","","","","","",""
"","response","","html-keyboard-response","108","216958","0.0-1.0-140.0-0.0","0","0","77609","","600","","","75","15","","","1","15","training","adjacent","BC","2","3","M.jpg","P.jpg","1","1","1","",""
"","feedback","","html-keyboard-response","109","217962","0.0-1.0-141.0-0.0","0","0","77609","","null","","","null","15","","","","","","","","","","","","","","","",""
"","ITI","","html-keyboard-response","110","218967","0.0-1.0-144.0","0","0","77609","","null","","","null","15","","","","","","","","","","","","","","","NaN",""
"","S1","","html-keyboard-response","111","219222","0.0-1.0-146.0","0","0","77609","","null","","","null","16","","","","","","","","","","","","","","","",""
"","ISI","","html-keyboard-response","112","220227","0.0-1.0-147.0","0","0","77609","","null","","","null","16","NaN","","","","","","","","","","","","","","",""
"","S2","","html-keyboard-response","113","220483","0.0-1.0-148.0","0","0","77609","","null","","","null","16","","NaN","","","","","","","","","","","","","",""
"","response","","html-keyboard-response","114","221057","0.0-1.0-149.0-0.0","0","0","77609","","570","","","68","16","","","1","16","training","adjacent","FG","6","7","N.jpg","Q.jpg","0","1","0","",""
"","feedback","","html-keyboard-response","115","222061","0.0-1.0-150.0-0.0","0","0","77609","","null","","","null","16","","","","","","","","","","","","","","","",""
"","time_out","","html-keyboard-response","116","224066","0.0-1.0-152.0-0.0","0","0","77609","","null","","","null","16","","","","","","","","","","","","","","","",""
"","ITI","","html-keyboard-response","117","225072","0.0-1.0-153.0","0","0","77609","","null","","","null","16","","","","","","","","","","","","","","","NaN",""
"","S1","","html-keyboard-response","118","225327","0.0-1.0-155.0","0","0","77609","","null","","","null","17","","","","","","","","","","","","","","","",""
"","ISI","","html-keyboard-response","119","226331","0.0-1.0-156.0","0","0","77609","","null","","","null","17","NaN","","","","","","","","","","","","","","",""
"","S2","","html-keyboard-response","120","226587","0.0-1.0-157.0","0","0","77609","","null","","","null","17","","NaN","","","","","","","","","","","","","",""
"","response","","html-keyboard-response","121","227044","0.0-1.0-158.0-0.0","0","0","77609","","454","","","75","17","","","1","17","training","adjacent","GF","7","6","Q.jpg","N.jpg","1","0","0","",""
"","feedback","","html-keyboard-response","122","228049","0.0-1.0-159.0-0.0","0","0","77609","","null","","","null","17","","","","","","","","","","","","","","","",""
"","time_out","","html-keyboard-response","123","230054","0.0-1.0-161.0-0.0","0","0","77609","","null","","","null","17","","","","","","","","","","","","","","","",""
"","ITI","","html-keyboard-response","124","231058","0.0-1.0-162.0","0","0","77609","","null","","","null","17","","","","","","","","","","","","","","","NaN",""
"","S1","","html-keyboard-response","125","231312","0.0-1.0-164.0","0","0","77609","","null","","","null","18","","","","","","","","","","","","","","","",""
"","ISI","","html-keyboard-response","126","232316","0.0-1.0-165.0","0","0","77609","","null","","","null","18","NaN","","","","","","","","","","","","","","",""
"","S2","","html-keyboard-response","127","232572","0.0-1.0-166.0","0","0","77609","","null","","","null","18","","NaN","","","","","","","","","","","","","",""
"","response","","html-keyboard-response","128","233193","0.0-1.0-167.0-0.0","0","0","77609","","617","","","68","18","","","1","18","training","adjacent","BA","2","1","M.jpg","O.jpg","0","0","1","",""
"","feedback","","html-keyboard-response","129","234198","0.0-1.0-168.0-0.0","0","0","77609","","null","","","null","18","","","","","","","","","","","","","","","",""
"","ITI","","html-keyboard-response","130","235203","0.0-1.0-171.0","0","0","77609","","null","","","null","18","","","","","","","","","","","","","","","NaN",""
"","S1","","html-keyboard-response","131","235459","0.0-1.0-173.0","0","0","77609","","null","","","null","19","","","","","","","","","","","","","","","",""
"","ISI","","html-keyboard-response","132","236463","0.0-1.0-174.0","0","0","77609","","null","","","null","19","NaN","","","","","","","","","","","","","","",""
"","S2","","html-keyboard-response","133","236719","0.0-1.0-175.0","0","0","77609","","null","","","null","19","","NaN","","","","","","","","","","","","","",""
"","response","","html-keyboard-response","134","237774","0.0-1.0-176.0-0.0","0","0","77609","","1051","","","68","19","","","1","19","training","adjacent","FE","6","5","N.jpg","L.jpg","0","0","1","",""
"","feedback","","html-keyboard-response","135","238779","0.0-1.0-177.0-0.0","0","0","77609","","null","","","null","19","","","","","","","","","","","","","","","",""
"","ITI","","html-keyboard-response","136","239784","0.0-1.0-180.0","0","0","77609","","null","","","null","19","","","","","","","","","","","","","","","NaN",""
"","S1","","html-keyboard-response","137","240039","0.0-1.0-182.0","0","0","77609","","null","","","null","20","","","","","","","","","","","","","","","",""
"","ISI","","html-keyboard-response","138","241043","0.0-1.0-183.0","0","0","77609","","null","","","null","20","NaN","","","","","","","","","","","","","","",""
"","S2","","html-keyboard-response","139","241298","0.0-1.0-184.0","0","0","77609","","null","","","null","20","","NaN","","","","","","","","","","","","","",""
"","response","","html-keyboard-response","140","241512","0.0-1.0-185.0-0.0","0","0","77609","","209","","","75","20","","","1","20","training","adjacent","CD","3","4","P.jpg","R.jpg","1","1","1","",""
"","feedback","","html-keyboard-response","141","242517","0.0-1.0-186.0-0.0","0","0","77609","","null","","","null","20","","","","","","","","","","","","","","","",""
"","ITI","","html-keyboard-response","142","243522","0.0-1.0-189.0","0","0","77609","","null","","","null","20","","","","","","","","","","","","","","","NaN",""
"","S1","","html-keyboard-response","143","243778","0.0-1.0-191.0","0","0","77609","","null","","","null","21","","","","","","","","","","","","","","","",""
"","ISI","","html-keyboard-response","144","244784","0.0-1.0-192.0","0","0","77609","","null","","","null","21","NaN","","","","","","","","","","","","","","",""
"","S2","","html-keyboard-response","145","245040","0.0-1.0-193.0","0","0","77609","","null","","","null","21","","NaN","","","","","","","","","","","","","",""
"","response","","html-keyboard-response","146","245677","0.0-1.0-194.0-0.0","0","0","77609","","632","","","68","21","","","1","21","training","adjacent","FG","6","7","N.jpg","Q.jpg","0","1","0","",""
"","feedback","","html-keyboard-response","147","246681","0.0-1.0-195.0-0.0","0","0","77609","","null","","","null","21","","","","","","","","","","","","","","","",""
"","time_out","","html-keyboard-response","148","248686","0.0-1.0-197.0-0.0","0","0","77609","","null","","","null","21","","","","","","","","","","","","","","","",""
"","ITI","","html-keyboard-response","149","249691","0.0-1.0-198.0","0","0","77609","","null","","","null","21","","","","","","","","","","","","","","","NaN",""
"","S1","","html-keyboard-response","150","249946","0.0-1.0-200.0","0","0","77609","","null","","","null","22","","","","","","","","","","","","","","","",""
"","ISI","","html-keyboard-response","151","250950","0.0-1.0-201.0","0","0","77609","","null","","","null","22","NaN","","","","","","","","","","","","","","",""
"","S2","","html-keyboard-response","152","251207","0.0-1.0-202.0","0","0","77609","","null","","","null","22","","NaN","","","","","","","","","","","","","",""
"","response","","html-keyboard-response","153","251627","0.0-1.0-203.0-0.0","0","0","77609","","416","","","75","22","","","1","22","training","adjacent","CB","3","2","P.jpg","M.jpg","1","0","0","",""
"","feedback","","html-keyboard-response","154","252633","0.0-1.0-204.0-0.0","0","0","77609","","null","","","null","22","","","","","","","","","","","","","","","",""
"","time_out","","html-keyboard-response","155","254639","0.0-1.0-206.0-0.0","0","0","77609","","null","","","null","22","","","","","","","","","","","","","","","",""
"","ITI","","html-keyboard-response","156","255644","0.0-1.0-207.0","0","0","77609","","null","","","null","22","","","","","","","","","","","","","","","NaN",""
"","S1","","html-keyboard-response","157","255899","0.0-1.0-209.0","0","0","77609","","null","","","null","23","","","","","","","","","","","","","","","",""
"","ISI","","html-keyboard-response","158","256905","0.0-1.0-210.0","0","0","77609","","null","","","null","23","NaN","","","","","","","","","","","","","","",""
"","S2","","html-keyboard-response","159","257160","0.0-1.0-211.0","0","0","77609","","null","","","null","23","","NaN","","","","","","","","","","","","","",""
"","response","","html-keyboard-response","160","257492","0.0-1.0-212.0-0.0","0","0","77609","","328","","","75","23","","","1","23","training","adjacent","ED","5","4","L.jpg","R.jpg","1","0","0","",""
"","feedback","","html-keyboard-response","161","258497","0.0-1.0-213.0-0.0","0","0","77609","","null","","","null","23","","","","","","","","","","","","","","","",""
"","time_out","","html-keyboard-response","162","260502","0.0-1.0-215.0-0.0","0","0","77609","","null","","","null","23","","","","","","","","","","","","","","","",""
"","ITI","","html-keyboard-response","163","261506","0.0-1.0-216.0","0","0","77609","","null","","","null","23","","","","","","","","","","","","","","","NaN",""
"","S1","","html-keyboard-response","164","261761","0.0-1.0-218.0","0","0","77609","","null","","","null","24","","","","","","","","","","","","","","","",""
"","ISI","","html-keyboard-response","165","262766","0.0-1.0-219.0","0","0","77609","","null","","","null","24","NaN","","","","","","","","","","","","","","",""
"","S2","","html-keyboard-response","166","263022","0.0-1.0-220.0","0","0","77609","","null","","","null","24","","NaN","","","","","","","","","","","","","",""
"","response","","html-keyboard-response","167","263220","0.0-1.0-221.0-0.0","0","0","77609","","194","","","75","24","","","1","24","training","adjacent","EF","5","6","L.jpg","N.jpg","1","1","1","",""
"","feedback","","html-keyboard-response","168","264225","0.0-1.0-222.0-0.0","0","0","77609","","null","","","null","24","","","","","","","","","","","","","","","",""
"","ITI","","html-keyboard-response","169","265229","0.0-1.0-225.0","0","0","77609","","null","","","null","24","","","","","","","","","","","","","","","NaN",""
"","S1","","html-keyboard-response","170","265484","0.0-1.0-227.0","0","0","77609","","null","","","null","25","","","","","","","","","","","","","","","",""
"","ISI","","html-keyboard-response","171","266487","0.0-1.0-228.0","0","0","77609","","null","","","null","25","NaN","","","","","","","","","","","","","","",""
"","S2","","html-keyboard-response","172","266743","0.0-1.0-229.0","0","0","77609","","null","","","null","25","","NaN","","","","","","","","","","","","","",""
"","response","","html-keyboard-response","173","266776","0.0-1.0-230.0-0.0","0","0","77609","","28","","","75","25","","","1","25","training","adjacent","AB","1","2","O.jpg","M.jpg","1","1","1","",""
"","feedback","","html-keyboard-response","174","267782","0.0-1.0-231.0-0.0","0","0","77609","","null","","","null","25","","","","","","","","","","","","","","","",""
"","ITI","","html-keyboard-response","175","268787","0.0-1.0-234.0","0","0","77609","","null","","","null","25","","","","","","","","","","","","","","","NaN",""
"","S1","","html-keyboard-response","176","269042","0.0-1.0-236.0","0","0","77609","","null","","","null","26","","","","","","","","","","","","","","","",""
"","ISI","","html-keyboard-response","177","270048","0.0-1.0-237.0","0","0","77609","","null","","","null","26","NaN","","","","","","","","","","","","","","",""
"","S2","","html-keyboard-response","178","270303","0.0-1.0-238.0","0","0","77609","","null","","","null","26","","NaN","","","","","","","","","","","","","",""
"","response","","html-keyboard-response","179","270318","0.0-1.0-239.0-0.0","0","0","77609","","13","","","75","26","","","1","26","training","adjacent","AB","1","2","O.jpg","M.jpg","1","1","1","",""
"","feedback","","html-keyboard-response","180","271322","0.0-1.0-240.0-0.0","0","0","77609","","null","","","null","26","","","","","","","","","","","","","","","",""
"","ITI","","html-keyboard-response","181","272328","0.0-1.0-243.0","0","0","77609","","null","","","null","26","","","","","","","","","","","","","","","NaN",""
"","S1","","html-keyboard-response","182","272583","0.0-1.0-245.0","0","0","77609","","null","","","null","27","","","","","","","","","","","","","","","",""
"","ISI","","html-keyboard-response","183","273588","0.0-1.0-246.0","0","0","77609","","null","","","null","27","NaN","","","","","","","","","","","","","","",""
"","S2","","html-keyboard-response","184","273843","0.0-1.0-247.0","0","0","77609","","null","","","null","27","","NaN","","","","","","","","","","","","","",""
"","response","","html-keyboard-response","185","273887","0.0-1.0-248.0-0.0","0","0","77609","","40","","","68","27","","","1","27","training","adjacent","ED","5","4","L.jpg","R.jpg","0","0","1","",""
"","feedback","","html-keyboard-response","186","274893","0.0-1.0-249.0-0.0","0","0","77609","","null","","","null","27","","","","","","","","","","","","","","","",""
"","ITI","","html-keyboard-response","187","275898","0.0-1.0-252.0","0","0","77609","","null","","","null","27","","","","","","","","","","","","","","","NaN",""
"","S1","","html-keyboard-response","188","276153","0.0-1.0-254.0","0","0","77609","","null","","","null","28","","","","","","","","","","","","","","","",""
"","ISI","","html-keyboard-response","189","277159","0.0-1.0-255.0","0","0","77609","","null","","","null","28","NaN","","","","","","","","","","","","","","",""
"","S2","","html-keyboard-response","190","277415","0.0-1.0-256.0","0","0","77609","","null","","","null","28","","NaN","","","","","","","","","","","","","",""
"","response","","html-keyboard-response","191","277500","0.0-1.0-257.0-0.0","0","0","77609","","81","","","75","28","","","1","28","training","adjacent","AB","1","2","O.jpg","M.jpg","1","1","1","",""
"","feedback","","html-keyboard-response","192","278505","0.0-1.0-258.0-0.0","0","0","77609","","null","","","null","28","","","","","","","","","","","","","","","",""
"","ITI","","html-keyboard-response","193","279509","0.0-1.0-261.0","0","0","77609","","null","","","null","28","","","","","","","","","","","","","","","NaN",""
"","S1","","html-keyboard-response","194","279766","0.0-1.0-263.0","0","0","77609","","null","","","null","29","","","","","","","","","","","","","","","",""
"","ISI","","html-keyboard-response","195","280770","0.0-1.0-264.0","0","0","77609","","305","","","68","29","d","","","","","","","","","","","","","","",""
"","S2","","html-keyboard-response","196","281028","0.0-1.0-265.0","0","0","77609","","null","","","null","29","","NaN","","","","","","","","","","","","","",""
"","response","","html-keyboard-response","197","281120","0.0-1.0-266.0-0.0","0","0","77609","","88","","","68","29","","","1","29","training","adjacent","CB","3","2","P.jpg","M.jpg","0","0","1","",""
"","feedback","","html-keyboard-response","198","282123","0.0-1.0-267.0-0.0","0","0","77609","","null","","","null","29","","","","","","","","","","","","","","","",""
"","ITI","","html-keyboard-response","199","283127","0.0-1.0-270.0","0","0","77609","","null","","","null","29","","","","","","","","","","","","","","","NaN",""
"","S1","","html-keyboard-response","200","283382","0.0-1.0-272.0","0","0","77609","","null","","","null","30","","","","","","","","","","","","","","","",""
"","ISI","","html-keyboard-response","201","284386","0.0-1.0-273.0","0","0","77609","","null","","","null","30","NaN","","","","","","","","","","","","","","",""
"","S2","","html-keyboard-response","202","284642","0.0-1.0-274.0","0","0","77609","","null","","","null","30","","NaN","","","","","","","","","","","","","",""
"","response","","html-keyboard-response","203","284711","0.0-1.0-275.0-0.0","0","0","77609","","64","","","68","30","","","1","30","training","adjacent","FE","6","5","N.jpg","L.jpg","0","0","1","",""
"","feedback","","html-keyboard-response","204","285716","0.0-1.0-276.0-0.0","0","0","77609","","null","","","null","30","","","","","","","","","","","","","","","",""
"","ITI","","html-keyboard-response","205","286721","0.0-1.0-279.0","0","0","77609","","null","","","null","30","","","","","","","","","","","","","","","NaN",""
"","S1","","html-keyboard-response","206","286976","0.0-1.0-281.0","0","0","77609","","null","","","null","31","","","","","","","","","","","","","","","",""
"","ISI","","html-keyboard-response","207","287982","0.0-1.0-282.0","0","0","77609","","null","","","null","31","NaN","","","","","","","","","","","","","","",""
"","S2","","html-keyboard-response","208","288236","0.0-1.0-283.0","0","0","77609","","null","","","null","31","","NaN","","","","","","","","","","","","","",""
"","response","","html-keyboard-response","209","288292","0.0-1.0-284.0-0.0","0","0","77609","","54","","","75","31","","","1","31","training","adjacent","ED","5","4","L.jpg","R.jpg","1","0","0","",""
"","feedback","","html-keyboard-response","210","289296","0.0-1.0-285.0-0.0","0","0","77609","","null","","","null","31","","","","","","","","","","","","","","","",""
"","time_out","","html-keyboard-response","211","291301","0.0-1.0-287.0-0.0","0","0","77609","","null","","","null","31","","","","","","","","","","","","","","","",""
"","ITI","","html-keyboard-response","212","292306","0.0-1.0-288.0","0","0","77609","","null","","","null","31","","","","","","","","","","","","","","","NaN",""
"","S1","","html-keyboard-response","213","292562","0.0-1.0-290.0","0","0","77609","","null","","","null","32","","","","","","","","","","","","","","","",""
"","ISI","","html-keyboard-response","214","293566","0.0-1.0-291.0","0","0","77609","","null","","","null","32","NaN","","","","","","","","","","","","","","",""
"","S2","","html-keyboard-response","215","293823","0.0-1.0-292.0","0","0","77609","","null","","","null","32","","NaN","","","","","","","","","","","","","",""
"","response","","html-keyboard-response","216","293881","0.0-1.0-293.0-0.0","0","0","77609","","54","","","75","32","","","1","32","training","adjacent","EF","5","6","L.jpg","N.jpg","1","1","1","",""
"","feedback","","html-keyboard-response","217","294887","0.0-1.0-294.0-0.0","0","0","77609","","null","","","null","32","","","","","","","","","","","","","","","",""
"","ITI","","html-keyboard-response","218","295893","0.0-1.0-297.0","0","0","77609","","null","","","null","32","","","","","","","","","","","","","","","NaN",""
"","S1","","html-keyboard-response","219","296148","0.0-1.0-299.0","0","0","77609","","null","","","null","33","","","","","","","","","","","","","","","",""
"","ISI","","html-keyboard-response","220","297152","0.0-1.0-300.0","0","0","77609","","null","","","null","33","NaN","","","","","","","","","","","","","","",""
"","S2","","html-keyboard-response","221","297408","0.0-1.0-301.0","0","0","77609","","null","","","null","33","","NaN","","","","","","","","","","","","","",""
"","response","","html-keyboard-response","222","298361","0.0-1.0-302.0-0.0","0","0","77609","","949","","","68","33","","","1","33","training","adjacent","FE","6","5","N.jpg","L.jpg","0","0","1","",""
"","feedback","","html-keyboard-response","223","299367","0.0-1.0-303.0-0.0","0","0","77609","","null","","","null","33","","","","","","","","","","","","","","","",""
"","ITI","","html-keyboard-response","224","300372","0.0-1.0-306.0","0","0","77609","","null","","","null","33","","","","","","","","","","","","","","","NaN",""
"","S1","","html-keyboard-response","225","300628","0.0-1.0-308.0","0","0","77609","","null","","","null","34","","","","","","","","","","","","","","","",""
"","ISI","","html-keyboard-response","226","301634","0.0-1.0-309.0","0","0","77609","","null","","","null","34","NaN","","","","","","","","","","","","","","",""
"","S2","","html-keyboard-response","227","301890","0.0-1.0-310.0","0","0","77609","","null","","","null","34","","NaN","","","","","","","","","","","","","",""
"","response","","html-keyboard-response","228","302961","0.0-1.0-311.0-0.0","0","0","77609","","1066","","","75","34","","","1","34","training","adjacent","CD","3","4","P.jpg","R.jpg","1","1","1","",""
"","feedback","","html-keyboard-response","229","303967","0.0-1.0-312.0-0.0","0","0","77609","","null","","","null","34","","","","","","","","","","","","","","","",""
"","ITI","","html-keyboard-response","230","304972","0.0-1.0-315.0","0","0","77609","","null","","","null","34","","","","","","","","","","","","","","","NaN",""
"","S1","","html-keyboard-response","231","305228","0.0-1.0-317.0","0","0","77609","","null","","","null","35","","","","","","","","","","","","","","","",""
"","ISI","","html-keyboard-response","232","306234","0.0-1.0-318.0","0","0","77609","","null","","","null","35","NaN","","","","","","","","","","","","","","",""
"","S2","","html-keyboard-response","233","306488","0.0-1.0-319.0","0","0","77609","","null","","","null","35","","NaN","","","","","","","","","","","","","",""
"","response","","html-keyboard-response","234","307152","0.0-1.0-320.0-0.0","0","0","77609","","660","","","68","35","","","1","35","training","adjacent","BA","2","1","M.jpg","O.jpg","0","0","1","",""
"","feedback","","html-keyboard-response","235","308159","0.0-1.0-321.0-0.0","0","0","77609","","null","","","null","35","","","","","","","","","","","","","","","",""
"","ITI","","html-keyboard-response","236","309163","0.0-1.0-324.0","0","0","77609","","null","","","null","35","","","","","","","","","","","","","","","NaN",""
"","S1","","html-keyboard-response","237","309418","0.0-1.0-326.0","0","0","77609","","null","","","null","36","","","","","","","","","","","","","","","",""
"","ISI","","html-keyboard-response","238","310423","0.0-1.0-327.0","0","0","77609","","null","","","null","36","NaN","","","","","","","","","","","","","","",""
"","S2","","html-keyboard-response","239","310679","0.0-1.0-328.0","0","0","77609","","null","","","null","36","","NaN","","","","","","","","","","","","","",""
"","response","","html-keyboard-response","240","311160","0.0-1.0-329.0-0.0","0","0","77609","","476","","","68","36","","","1","36","training","adjacent","BC","2","3","M.jpg","P.jpg","0","1","0","",""
"","feedback","","html-keyboard-response","241","312165","0.0-1.0-330.0-0.0","0","0","77609","","null","","","null","36","","","","","","","","","","","","","","","",""
"","time_out","","html-keyboard-response","242","314169","0.0-1.0-332.0-0.0","0","0","77609","","null","","","null","36","","","","","","","","","","","","","","","",""
"","ITI","","html-keyboard-response","243","315175","0.0-1.0-333.0","0","0","77609","","412","","","75","36","","","","","","","","","","","","","","","k",""
"","S1","","html-keyboard-response","244","315432","0.0-1.0-335.0","0","0","77609","","null","","","null","37","","","","","","","","","","","","","","","",""
"","ISI","","html-keyboard-response","245","316435","0.0-1.0-336.0","0","0","77609","","114","","","75","37","k","","","","","","","","","","","","","","",""
"","S2","","html-keyboard-response","246","316691","0.0-1.0-337.0","0","0","77609","","null","","","null","37","","NaN","","","","","","","","","","","","","",""
"","response","","html-keyboard-response","247","317358","0.0-1.0-338.0-0.0","0","0","77609","","663","","","68","37","","","1","37","training","adjacent","GF","7","6","Q.jpg","N.jpg","0","0","1","",""
"","feedback","","html-keyboard-response","248","318363","0.0-1.0-339.0-0.0","0","0","77609","","null","","","null","37","","","","","","","","","","","","","","","",""
"","ITI","","html-keyboard-response","249","319368","0.0-1.0-342.0","0","0","77609","","null","","","null","37","","","","","","","","","","","","","","","NaN",""
"","S1","","html-keyboard-response","250","319624","0.0-1.0-344.0","0","0","77609","","null","","","null","38","","","","","","","","","","","","","","","",""
"","ISI","","html-keyboard-response","251","320631","0.0-1.0-345.0","0","0","77609","","null","","","null","38","NaN","","","","","","","","","","","","","","",""
"","S2","","html-keyboard-response","252","320886","0.0-1.0-346.0","0","0","77609","","null","","","null","38","","NaN","","","","","","","","","","","","","",""
"","response","","html-keyboard-response","253","321866","0.0-1.0-347.0-0.0","0","0","77609","","976","","","75","38","","","1","38","training","adjacent","BC","2","3","M.jpg","P.jpg","1","1","1","",""
"","feedback","","html-keyboard-response","254","322871","0.0-1.0-348.0-0.0","0","0","77609","","null","","","null","38","","","","","","","","","","","","","","","",""
"","ITI","","html-keyboard-response","255","323877","0.0-1.0-351.0","0","0","77609","","null","","","null","38","","","","","","","","","","","","","","","NaN",""
"","S1","","html-keyboard-response","256","324132","0.0-1.0-353.0","0","0","77609","","null","","","null","39","","","","","","","","","","","","","","","",""
"","ISI","","html-keyboard-response","257","325137","0.0-1.0-354.0","0","0","77609","","null","","","null","39","NaN","","","","","","","","","","","","","","",""
"","S2","","html-keyboard-response","258","325393","0.0-1.0-355.0","0","0","77609","","null","","","null","39","","NaN","","","","","","","","","","","","","",""
"","response","","html-keyboard-response","259","325907","0.0-1.0-356.0-0.0","0","0","77609","","510","","","75","39","","","1","39","training","adjacent","FG","6","7","N.jpg","Q.jpg","1","1","1","",""
"","feedback","","html-keyboard-response","260","326913","0.0-1.0-357.0-0.0","0","0","77609","","null","","","null","39","","","","","","","","","","","","","","","",""
"","ITI","","html-keyboard-response","261","327918","0.0-1.0-360.0","0","0","77609","","null","","","null","39","","","","","","","","","","","","","","","NaN",""
"","S1","","html-keyboard-response","262","328173","0.0-1.0-362.0","0","0","77609","","null","","","null","40","","","","","","","","","","","","","","","",""
"","ISI","","html-keyboard-response","263","329177","0.0-1.0-363.0","0","0","77609","","743","","","68","40","d","","","","","","","","","","","","","","",""
"","S2","","html-keyboard-response","264","329433","0.0-1.0-364.0","0","0","77609","","null","","","null","40","","NaN","","","","","","","","","","","","","",""
"","response","","html-keyboard-response","265","329480","0.0-1.0-365.0-0.0","0","0","77609","","42","","","68","40","","","1","40","training","adjacent","DE","4","5","R.jpg","L.jpg","0","1","0","",""
"","feedback","","html-keyboard-response","266","330485","0.0-1.0-366.0-0.0","0","0","77609","","null","","","null","40","","","","","","","","","","","","","","","",""
"","time_out","","html-keyboard-response","267","332491","0.0-1.0-368.0-0.0","0","0","77609","","null","","","null","40","","","","","","","","","","","","","","","",""
"","ITI","","html-keyboard-response","268","333495","0.0-1.0-369.0","0","0","77609","","null","","","null","40","","","","","","","","","","","","","","","NaN",""
"","S1","","html-keyboard-response","269","333750","0.0-1.0-371.0","0","0","77609","","null","","","null","41","","","","","","","","","","","","","","","",""
"","ISI","","html-keyboard-response","270","334755","0.0-1.0-372.0","0","0","77609","","852","","","68","41","d","","","","","","","","","","","","","","",""
"","S2","","html-keyboard-response","271","335010","0.0-1.0-373.0","0","0","77609","","null","","","null","41","","NaN","","","","","","","","","","","","","",""
"","response","","html-keyboard-response","272","335113","0.0-1.0-374.0-0.0","0","0","77609","","97","","","68","41","","","1","41","training","adjacent","CD","3","4","P.jpg","R.jpg","0","1","0","",""
"","feedback","","html-keyboard-response","273","336118","0.0-1.0-375.0-0.0","0","0","77609","","null","","","null","41","","","","","","","","","","","","","","","",""
"","time_out","","html-keyboard-response","274","338123","0.0-1.0-377.0-0.0","0","0","77609","","null","","","null","41","","","","","","","","","","","","","","","",""
"","ITI","","html-keyboard-response","275","339128","0.0-1.0-378.0","0","0","77609","","null","","","null","41","","","","","","","","","","","","","","","NaN",""
"","S1","","html-keyboard-response","276","339384","0.0-1.0-380.0","0","0","77609","","null","","","null","42","","","","","","","","","","","","","","","",""
"","ISI","","html-keyboard-response","277","340389","0.0-1.0-381.0","0","0","77609","","null","","","null","42","NaN","","","","","","","","","","","","","","",""
"","S2","","html-keyboard-response","278","340644","0.0-1.0-382.0","0","0","77609","","null","","","null","42","","NaN","","","","","","","","","","","","","",""
"","response","","html-keyboard-response","279","341318","0.0-1.0-383.0-0.0","0","0","77609","","672","","","68","42","","","1","42","training","adjacent","DE","4","5","R.jpg","L.jpg","0","1","0","",""
"","feedback","","html-keyboard-response","280","342323","0.0-1.0-384.0-0.0","0","0","77609","","null","","","null","42","","","","","","","","","","","","","","","",""
"","time_out","","html-keyboard-response","281","344327","0.0-1.0-386.0-0.0","0","0","77609","","null","","","null","42","","","","","","","","","","","","","","","",""
"","ITI","","html-keyboard-response","282","345332","0.0-1.0-387.0","0","0","77609","","null","","","null","42","","","","","","","","","","","","","","","NaN",""
"","S1","","html-keyboard-response","283","345587","0.0-1.0-389.0","0","0","77609","","null","","","null","43","","","","","","","","","","","","","","","",""
"","ISI","","html-keyboard-response","284","346592","0.0-1.0-390.0","0","0","77609","","null","","","null","43","NaN","","","","","","","","","","","","","","",""
"","S2","","html-keyboard-response","285","346848","0.0-1.0-391.0","0","0","77609","","null","","","null","43","","NaN","","","","","","","","","","","","","",""
"","response","","html-keyboard-response","286","347331","0.0-1.0-392.0-0.0","0","0","77609","","479","","","75","43","","","1","43","training","adjacent","EF","5","6","L.jpg","N.jpg","1","1","1","",""
"","feedback","","html-keyboard-response","287","348337","0.0-1.0-393.0-0.0","0","0","77609","","null","","","null","43","","","","","","","","","","","","","","","",""
"","ITI","","html-keyboard-response","288","349342","0.0-1.0-396.0","0","0","77609","","null","","","null","43","","","","","","","","","","","","","","","NaN",""
"","S1","","html-keyboard-response","289","349595","0.0-1.0-398.0","0","0","77609","","null","","","null","44","","","","","","","","","","","","","","","",""
"","ISI","","html-keyboard-response","290","350599","0.0-1.0-399.0","0","0","77609","","null","","","null","44","NaN","","","","","","","","","","","","","","",""
"","S2","","html-keyboard-response","291","350855","0.0-1.0-400.0","0","0","77609","","null","","","null","44","","NaN","","","","","","","","","","","","","",""
"","response","","html-keyboard-response","292","352611","0.0-1.0-401.0-0.0","0","0","77609","","null","","","null","44","","","1","44","training","adjacent","BC","2","3","M.jpg","P.jpg","NaN","1","0","",""
"","too_slow_prompt","","html-keyboard-response","293","353617","0.0-1.0-403.0-0.0","1","0","77609","","null","","","null","","","","","","","","","","","","","","","","",""
"","time_out","","html-keyboard-response","294","355622","0.0-1.0-404.0-0.0","0","0","77609","","null","","","null","44","","","","","","","","","","","","","","","",""
"","ITI","","html-keyboard-response","295","356627","0.0-1.0-405.0","0","0","77609","","null","","","null","44","","","","","","","","","","","","","","","NaN",""
"","S1","","html-keyboard-response","296","356882","0.0-1.0-407.0","0","0","77609","","null","","","null","45","","","","","","","","","","","","","","","",""
"","ISI","","html-keyboard-response","297","357887","0.0-1.0-408.0","0","0","77609","","null","","","null","45","NaN","","","","","","","","","","","","","","",""
"","S2","","html-keyboard-response","298","358012","0.0-1.0-409.0","0","0","77609","","119","","","75","45","","k","1","45","training","adjacent","EF","5","6","L.jpg","N.jpg","1","1","1","",""
"","feedback","","html-keyboard-response","299","359017","0.0-1.0-411.0-0.0","0","0","77609","","null","","","null","45","","","","","","","","","","","","","","","",""
"","ITI","","html-keyboard-response","300","360024","0.0-1.0-414.0","0","0","77609","","null","","","null","45","","","","","","","","","","","","","","","NaN",""
"","S1","","html-keyboard-response","301","360280","0.0-1.0-416.0","0","0","77609","","null","","","null","46","","","","","","","","","","","","","","","",""
"","ISI","","html-keyboard-response","302","361284","0.0-1.0-417.0","0","0","77609","","null","","","null","46","NaN","","","","","","","","","","","","","","",""
"","S2","","html-keyboard-response","303","361540","0.0-1.0-418.0","0","0","77609","","null","","","null","46","","NaN","","","","","","","","","","","","","",""
"","response","","html-keyboard-response","304","362207","0.0-1.0-419.0-0.0","0","0","77609","","662","","","68","46","","","1","46","training","adjacent","GF","7","6","Q.jpg","N.jpg","0","0","1","",""
"","feedback","","html-keyboard-response","305","363213","0.0-1.0-420.0-0.0","0","0","77609","","null","","","null","46","","","","","","","","","","","","","","","",""
"","ITI","","html-keyboard-response","306","364218","0.0-1.0-423.0","0","0","77609","","null","","","null","46","","","","","","","","","","","","","","","NaN",""
"","S1","","html-keyboard-response","307","364474","0.0-1.0-425.0","0","0","77609","","null","","","null","47","","","","","","","","","","","","","","","",""
"","ISI","","html-keyboard-response","308","365479","0.0-1.0-426.0","0","0","77609","","null","","","null","47","NaN","","","","","","","","","","","","","","",""
"","S2","","html-keyboard-response","309","365734","0.0-1.0-427.0","0","0","77609","","null","","","null","47","","NaN","","","","","","","","","","","","","",""
"","response","","html-keyboard-response","310","366226","0.0-1.0-428.0-0.0","0","0","77609","","488","","","75","47","","","1","47","training","adjacent","DE","4","5","R.jpg","L.jpg","1","1","1","",""
"","feedback","","html-keyboard-response","311","367231","0.0-1.0-429.0-0.0","0","0","77609","","null","","","null","47","","","","","","","","","","","","","","","",""
"","ITI","","html-keyboard-response","312","368236","0.0-1.0-432.0","0","0","77609","","null","","","null","47","","","","","","","","","","","","","","","NaN",""
"","block_over","","html-keyboard-response","313","371160","0.0-1.0-433.0-0.0","0","0","77609","","2917","","","32","47","","","","","","","","","","","","","","","",""
"","S1","","html-keyboard-response","314","371415","0.0-1.0-434.0","0","0","77609","","null","","","null","48","","","","","","","","","","","","","","","",""
"","ISI","","html-keyboard-response","315","372420","0.0-1.0-435.0","0","0","77609","","null","","","null","48","NaN","","","","","","","","","","","","","","",""
"","S2","","html-keyboard-response","316","372676","0.0-1.0-436.0","0","0","77609","","null","","","null","48","","NaN","","","","","","","","","","","","","",""
"","response","","html-keyboard-response","317","373100","0.0-1.0-437.0-0.0","0","0","77609","","420","","","68","48","","","2","48","training","adjacent","GF","7","6","Q.jpg","N.jpg","0","0","1","",""
"","feedback","","html-keyboard-response","318","374107","0.0-1.0-438.0-0.0","0","0","77609","","null","","","null","48","","","","","","","","","","","","","","","",""
"","ITI","","html-keyboard-response","319","375112","0.0-1.0-441.0","0","0","77609","","null","","","null","48","","","","","","","","","","","","","","","NaN",""
"","S1","","html-keyboard-response","320","375368","0.0-1.0-443.0","0","0","77609","","null","","","null","49","","","","","","","","","","","","","","","",""
"","ISI","","html-keyboard-response","321","376373","0.0-1.0-444.0","0","0","77609","","null","","","null","49","NaN","","","","","","","","","","","","","","",""
"","S2","","html-keyboard-response","322","376629","0.0-1.0-445.0","0","0","77609","","null","","","null","49","","NaN","","","","","","","","","","","","","",""
"","response","","html-keyboard-response","323","376899","0.0-1.0-446.0-0.0","0","0","77609","","267","","","68","49","","","2","49","training","adjacent","DC","4","3","R.jpg","P.jpg","0","0","1","",""
"","feedback","","html-keyboard-response","324","377903","0.0-1.0-447.0-0.0","0","0","77609","","null","","","null","49","","","","","","","","","","","","","","","",""
"","ITI","","html-keyboard-response","325","378908","0.0-1.0-450.0","0","0","77609","","null","","","null","49","","","","","","","","","","","","","","","NaN",""
"","S1","","html-keyboard-response","326","379164","0.0-1.0-452.0","0","0","77609","","null","","","null","50","","","","","","","","","","","","","","","",""
"","ISI","","html-keyboard-response","327","380168","0.0-1.0-453.0","0","0","77609","","null","","","null","50","NaN","","","","","","","","","","","","","","",""
"","S2","","html-keyboard-response","328","380424","0.0-1.0-454.0","0","0","77609","","null","","","null","50","","NaN","","","","","","","","","","","","","",""
"","response","","html-keyboard-response","329","380545","0.0-1.0-455.0-0.0","0","0","77609","","117","","","75","50","","","2","50","training","adjacent","ED","5","4","L.jpg","R.jpg","1","0","0","",""
"","feedback","","html-keyboard-response","330","381552","0.0-1.0-456.0-0.0","0","0","77609","","null","","","null","50","","","","","","","","","","","","","","","",""
"","time_out","","html-keyboard-response","331","383557","0.0-1.0-458.0-0.0","0","0","77609","","null","","","null","50","","","","","","","","","","","","","","","",""
"","ITI","","html-keyboard-response","332","384563","0.0-1.0-459.0","0","0","77609","","995","","","75","50","","","","","","","","","","","","","","","k",""
"","S1","","html-keyboard-response","333","384818","0.0-1.0-461.0","0","0","77609","","null","","","null","51","","","","","","","","","","","","","","","",""
"","ISI","","html-keyboard-response","334","385822","0.0-1.0-462.0","0","0","77609","","null","","","null","51","NaN","","","","","","","","","","","","","","",""
"","S2","","html-keyboard-response","335","386079","0.0-1.0-463.0","0","0","77609","","null","","","null","51","","NaN","","","","","","","","","","","","","",""
"","response","","html-keyboard-response","336","386460","0.0-1.0-464.0-0.0","0","0","77609","","377","","","75","51","","","2","51","training","adjacent","GF","7","6","Q.jpg","N.jpg","1","0","0","",""
"","feedback","","html-keyboard-response","337","387466","0.0-1.0-465.0-0.0","0","0","77609","","null","","","null","51","","","","","","","","","","","","","","","",""
"","time_out","","html-keyboard-response","338","389472","0.0-1.0-467.0-0.0","0","0","77609","","null","","","null","51","","","","","","","","","","","","","","","",""
"","ITI","","html-keyboard-response","339","390478","0.0-1.0-468.0","0","0","77609","","null","","","null","51","","","","","","","","","","","","","","","NaN",""
"","S1","","html-keyboard-response","340","390733","0.0-1.0-470.0","0","0","77609","","null","","","null","52","","","","","","","","","","","","","","","",""
"","ISI","","html-keyboard-response","341","391738","0.0-1.0-471.0","0","0","77609","","null","","","null","52","NaN","","","","","","","","","","","","","","",""
"","S2","","html-keyboard-response","342","391994","0.0-1.0-472.0","0","0","77609","","null","","","null","52","","NaN","","","","","","","","","","","","","",""
"","response","","html-keyboard-response","343","392433","0.0-1.0-473.0-0.0","0","0","77609","","435","","","75","52","","","2","52","training","adjacent","EF","5","6","L.jpg","N.jpg","1","1","1","",""
"","feedback","","html-keyboard-response","344","393439","0.0-1.0-474.0-0.0","0","0","77609","","null","","","null","52","","","","","","","","","","","","","","","",""
"","ITI","","html-keyboard-response","345","394444","0.0-1.0-477.0","0","0","77609","","null","","","null","52","","","","","","","","","","","","","","","NaN",""
"","S1","","html-keyboard-response","346","394699","0.0-1.0-479.0","0","0","77609","","null","","","null","53","","","","","","","","","","","","","","","",""
"","ISI","","html-keyboard-response","347","395705","0.0-1.0-480.0","0","0","77609","","null","","","null","53","NaN","","","","","","","","","","","","","","",""
"","S2","","html-keyboard-response","348","395961","0.0-1.0-481.0","0","0","77609","","null","","","null","53","","NaN","","","","","","","","","","","","","",""
"","response","","html-keyboard-response","349","396366","0.0-1.0-482.0-0.0","0","0","77609","","399","","","75","53","","","2","53","training","adjacent","AB","1","2","O.jpg","M.jpg","1","1","1","",""
"","feedback","","html-keyboard-response","350","397372","0.0-1.0-483.0-0.0","0","0","77609","","null","","","null","53","","","","","","","","","","","","","","","",""
"","ITI","","html-keyboard-response","351","398378","0.0-1.0-486.0","0","0","77609","","null","","","null","53","","","","","","","","","","","","","","","NaN",""
"","S1","","html-keyboard-response","352","398634","0.0-1.0-488.0","0","0","77609","","null","","","null","54","","","","","","","","","","","","","","","",""
"","ISI","","html-keyboard-response","353","399638","0.0-1.0-489.0","0","0","77609","","null","","","null","54","NaN","","","","","","","","","","","","","","",""
"","S2","","html-keyboard-response","354","399894","0.0-1.0-490.0","0","0","77609","","null","","","null","54","","NaN","","","","","","","","","","","","","",""
"","response","","html-keyboard-response","355","401649","0.0-1.0-491.0-0.0","0","0","77609","","null","","","null","54","","","2","54","training","adjacent","BA","2","1","M.jpg","O.jpg","NaN","0","0","",""
"","too_slow_prompt","","html-keyboard-response","356","402654","0.0-1.0-493.0-0.0","1","0","77609","","null","","","null","","","","","","","","","","","","","","","","",""
"","time_out","","html-keyboard-response","357","404659","0.0-1.0-494.0-0.0","0","0","77609","","null","","","null","54","","","","","","","","","","","","","","","",""
"","ITI","","html-keyboard-response","358","405664","0.0-1.0-495.0","0","0","77609","","null","","","null","54","","","","","","","","","","","","","","","NaN",""
"","S1","","html-keyboard-response","359","405920","0.0-1.0-497.0","0","0","77609","","null","","","null","55","","","","","","","","","","","","","","","",""
"","ISI","","html-keyboard-response","360","406923","0.0-1.0-498.0","0","0","77609","","null","","","null","55","NaN","","","","","","","","","","","","","","",""
"","S2","","html-keyboard-response","361","407178","0.0-1.0-499.0","0","0","77609","","null","","","null","55","","NaN","","","","","","","","","","","","","",""
"","response","","html-keyboard-response","362","407398","0.0-1.0-500.0-0.0","0","0","77609","","216","","","75","55","","","2","55","training","adjacent","BC","2","3","M.jpg","P.jpg","1","1","1","",""
"","feedback","","html-keyboard-response","363","408403","0.0-1.0-501.0-0.0","0","0","77609","","null","","","null","55","","","","","","","","","","","","","","","",""
"","ITI","","html-keyboard-response","364","409406","0.0-1.0-504.0","0","0","77609","","null","","","null","55","","","","","","","","","","","","","","","NaN",""
"","S1","","html-keyboard-response","365","409660","0.0-1.0-506.0","0","0","77609","","null","","","null","56","","","","","","","","","","","","","","","",""
"","ISI","","html-keyboard-response","366","410664","0.0-1.0-507.0","0","0","77609","","478","","","68","56","d","","","","","","","","","","","","","","",""
"","S2","","html-keyboard-response","367","410917","0.0-1.0-508.0","0","0","77609","","null","","","null","56","","NaN","","","","","","","","","","","","","",""
"","response","","html-keyboard-response","368","410940","0.0-1.0-509.0-0.0","0","0","77609","","21","","","68","56","","","2","56","training","adjacent","BA","2","1","M.jpg","O.jpg","0","0","1","",""
"","feedback","","html-keyboard-response","369","411946","0.0-1.0-510.0-0.0","0","0","77609","","null","","","null","56","","","","","","","","","","","","","","","",""
"","ITI","","html-keyboard-response","370","412951","0.0-1.0-513.0","0","0","77609","","null","","","null","56","","","","","","","","","","","","","","","NaN",""
"","S1","","html-keyboard-response","371","413207","0.0-1.0-515.0","0","0","77609","","null","","","null","57","","","","","","","","","","","","","","","",""
"","ISI","","html-keyboard-response","372","414211","0.0-1.0-516.0","0","0","77609","","null","","","null","57","NaN","","","","","","","","","","","","","","",""
"","S2","","html-keyboard-response","373","414464","0.0-1.0-517.0","0","0","77609","","null","","","null","57","","NaN","","","","","","","","","","","","","",""
"","response","","html-keyboard-response","374","414787","0.0-1.0-518.0-0.0","0","0","77609","","320","","","68","57","","","2","57","training","adjacent","AB","1","2","O.jpg","M.jpg","0","1","0","",""
"","feedback","","html-keyboard-response","375","415791","0.0-1.0-519.0-0.0","0","0","77609","","null","","","null","57","","","","","","","","","","","","","","","",""
"","time_out","","html-keyboard-response","376","417796","0.0-1.0-521.0-0.0","0","0","77609","","null","","","null","57","","","","","","","","","","","","","","","",""
"","ITI","","html-keyboard-response","377","418802","0.0-1.0-522.0","0","0","77609","","640","","","75","57","","","","","","","","","","","","","","","k",""
"","S1","","html-keyboard-response","378","419058","0.0-1.0-524.0","0","0","77609","","null","","","null","58","","","","","","","","","","","","","","","",""
"","ISI","","html-keyboard-response","379","420062","0.0-1.0-525.0","0","0","77609","","null","","","null","58","NaN","","","","","","","","","","","","","","",""
"","S2","","html-keyboard-response","380","420318","0.0-1.0-526.0","0","0","77609","","null","","","null","58","","NaN","","","","","","","","","","","","","",""
"","response","","html-keyboard-response","381","420553","0.0-1.0-527.0-0.0","0","0","77609","","230","","","75","58","","","2","58","training","adjacent","AB","1","2","O.jpg","M.jpg","1","1","1","",""
"","feedback","","html-keyboard-response","382","421558","0.0-1.0-528.0-0.0","0","0","77609","","null","","","null","58","","","","","","","","","","","","","","","",""
"","ITI","","html-keyboard-response","383","422565","0.0-1.0-531.0","0","0","77609","","null","","","null","58","","","","","","","","","","","","","","","NaN",""
"","S1","","html-keyboard-response","384","422820","0.0-1.0-533.0","0","0","77609","","null","","","null","59","","","","","","","","","","","","","","","",""
"","ISI","","html-keyboard-response","385","423824","0.0-1.0-534.0","0","0","77609","","null","","","null","59","NaN","","","","","","","","","","","","","","",""
"","S2","","html-keyboard-response","386","424077","0.0-1.0-535.0","0","0","77609","","null","","","null","59","","NaN","","","","","","","","","","","","","",""
"","response","","html-keyboard-response","387","424565","0.0-1.0-536.0-0.0","0","0","77609","","486","","","75","59","","","2","59","training","adjacent","ED","5","4","L.jpg","R.jpg","1","0","0","",""
"","feedback","","html-keyboard-response","388","425570","0.0-1.0-537.0-0.0","0","0","77609","","null","","","null","59","","","","","","","","","","","","","","","",""
"","time_out","","html-keyboard-response","389","427577","0.0-1.0-539.0-0.0","0","0","77609","","null","","","null","59","","","","","","","","","","","","","","","",""
"","ITI","","html-keyboard-response","390","428582","0.0-1.0-540.0","0","0","77609","","null","","","null","59","","","","","","","","","","","","","","","NaN",""
"","S1","","html-keyboard-response","391","428837","0.0-1.0-542.0","0","0","77609","","null","","","null","60","","","","","","","","","","","","","","","",""
"","ISI","","html-keyboard-response","392","429842","0.0-1.0-543.0","0","0","77609","","null","","","null","60","NaN","","","","","","","","","","","","","","",""
"","S2","","html-keyboard-response","393","430097","0.0-1.0-544.0","0","0","77609","","null","","","null","60","","NaN","","","","","","","","","","","","","",""
"","response","","html-keyboard-response","394","430622","0.0-1.0-545.0-0.0","0","0","77609","","521","","","68","60","","","2","60","training","adjacent","BA","2","1","M.jpg","O.jpg","0","0","1","",""
"","feedback","","html-keyboard-response","395","431628","0.0-1.0-546.0-0.0","0","0","77609","","null","","","null","60","","","","","","","","","","","","","","","",""
"","ITI","","html-keyboard-response","396","432635","0.0-1.0-549.0","0","0","77609","","null","","","null","60","","","","","","","","","","","","","","","NaN",""
"","S1","","html-keyboard-response","397","432890","0.0-1.0-551.0","0","0","77609","","null","","","null","61","","","","","","","","","","","","","","","",""
"","ISI","","html-keyboard-response","398","433894","0.0-1.0-552.0","0","0","77609","","null","","","null","61","NaN","","","","","","","","","","","","","","",""
"","S2","","html-keyboard-response","399","434150","0.0-1.0-553.0","0","0","77609","","null","","","null","61","","NaN","","","","","","","","","","","","","",""
"","response","","html-keyboard-response","400","434330","0.0-1.0-554.0-0.0","0","0","77609","","175","","","68","61","","","2","61","training","adjacent","DC","4","3","R.jpg","P.jpg","0","0","1","",""
"","feedback","","html-keyboard-response","401","435336","0.0-1.0-555.0-0.0","0","0","77609","","null","","","null","61","","","","","","","","","","","","","","","",""
"","ITI","","html-keyboard-response","402","436342","0.0-1.0-558.0","0","0","77609","","null","","","null","61","","","","","","","","","","","","","","","NaN",""
"","S1","","html-keyboard-response","403","436598","0.0-1.0-560.0","0","0","77609","","null","","","null","62","","","","","","","","","","","","","","","",""
"","ISI","","html-keyboard-response","404","437603","0.0-1.0-561.0","0","0","77609","","null","","","null","62","NaN","","","","","","","","","","","","","","",""
"","S2","","html-keyboard-response","405","437859","0.0-1.0-562.0","0","0","77609","","null","","","null","62","","NaN","","","","","","","","","","","","","",""
"","response","","html-keyboard-response","406","437966","0.0-1.0-563.0-0.0","0","0","77609","","103","","","68","62","","","2","62","training","adjacent","DE","4","5","R.jpg","L.jpg","0","1","0","",""
"","feedback","","html-keyboard-response","407","438972","0.0-1.0-564.0-0.0","0","0","77609","","null","","","null","62","","","","","","","","","","","","","","","",""
"","time_out","","html-keyboard-response","408","440979","0.0-1.0-566.0-0.0","0","0","77609","","null","","","null","62","","","","","","","","","","","","","","","",""
"","ITI","","html-keyboard-response","409","441984","0.0-1.0-567.0","0","0","77609","","null","","","null","62","","","","","","","","","","","","","","","NaN",""
"","S1","","html-keyboard-response","410","442239","0.0-1.0-569.0","0","0","77609","","null","","","null","63","","","","","","","","","","","","","","","",""
"","ISI","","html-keyboard-response","411","443244","0.0-1.0-570.0","0","0","77609","","null","","","null","63","NaN","","","","","","","","","","","","","","",""
"","S2","","html-keyboard-response","412","443499","0.0-1.0-571.0","0","0","77609","","null","","","null","63","","NaN","","","","","","","","","","","","","",""
"","response","","html-keyboard-response","413","444035","0.0-1.0-572.0-0.0","0","0","77609","","532","","","75","63","","","2","63","training","adjacent","GF","7","6","Q.jpg","N.jpg","1","0","0","",""
"","feedback","","html-keyboard-response","414","445041","0.0-1.0-573.0-0.0","0","0","77609","","null","","","null","63","","","","","","","","","","","","","","","",""
"","time_out","","html-keyboard-response","415","447046","0.0-1.0-575.0-0.0","0","0","77609","","null","","","null","63","","","","","","","","","","","","","","","",""
"","ITI","","html-keyboard-response","416","448051","0.0-1.0-576.0","0","0","77609","","null","","","null","63","","","","","","","","","","","","","","","NaN",""
"","S1","","html-keyboard-response","417","448307","0.0-1.0-578.0","0","0","77609","","null","","","null","64","","","","","","","","","","","","","","","",""
"","ISI","","html-keyboard-response","418","449311","0.0-1.0-579.0","0","0","77609","","null","","","null","64","NaN","","","","","","","","","","","","","","",""
"","S2","","html-keyboard-response","419","449566","0.0-1.0-580.0","0","0","77609","","null","","","null","64","","NaN","","","","","","","","","","","","","",""
"","response","","html-keyboard-response","420","449695","0.0-1.0-581.0-0.0","0","0","77609","","124","","","68","64","","","2","64","training","adjacent","FE","6","5","N.jpg","L.jpg","0","0","1","",""
"","feedback","","html-keyboard-response","421","450700","0.0-1.0-582.0-0.0","0","0","77609","","null","","","null","64","","","","","","","","","","","","","","","",""
"","ITI","","html-keyboard-response","422","451706","0.0-1.0-585.0","0","0","77609","","null","","","null","64","","","","","","","","","","","","","","","NaN",""
"","S1","","html-keyboard-response","423","451962","0.0-1.0-587.0","0","0","77609","","null","","","null","65","","","","","","","","","","","","","","","",""
"","ISI","","html-keyboard-response","424","452966","0.0-1.0-588.0","0","0","77609","","null","","","null","65","NaN","","","","","","","","","","","","","","",""
"","S2","","html-keyboard-response","425","453219","0.0-1.0-589.0","0","0","77609","","null","","","null","65","","NaN","","","","","","","","","","","","","",""
"","response","","html-keyboard-response","426","453635","0.0-1.0-590.0-0.0","0","0","77609","","413","","","68","65","","","2","65","training","adjacent","DC","4","3","R.jpg","P.jpg","0","0","1","",""
"","feedback","","html-keyboard-response","427","454642","0.0-1.0-591.0-0.0","0","0","77609","","null","","","null","65","","","","","","","","","","","","","","","",""
"","ITI","","html-keyboard-response","428","455648","0.0-1.0-594.0","0","0","77609","","null","","","null","65","","","","","","","","","","","","","","","NaN",""
"","S1","","html-keyboard-response","429","455903","0.0-1.0-596.0","0","0","77609","","null","","","null","66","","","","","","","","","","","","","","","",""
"","ISI","","html-keyboard-response","430","456908","0.0-1.0-597.0","0","0","77609","","null","","","null","66","NaN","","","","","","","","","","","","","","",""
"","S2","","html-keyboard-response","431","457164","0.0-1.0-598.0","0","0","77609","","null","","","null","66","","NaN","","","","","","","","","","","","","",""
"","response","","html-keyboard-response","432","457622","0.0-1.0-599.0-0.0","0","0","77609","","453","","","75","66","","","2","66","training","adjacent","FG","6","7","N.jpg","Q.jpg","1","1","1","",""
"","feedback","","html-keyboard-response","433","458629","0.0-1.0-600.0-0.0","0","0","77609","","null","","","null","66","","","","","","","","","","","","","","","",""
"","ITI","","html-keyboard-response","434","459636","0.0-1.0-603.0","0","0","77609","","null","","","null","66","","","","","","","","","","","","","","","NaN",""
"","S1","","html-keyboard-response","435","459891","0.0-1.0-605.0","0","0","77609","","null","","","null","67","","","","","","","","","","","","","","","",""
"","ISI","","html-keyboard-response","436","460897","0.0-1.0-606.0","0","0","77609","","null","","","null","67","NaN","","","","","","","","","","","","","","",""
"","S2","","html-keyboard-response","437","461152","0.0-1.0-607.0","0","0","77609","","null","","","null","67","","NaN","","","","","","","","","","","","","",""
"","response","","html-keyboard-response","438","461631","0.0-1.0-608.0-0.0","0","0","77609","","474","","","75","67","","","2","67","training","adjacent","AB","1","2","O.jpg","M.jpg","1","1","1","",""
"","feedback","","html-keyboard-response","439","462638","0.0-1.0-609.0-0.0","0","0","77609","","null","","","null","67","","","","","","","","","","","","","","","",""
"","ITI","","html-keyboard-response","440","463644","0.0-1.0-612.0","0","0","77609","","null","","","null","67","","","","","","","","","","","","","","","NaN",""
"","S1","","html-keyboard-response","441","463898","0.0-1.0-614.0","0","0","77609","","null","","","null","68","","","","","","","","","","","","","","","",""
"","ISI","","html-keyboard-response","442","464903","0.0-1.0-615.0","0","0","77609","","null","","","null","68","NaN","","","","","","","","","","","","","","",""
"","S2","","html-keyboard-response","443","465158","0.0-1.0-616.0","0","0","77609","","null","","","null","68","","NaN","","","","","","","","","","","","","",""
"","response","","html-keyboard-response","444","465211","0.0-1.0-617.0-0.0","0","0","77609","","48","","","75","68","","","2","68","training","adjacent","DC","4","3","R.jpg","P.jpg","1","0","0","",""
"","feedback","","html-keyboard-response","445","466217","0.0-1.0-618.0-0.0","0","0","77609","","null","","","null","68","","","","","","","","","","","","","","","",""
"","time_out","","html-keyboard-response","446","468222","0.0-1.0-620.0-0.0","0","0","77609","","null","","","null","68","","","","","","","","","","","","","","","",""
"","ITI","","html-keyboard-response","447","469228","0.0-1.0-621.0","0","0","77609","","null","","","null","68","","","","","","","","","","","","","","","NaN",""
"","S1","","html-keyboard-response","448","469483","0.0-1.0-623.0","0","0","77609","","null","","","null","69","","","","","","","","","","","","","","","",""
"","ISI","","html-keyboard-response","449","470488","0.0-1.0-624.0","0","0","77609","","null","","","null","69","NaN","","","","","","","","","","","","","","",""
"","S2","","html-keyboard-response","450","470743","0.0-1.0-625.0","0","0","77609","","null","","","null","69","","NaN","","","","","","","","","","","","","",""
"","response","","html-keyboard-response","451","470932","0.0-1.0-626.0-0.0","0","0","77609","","184","","","68","69","","","2","69","training","adjacent","DE","4","5","R.jpg","L.jpg","0","1","0","",""
"","feedback","","html-keyboard-response","452","471937","0.0-1.0-627.0-0.0","0","0","77609","","null","","","null","69","","","","","","","","","","","","","","","",""
"","time_out","","html-keyboard-response","453","473942","0.0-1.0-629.0-0.0","0","0","77609","","null","","","null","69","","","","","","","","","","","","","","","",""
"","ITI","","html-keyboard-response","454","474947","0.0-1.0-630.0","0","0","77609","","null","","","null","69","","","","","","","","","","","","","","","NaN",""
"","S1","","html-keyboard-response","455","475203","0.0-1.0-632.0","0","0","77609","","null","","","null","70","","","","","","","","","","","","","","","",""
"","ISI","","html-keyboard-response","456","476208","0.0-1.0-633.0","0","0","77609","","null","","","null","70","NaN","","","","","","","","","","","","","","",""
"","S2","","html-keyboard-response","457","476296","0.0-1.0-634.0","0","0","77609","","82","","","68","70","","d","2","70","training","adjacent","ED","5","4","L.jpg","R.jpg","0","0","1","",""
"","feedback","","html-keyboard-response","458","477302","0.0-1.0-636.0-0.0","0","0","77609","","null","","","null","70","","","","","","","","","","","","","","","",""
"","ITI","","html-keyboard-response","459","478308","0.0-1.0-639.0","0","0","77609","","null","","","null","70","","","","","","","","","","","","","","","NaN",""
"","S1","","html-keyboard-response","460","478563","0.0-1.0-641.0","0","0","77609","","null","","","null","71","","","","","","","","","","","","","","","",""
"","ISI","","html-keyboard-response","461","479567","0.0-1.0-642.0","0","0","77609","","null","","","null","71","NaN","","","","","","","","","","","","","","",""
"","S2","","html-keyboard-response","462","479822","0.0-1.0-643.0","0","0","77609","","null","","","null","71","","NaN","","","","","","","","","","","","","",""
"","response","","html-keyboard-response","463","481180","0.0-1.0-644.0-0.0","0","0","77609","","1353","","","75","71","","","2","71","training","adjacent","CB","3","2","P.jpg","M.jpg","1","0","0","",""
"","feedback","","html-keyboard-response","464","482186","0.0-1.0-645.0-0.0","0","0","77609","","null","","","null","71","","","","","","","","","","","","","","","",""
"","time_out","","html-keyboard-response","465","484191","0.0-1.0-647.0-0.0","0","0","77609","","null","","","null","71","","","","","","","","","","","","","","","",""
"","ITI","","html-keyboard-response","466","485196","0.0-1.0-648.0","0","0","77609","","null","","","null","71","","","","","","","","","","","","","","","NaN",""
"","S1","","html-keyboard-response","467","485452","0.0-1.0-650.0","0","0","77609","","null","","","null","72","","","","","","","","","","","","","","","",""
"","ISI","","html-keyboard-response","468","486458","0.0-1.0-651.0","0","0","77609","","null","","","null","72","NaN","","","","","","","","","","","","","","",""
"","S2","","html-keyboard-response","469","486713","0.0-1.0-652.0","0","0","77609","","null","","","null","72","","NaN","","","","","","","","","","","","","",""
"","response","","html-keyboard-response","470","486896","0.0-1.0-653.0-0.0","0","0","77609","","178","","","68","72","","","2","72","training","adjacent","FG","6","7","N.jpg","Q.jpg","0","1","0","",""
"","feedback","","html-keyboard-response","471","487902","0.0-1.0-654.0-0.0","0","0","77609","","null","","","null","72","","","","","","","","","","","","","","","",""
"","time_out","","html-keyboard-response","472","489908","0.0-1.0-656.0-0.0","0","0","77609","","null","","","null","72","","","","","","","","","","","","","","","",""
"","ITI","","html-keyboard-response","473","490914","0.0-1.0-657.0","0","0","77609","","null","","","null","72","","","","","","","","","","","","","","","NaN",""
"","S1","","html-keyboard-response","474","491170","0.0-1.0-659.0","0","0","77609","","null","","","null","73","","","","","","","","","","","","","","","",""
"","ISI","","html-keyboard-response","475","492175","0.0-1.0-660.0","0","0","77609","","null","","","null","73","NaN","","","","","","","","","","","","","","",""
"","S2","","html-keyboard-response","476","492431","0.0-1.0-661.0","0","0","77609","","null","","","null","73","","NaN","","","","","","","","","","","","","",""
"","response","","html-keyboard-response","477","492924","0.0-1.0-662.0-0.0","0","0","77609","","489","","","75","73","","","2","73","training","adjacent","GF","7","6","Q.jpg","N.jpg","1","0","0","",""
"","feedback","","html-keyboard-response","478","493931","0.0-1.0-663.0-0.0","0","0","77609","","null","","","null","73","","","","","","","","","","","","","","","",""
"","time_out","","html-keyboard-response","479","495937","0.0-1.0-665.0-0.0","0","0","77609","","null","","","null","73","","","","","","","","","","","","","","","",""
"","ITI","","html-keyboard-response","480","496942","0.0-1.0-666.0","0","0","77609","","null","","","null","73","","","","","","","","","","","","","","","NaN",""
"","S1","","html-keyboard-response","481","497198","0.0-1.0-668.0","0","0","77609","","null","","","null","74","","","","","","","","","","","","","","","",""
"","ISI","","html-keyboard-response","482","498203","0.0-1.0-669.0","0","0","77609","","null","","","null","74","NaN","","","","","","","","","","","","","","",""
"","S2","","html-keyboard-response","483","498459","0.0-1.0-670.0","0","0","77609","","null","","","null","74","","NaN","","","","","","","","","","","","","",""
"","response","","html-keyboard-response","484","498606","0.0-1.0-671.0-0.0","0","0","77609","","141","","","68","74","","","2","74","training","adjacent","FE","6","5","N.jpg","L.jpg","0","0","1","",""
"","feedback","","html-keyboard-response","485","499612","0.0-1.0-672.0-0.0","0","0","77609","","null","","","null","74","","","","","","","","","","","","","","","",""
"","ITI","","html-keyboard-response","486","500617","0.0-1.0-675.0","0","0","77609","","null","","","null","74","","","","","","","","","","","","","","","NaN",""
"","S1","","html-keyboard-response","487","500873","0.0-1.0-677.0","0","0","77609","","null","","","null","75","","","","","","","","","","","","","","","",""
"","ISI","","html-keyboard-response","488","501878","0.0-1.0-678.0","0","0","77609","","null","","","null","75","NaN","","","","","","","","","","","","","","",""
"","S2","","html-keyboard-response","489","502133","0.0-1.0-679.0","0","0","77609","","null","","","null","75","","NaN","","","","","","","","","","","","","",""
"","response","","html-keyboard-response","490","502369","0.0-1.0-680.0-0.0","0","0","77609","","231","","","68","75","","","2","75","training","adjacent","BC","2","3","M.jpg","P.jpg","0","1","0","",""
"","feedback","","html-keyboard-response","491","503374","0.0-1.0-681.0-0.0","0","0","77609","","null","","","null","75","","","","","","","","","","","","","","","",""
"","time_out","","html-keyboard-response","492","505380","0.0-1.0-683.0-0.0","0","0","77609","","null","","","null","75","","","","","","","","","","","","","","","",""
"","ITI","","html-keyboard-response","493","506384","0.0-1.0-684.0","0","0","77609","","null","","","null","75","","","","","","","","","","","","","","","NaN",""
"","S1","","html-keyboard-response","494","506641","0.0-1.0-686.0","0","0","77609","","null","","","null","76","","","","","","","","","","","","","","","",""
"","ISI","","html-keyboard-response","495","507646","0.0-1.0-687.0","0","0","77609","","810","","","75","76","k","","","","","","","","","","","","","","",""
"","S2","","html-keyboard-response","496","507903","0.0-1.0-688.0","0","0","77609","","null","","","null","76","","NaN","","","","","","","","","","","","","",""
"","response","","html-keyboard-response","497","508004","0.0-1.0-689.0-0.0","0","0","77609","","96","","","75","76","","","2","76","training","adjacent","FG","6","7","N.jpg","Q.jpg","1","1","1","",""
"","feedback","","html-keyboard-response","498","509010","0.0-1.0-690.0-0.0","0","0","77609","","null","","","null","76","","","","","","","","","","","","","","","",""
"","ITI","","html-keyboard-response","499","510016","0.0-1.0-693.0","0","0","77609","","null","","","null","76","","","","","","","","","","","","","","","NaN",""
"","S1","","html-keyboard-response","500","510272","0.0-1.0-695.0","0","0","77609","","null","","","null","77","","","","","","","","","","","","","","","",""
"","ISI","","html-keyboard-response","501","511276","0.0-1.0-696.0","0","0","77609","","null","","","null","77","NaN","","","","","","","","","","","","","","",""
"","S2","","html-keyboard-response","502","511532","0.0-1.0-697.0","0","0","77609","","null","","","null","77","","NaN","","","","","","","","","","","","","",""
"","response","","html-keyboard-response","503","511680","0.0-1.0-698.0-0.0","0","0","77609","","144","","","68","77","","","2","77","training","adjacent","DE","4","5","R.jpg","L.jpg","0","1","0","",""
"","feedback","","html-keyboard-response","504","512686","0.0-1.0-699.0-0.0","0","0","77609","","null","","","null","77","","","","","","","","","","","","","","","",""
"","time_out","","html-keyboard-response","505","514692","0.0-1.0-701.0-0.0","0","0","77609","","null","","","null","77","","","","","","","","","","","","","","","",""
"","ITI","","html-keyboard-response","506","515697","0.0-1.0-702.0","0","0","77609","","null","","","null","77","","","","","","","","","","","","","","","NaN",""
"","S1","","html-keyboard-response","507","515953","0.0-1.0-704.0","0","0","77609","","null","","","null","78","","","","","","","","","","","","","","","",""
"","ISI","","html-keyboard-response","508","516958","0.0-1.0-705.0","0","0","77609","","null","","","null","78","NaN","","","","","","","","","","","","","","",""
"","S2","","html-keyboard-response","509","517174","0.0-1.0-706.0","0","0","77609","","210","","","75","78","","k","2","78","training","adjacent","DE","4","5","R.jpg","L.jpg","1","1","1","",""
"","feedback","","html-keyboard-response","510","518181","0.0-1.0-708.0-0.0","0","0","77609","","null","","","null","78","","","","","","","","","","","","","","","",""
"","ITI","","html-keyboard-response","511","519187","0.0-1.0-711.0","0","0","77609","","null","","","null","78","","","","","","","","","","","","","","","NaN",""
"","S1","","html-keyboard-response","512","519442","0.0-1.0-713.0","0","0","77609","","null","","","null","79","","","","","","","","","","","","","","","",""
"","ISI","","html-keyboard-response","513","520447","0.0-1.0-714.0","0","0","77609","","null","","","null","79","NaN","","","","","","","","","","","","","","",""
"","S2","","html-keyboard-response","514","520703","0.0-1.0-715.0","0","0","77609","","null","","","null","79","","NaN","","","","","","","","","","","","","",""
"","response","","html-keyboard-response","515","521831","0.0-1.0-716.0-0.0","0","0","77609","","1124","","","75","79","","","2","79","training","adjacent","BC","2","3","M.jpg","P.jpg","1","1","1","",""
"","feedback","","html-keyboard-response","516","522838","0.0-1.0-717.0-0.0","0","0","77609","","null","","","null","79","","","","","","","","","","","","","","","",""
"","ITI","","html-keyboard-response","517","523843","0.0-1.0-720.0","0","0","77609","","null","","","null","79","","","","","","","","","","","","","","","NaN",""
"","S1","","html-keyboard-response","518","524100","0.0-1.0-722.0","0","0","77609","","null","","","null","80","","","","","","","","","","","","","","","",""
"","ISI","","html-keyboard-response","519","525104","0.0-1.0-723.0","0","0","77609","","null","","","null","80","NaN","","","","","","","","","","","","","","",""
"","S2","","html-keyboard-response","520","525360","0.0-1.0-724.0","0","0","77609","","null","","","null","80","","NaN","","","","","","","","","","","","","",""
"","response","","html-keyboard-response","521","525783","0.0-1.0-725.0-0.0","0","0","77609","","418","","","75","80","","","2","80","training","adjacent","ED","5","4","L.jpg","R.jpg","1","0","0","",""
"","feedback","","html-keyboard-response","522","526791","0.0-1.0-726.0-0.0","0","0","77609","","null","","","null","80","","","","","","","","","","","","","","","",""
"","time_out","","html-keyboard-response","523","528796","0.0-1.0-728.0-0.0","0","0","77609","","null","","","null","80","","","","","","","","","","","","","","","",""
"","ITI","","html-keyboard-response","524","529801","0.0-1.0-729.0","0","0","77609","","null","","","null","80","","","","","","","","","","","","","","","NaN",""
"","S1","","html-keyboard-response","525","530057","0.0-1.0-731.0","0","0","77609","","null","","","null","81","","","","","","","","","","","","","","","",""
"","ISI","","html-keyboard-response","526","531061","0.0-1.0-732.0","0","0","77609","","681","","","68","81","d","","","","","","","","","","","","","","",""
"","S2","","html-keyboard-response","527","531316","0.0-1.0-733.0","0","0","77609","","null","","","null","81","","NaN","","","","","","","","","","","","","",""
"","response","","html-keyboard-response","528","531359","0.0-1.0-734.0-0.0","0","0","77609","","38","","","68","81","","","2","81","training","adjacent","CD","3","4","P.jpg","R.jpg","0","1","0","",""
"","feedback","","html-keyboard-response","529","532369","0.0-1.0-735.0-0.0","0","0","77609","","null","","","null","81","","","","","","","","","","","","","","","",""
"","time_out","","html-keyboard-response","530","534375","0.0-1.0-737.0-0.0","0","0","77609","","null","","","null","81","","","","","","","","","","","","","","","",""
"","ITI","","html-keyboard-response","531","535380","0.0-1.0-738.0","0","0","77609","","null","","","null","81","","","","","","","","","","","","","","","NaN",""
"","S1","","html-keyboard-response","532","535636","0.0-1.0-740.0","0","0","77609","","null","","","null","82","","","","","","","","","","","","","","","",""
"","ISI","","html-keyboard-response","533","536639","0.0-1.0-741.0","0","0","77609","","null","","","null","82","NaN","","","","","","","","","","","","","","",""
"","S2","","html-keyboard-response","534","536746","0.0-1.0-742.0","0","0","77609","","102","","","75","82","","k","2","82","training","adjacent","FG","6","7","N.jpg","Q.jpg","1","1","1","",""
"","feedback","","html-keyboard-response","535","537752","0.0-1.0-744.0-0.0","0","0","77609","","null","","","null","82","","","","","","","","","","","","","","","",""
"","ITI","","html-keyboard-response","536","538758","0.0-1.0-747.0","0","0","77609","","null","","","null","82","","","","","","","","","","","","","","","NaN",""
"","S1","","html-keyboard-response","537","539014","0.0-1.0-749.0","0","0","77609","","null","","","null","83","","","","","","","","","","","","","","","",""
"","ISI","","html-keyboard-response","538","540018","0.0-1.0-750.0","0","0","77609","","838","","","68","83","d","","","","","","","","","","","","","","",""
"","S2","","html-keyboard-response","539","540274","0.0-1.0-751.0","0","0","77609","","null","","","null","83","","NaN","","","","","","","","","","","","","",""
"","response","","html-keyboard-response","540","540319","0.0-1.0-752.0-0.0","0","0","77609","","41","","","68","83","","","2","83","training","adjacent","CD","3","4","P.jpg","R.jpg","0","1","0","",""
"","feedback","","html-keyboard-response","541","541326","0.0-1.0-753.0-0.0","0","0","77609","","null","","","null","83","","","","","","","","","","","","","","","",""
"","time_out","","html-keyboard-response","542","543332","0.0-1.0-755.0-0.0","0","0","77609","","null","","","null","83","","","","","","","","","","","","","","","",""
"","ITI","","html-keyboard-response","543","544336","0.0-1.0-756.0","0","0","77609","","null","","","null","83","","","","","","","","","","","","","","","NaN",""
"","S1","","html-keyboard-response","544","544591","0.0-1.0-758.0","0","0","77609","","null","","","null","84","","","","","","","","","","","","","","","",""
"","ISI","","html-keyboard-response","545","545597","0.0-1.0-759.0","0","0","77609","","43","","","75","84","k","","","","","","","","","","","","","","",""
"","S2","","html-keyboard-response","546","545853","0.0-1.0-760.0","0","0","77609","","null","","","null","84","","NaN","","","","","","","","","","","","","",""
"","response","","html-keyboard-response","547","545857","0.0-1.0-761.0-0.0","0","0","77609","","0","","","75","84","","","2","84","training","adjacent","FE","6","5","N.jpg","L.jpg","1","0","0","",""
"","feedback","","html-keyboard-response","548","546863","0.0-1.0-762.0-0.0","0","0","77609","","null","","","null","84","","","","","","","","","","","","","","","",""
"","time_out","","html-keyboard-response","549","548869","0.0-1.0-764.0-0.0","0","0","77609","","null","","","null","84","","","","","","","","","","","","","","","",""
"","ITI","","html-keyboard-response","550","549873","0.0-1.0-765.0","0","0","77609","","168","","","68","84","","","","","","","","","","","","","","","d",""
"","S1","","html-keyboard-response","551","550128","0.0-1.0-767.0","0","0","77609","","null","","","null","85","","","","","","","","","","","","","","","",""
"","ISI","","html-keyboard-response","552","551134","0.0-1.0-768.0","0","0","77609","","null","","","null","85","NaN","","","","","","","","","","","","","","",""
"","S2","","html-keyboard-response","553","551389","0.0-1.0-769.0","0","0","77609","","null","","","null","85","","NaN","","","","","","","","","","","","","",""
"","response","","html-keyboard-response","554","551685","0.0-1.0-770.0-0.0","0","0","77609","","291","","","75","85","","","2","85","training","adjacent","CD","3","4","P.jpg","R.jpg","1","1","1","",""
"","feedback","","html-keyboard-response","555","552692","0.0-1.0-771.0-0.0","0","0","77609","","null","","","null","85","","","","","","","","","","","","","","","",""
"","ITI","","html-keyboard-response","556","553698","0.0-1.0-774.0","0","0","77609","","null","","","null","85","","","","","","","","","","","","","","","NaN",""
"","S1","","html-keyboard-response","557","553953","0.0-1.0-776.0","0","0","77609","","null","","","null","86","","","","","","","","","","","","","","","",""
"","ISI","","html-keyboard-response","558","554958","0.0-1.0-777.0","0","0","77609","","null","","","null","86","NaN","","","","","","","","","","","","","","",""
"","S2","","html-keyboard-response","559","555215","0.0-1.0-778.0","0","0","77609","","null","","","null","86","","NaN","","","","","","","","","","","","","",""
"","response","","html-keyboard-response","560","555279","0.0-1.0-779.0-0.0","0","0","77609","","60","","","75","86","","","2","86","training","adjacent","EF","5","6","L.jpg","N.jpg","1","1","1","",""
"","feedback","","html-keyboard-response","561","556285","0.0-1.0-780.0-0.0","0","0","77609","","null","","","null","86","","","","","","","","","","","","","","","",""
"","ITI","","html-keyboard-response","562","557291","0.0-1.0-783.0","0","0","77609","","null","","","null","86","","","","","","","","","","","","","","","NaN",""
"","S1","","html-keyboard-response","563","557550","0.0-1.0-785.0","0","0","77609","","null","","","null","87","","","","","","","","","","","","","","","",""
"","ISI","","html-keyboard-response","564","558555","0.0-1.0-786.0","0","0","77609","","null","","","null","87","NaN","","","","","","","","","","","","","","",""
"","S2","","html-keyboard-response","565","558811","0.0-1.0-787.0","0","0","77609","","null","","","null","87","","NaN","","","","","","","","","","","","","",""
"","response","","html-keyboard-response","566","559199","0.0-1.0-788.0-0.0","0","0","77609","","383","","","68","87","","","2","87","training","adjacent","BA","2","1","M.jpg","O.jpg","0","0","1","",""
"","feedback","","html-keyboard-response","567","560206","0.0-1.0-789.0-0.0","0","0","77609","","null","","","null","87","","","","","","","","","","","","","","","",""
"","ITI","","html-keyboard-response","568","561211","0.0-1.0-792.0","0","0","77609","","null","","","null","87","","","","","","","","","","","","","","","NaN",""
"","S1","","html-keyboard-response","569","561467","0.0-1.0-794.0","0","0","77609","","null","","","null","88","","","","","","","","","","","","","","","",""
"","ISI","","html-keyboard-response","570","562472","0.0-1.0-795.0","0","0","77609","","null","","","null","88","NaN","","","","","","","","","","","","","","",""
"","S2","","html-keyboard-response","571","562727","0.0-1.0-796.0","0","0","77609","","null","","","null","88","","NaN","","","","","","","","","","","","","",""
"","response","","html-keyboard-response","572","562953","0.0-1.0-797.0-0.0","0","0","77609","","222","","","75","88","","","2","88","training","adjacent","CB","3","2","P.jpg","M.jpg","1","0","0","",""
"","feedback","","html-keyboard-response","573","563959","0.0-1.0-798.0-0.0","0","0","77609","","null","","","null","88","","","","","","","","","","","","","","","",""
"","time_out","","html-keyboard-response","574","565964","0.0-1.0-800.0-0.0","0","0","77609","","null","","","null","88","","","","","","","","","","","","","","","",""
"","ITI","","html-keyboard-response","575","566969","0.0-1.0-801.0","0","0","77609","","null","","","null","88","","","","","","","","","","","","","","","NaN",""
"","S1","","html-keyboard-response","576","567225","0.0-1.0-803.0","0","0","77609","","null","","","null","89","","","","","","","","","","","","","","","",""
"","ISI","","html-keyboard-response","577","568230","0.0-1.0-804.0","0","0","77609","","null","","","null","89","NaN","","","","","","","","","","","","","","",""
"","S2","","html-keyboard-response","578","568485","0.0-1.0-805.0","0","0","77609","","null","","","null","89","","NaN","","","","","","","","","","","","","",""
"","response","","html-keyboard-response","579","568872","0.0-1.0-806.0-0.0","0","0","77609","","383","","","75","89","","","2","89","training","adjacent","CD","3","4","P.jpg","R.jpg","1","1","1","",""
