"success","ttype","start_time","trial_type","trial_index","time_elapsed","internal_node_id","warning","missed_checkup","PID","view_history","rt","responses","repeat_instructions","key_press","index","keypress_isi","keypress_S2","block","trial_num","phase","group_type","pair_type","S1_stim","S2_stim","S1_img","S2_img","S1_chosen","S1_higher","accuracy","keypress_iti","total_bonus_tally"
"true","full_screen","d03042023hr0356","fullscreen","0","36814","0.0-0.0","0","0","94959","","","","","","","","","","","","","","","","","","","","","",""
"","instructions","","instructions","1","152297","0.0-1.0-0.0-0.0","0","0","94959","[{""page_index"":0,""viewing_time"":18508},{""page_index"":1,""viewing_time"":53533},{""page_index"":2,""viewing_time"":38522},{""page_index"":3,""viewing_time"":4892}]","115463","","","","","","","","","","","","","","","","","","","",""
"","comprehension_check","","survey-multi-choice","2","420096","0.0-1.0-0.0-1.0","0","0","94959","","267771","{""Q0"":""True"",""Q1"":""K"",""Q2"":""Once the second image appears and while the screen 'MAKE A CHOICE' is shown"",""Q3"":""Green mark"",""Q4"":""either D or K""}","0","","","","","","","","","","","","","","","","","",""
"","start_exp","","html-keyboard-response","3","423253","0.0-1.0-1.0","0","0","94959","","3148","","","32","","","","","","","","","","","","","","","","",""
"","S1","","html-keyboard-response","4","423511","0.0-1.0-2.0","0","0","94959","","null","","","null","0","","","","","","","","","","","","","","","",""
"","ISI","","html-keyboard-response","5","424016","0.0-1.0-3.0","0","0","94959","","null","","","null","0","NaN","","","","","","","","","","","","","","",""
"","S2","","html-keyboard-response","6","424273","0.0-1.0-4.0","0","0","94959","","null","","","null","0","","NaN","","","","","","","","","","","","","",""
"","response","","html-keyboard-response","7","426031","0.0-1.0-5.0-0.0","0","0","94959","","null","","","null","0","","","1","0","training","adjacent","CB","3","2","N.jpg","O.jpg","NaN","0","0","",""
"","too_slow_prompt","","html-keyboard-response","8","427037","0.0-1.0-7.0-0.0","1","0","94959","","null","","","null","","","","","","","","","","","","","","","","",""
"","time_out","","html-keyboard-response","9","429041","0.0-1.0-8.0-0.0","0","0","94959","","null","","","null","0","","","","","","","","","","","","","","","",""
"","ITI","","html-keyboard-response","10","430046","0.0-1.0-9.0","0","0","94959","","null","","","null","0","","","","","","","","","","","","","","","NaN",""
"","S1","","html-keyboard-response","11","430302","0.0-1.0-11.0","0","0","94959","","null","","","null","1","","","","","","","","","","","","","","","",""
"","ISI","","html-keyboard-response","12","430808","0.0-1.0-12.0","0","0","94959","","null","","","null","1","NaN","","","","","","","","","","","","","","",""
"","S2","","html-keyboard-response","13","431064","0.0-1.0-13.0","0","0","94959","","null","","","null","1","","NaN","","","","","","","","","","","","","",""
"","response","","html-keyboard-response","14","432002","0.0-1.0-14.0-0.0","0","0","94959","","933","","","75","1","","","1","1","training","adjacent","BC","2","3","O.jpg","N.jpg","1","1","1","",""
"","feedback","","html-keyboard-response","15","433011","0.0-1.0-15.0-0.0","0","0","94959","","null","","","null","1","","","","","","","","","","","","","","","",""
"","ITI","","html-keyboard-response","16","434017","0.0-1.0-18.0","0","0","94959","","null","","","null","1","","","","","","","","","","","","","","","NaN",""
"","S1","","html-keyboard-response","17","434271","0.0-1.0-20.0","0","0","94959","","null","","","null","2","","","","","","","","","","","","","","","",""
"","ISI","","html-keyboard-response","18","434777","0.0-1.0-21.0","0","0","94959","","null","","","null","2","NaN","","","","","","","","","","","","","","",""
"","S2","","html-keyboard-response","19","435031","0.0-1.0-22.0","0","0","94959","","null","","","null","2","","NaN","","","","","","","","","","","","","",""
"","response","","html-keyboard-response","20","436786","0.0-1.0-23.0-0.0","0","0","94959","","null","","","null","2","","","1","2","training","adjacent","CD","3","4","N.jpg","R.jpg","NaN","1","0","",""
"","too_slow_prompt","","html-keyboard-response","21","437791","0.0-1.0-25.0-0.0","1","0","94959","","null","","","null","","","","","","","","","","","","","","","","",""
"","time_out","","html-keyboard-response","22","439796","0.0-1.0-26.0-0.0","0","0","94959","","null","","","null","2","","","","","","","","","","","","","","","",""
"","ITI","","html-keyboard-response","23","440801","0.0-1.0-27.0","0","0","94959","","null","","","null","2","","","","","","","","","","","","","","","NaN",""
"","S1","","html-keyboard-response","24","441055","0.0-1.0-29.0","0","0","94959","","null","","","null","3","","","","","","","","","","","","","","","",""
"","ISI","","html-keyboard-response","25","441559","0.0-1.0-30.0","0","0","94959","","486","","","68","3","d","","","","","","","","","","","","","","",""
"","S2","","html-keyboard-response","26","441819","0.0-1.0-31.0","0","0","94959","","null","","","null","3","","NaN","","","","","","","","","","","","","",""
"","response","","html-keyboard-response","27","442858","0.0-1.0-32.0-0.0","0","0","94959","","1032","","","75","3","","","1","3","training","adjacent","ED","5","4","Q.jpg","R.jpg","1","0","0","",""
"","feedback","","html-keyboard-response","28","443864","0.0-1.0-33.0-0.0","0","0","94959","","null","","","null","3","","","","","","","","","","","","","","","",""
"","time_out","","html-keyboard-response","29","445872","0.0-1.0-35.0-0.0","0","0","94959","","null","","","null","3","","","","","","","","","","","","","","","",""
"","ITI","","html-keyboard-response","30","446878","0.0-1.0-36.0","0","0","94959","","null","","","null","3","","","","","","","","","","","","","","","NaN",""
"","S1","","html-keyboard-response","31","447135","0.0-1.0-38.0","0","0","94959","","null","","","null","4","","","","","","","","","","","","","","","",""
"","ISI","","html-keyboard-response","32","447639","0.0-1.0-39.0","0","0","94959","","null","","","null","4","NaN","","","","","","","","","","","","","","",""
"","S2","","html-keyboard-response","33","447896","0.0-1.0-40.0","0","0","94959","","null","","","null","4","","NaN","","","","","","","","","","","","","",""
"","response","","html-keyboard-response","34","448841","0.0-1.0-41.0-0.0","0","0","94959","","940","","","75","4","","","1","4","training","adjacent","CD","3","4","N.jpg","R.jpg","1","1","1","",""
"","feedback","","html-keyboard-response","35","449847","0.0-1.0-42.0-0.0","0","0","94959","","null","","","null","4","","","","","","","","","","","","","","","",""
"","ITI","","html-keyboard-response","36","450852","0.0-1.0-45.0","0","0","94959","","null","","","null","4","","","","","","","","","","","","","","","NaN",""
"","S1","","html-keyboard-response","37","451107","0.0-1.0-47.0","0","0","94959","","null","","","null","5","","","","","","","","","","","","","","","",""
"","ISI","","html-keyboard-response","38","451612","0.0-1.0-48.0","0","0","94959","","null","","","null","5","NaN","","","","","","","","","","","","","","",""
"","S2","","html-keyboard-response","39","451868","0.0-1.0-49.0","0","0","94959","","null","","","null","5","","NaN","","","","","","","","","","","","","",""
"","response","","html-keyboard-response","40","453562","0.0-1.0-50.0-0.0","0","0","94959","","1686","","","75","5","","","1","5","training","adjacent","AB","1","2","L.jpg","O.jpg","1","1","1","",""
"","feedback","","html-keyboard-response","41","454570","0.0-1.0-51.0-0.0","0","0","94959","","null","","","null","5","","","","","","","","","","","","","","","",""
"","ITI","","html-keyboard-response","42","455577","0.0-1.0-54.0","0","0","94959","","null","","","null","5","","","","","","","","","","","","","","","NaN",""
"","S1","","html-keyboard-response","43","455832","0.0-1.0-56.0","0","0","94959","","null","","","null","6","","","","","","","","","","","","","","","",""
"","ISI","","html-keyboard-response","44","456338","0.0-1.0-57.0","0","0","94959","","null","","","null","6","NaN","","","","","","","","","","","","","","",""
"","S2","","html-keyboard-response","45","456596","0.0-1.0-58.0","0","0","94959","","null","","","null","6","","NaN","","","","","","","","","","","","","",""
"","response","","html-keyboard-response","46","457707","0.0-1.0-59.0-0.0","0","0","94959","","1099","","","68","6","","","1","6","training","adjacent","CB","3","2","N.jpg","O.jpg","0","0","1","",""
"","feedback","","html-keyboard-response","47","458712","0.0-1.0-60.0-0.0","0","0","94959","","null","","","null","6","","","","","","","","","","","","","","","",""
"","ITI","","html-keyboard-response","48","459721","0.0-1.0-63.0","0","0","94959","","null","","","null","6","","","","","","","","","","","","","","","NaN",""
"","S1","","html-keyboard-response","49","459976","0.0-1.0-65.0","0","0","94959","","null","","","null","7","","","","","","","","","","","","","","","",""
"","ISI","","html-keyboard-response","50","460482","0.0-1.0-66.0","0","0","94959","","null","","","null","7","NaN","","","","","","","","","","","","","","",""
"","S2","","html-keyboard-response","51","460739","0.0-1.0-67.0","0","0","94959","","null","","","null","7","","NaN","","","","","","","","","","","","","",""
"","response","","html-keyboard-response","52","462336","0.0-1.0-68.0-0.0","0","0","94959","","1592","","","68","7","","","1","7","training","adjacent","EF","5","6","Q.jpg","M.jpg","0","1","0","",""
"","feedback","","html-keyboard-response","53","463339","0.0-1.0-69.0-0.0","0","0","94959","","null","","","null","7","","","","","","","","","","","","","","","",""
"","time_out","","html-keyboard-response","54","465345","0.0-1.0-71.0-0.0","0","0","94959","","null","","","null","7","","","","","","","","","","","","","","","",""
"","ITI","","html-keyboard-response","55","466350","0.0-1.0-72.0","0","0","94959","","null","","","null","7","","","","","","","","","","","","","","","NaN",""
"","S1","","html-keyboard-response","56","466606","0.0-1.0-74.0","0","0","94959","","null","","","null","8","","","","","","","","","","","","","","","",""
"","ISI","","html-keyboard-response","57","467110","0.0-1.0-75.0","0","0","94959","","null","","","null","8","NaN","","","","","","","","","","","","","","",""
"","S2","","html-keyboard-response","58","467364","0.0-1.0-76.0","0","0","94959","","null","","","null","8","","NaN","","","","","","","","","","","","","",""
"","response","","html-keyboard-response","59","468315","0.0-1.0-77.0-0.0","0","0","94959","","945","","","68","8","","","1","8","training","adjacent","DC","4","3","R.jpg","N.jpg","0","0","1","",""
"","feedback","","html-keyboard-response","60","469320","0.0-1.0-78.0-0.0","0","0","94959","","null","","","null","8","","","","","","","","","","","","","","","",""
"","ITI","","html-keyboard-response","61","470325","0.0-1.0-81.0","0","0","94959","","null","","","null","8","","","","","","","","","","","","","","","NaN",""
"","S1","","html-keyboard-response","62","470581","0.0-1.0-83.0","0","0","94959","","null","","","null","9","","","","","","","","","","","","","","","",""
"","ISI","","html-keyboard-response","63","471087","0.0-1.0-84.0","0","0","94959","","null","","","null","9","NaN","","","","","","","","","","","","","","",""
"","S2","","html-keyboard-response","64","471342","0.0-1.0-85.0","0","0","94959","","null","","","null","9","","NaN","","","","","","","","","","","","","",""
"","response","","html-keyboard-response","65","472023","0.0-1.0-86.0-0.0","0","0","94959","","674","","","75","9","","","1","9","training","adjacent","FE","6","5","M.jpg","Q.jpg","1","0","0","",""
"","feedback","","html-keyboard-response","66","473032","0.0-1.0-87.0-0.0","0","0","94959","","null","","","null","9","","","","","","","","","","","","","","","",""
"","time_out","","html-keyboard-response","67","475039","0.0-1.0-89.0-0.0","0","0","94959","","null","","","null","9","","","","","","","","","","","","","","","",""
"","ITI","","html-keyboard-response","68","476046","0.0-1.0-90.0","0","0","94959","","null","","","null","9","","","","","","","","","","","","","","","NaN",""
"","S1","","html-keyboard-response","69","476301","0.0-1.0-92.0","0","0","94959","","null","","","null","10","","","","","","","","","","","","","","","",""
"","ISI","","html-keyboard-response","70","476806","0.0-1.0-93.0","0","0","94959","","null","","","null","10","NaN","","","","","","","","","","","","","","",""
"","S2","","html-keyboard-response","71","477065","0.0-1.0-94.0","0","0","94959","","null","","","null","10","","NaN","","","","","","","","","","","","","",""
"","response","","html-keyboard-response","72","477924","0.0-1.0-95.0-0.0","0","0","94959","","853","","","75","10","","","1","10","training","adjacent","BC","2","3","O.jpg","N.jpg","1","1","1","",""
"","feedback","","html-keyboard-response","73","478931","0.0-1.0-96.0-0.0","0","0","94959","","null","","","null","10","","","","","","","","","","","","","","","",""
"","ITI","","html-keyboard-response","74","479937","0.0-1.0-99.0","0","0","94959","","null","","","null","10","","","","","","","","","","","","","","","NaN",""
"","S1","","html-keyboard-response","75","480191","0.0-1.0-101.0","0","0","94959","","null","","","null","11","","","","","","","","","","","","","","","",""
"","ISI","","html-keyboard-response","76","480693","0.0-1.0-102.0","0","0","94959","","null","","","null","11","NaN","","","","","","","","","","","","","","",""
"","S2","","html-keyboard-response","77","480949","0.0-1.0-103.0","0","0","94959","","null","","","null","11","","NaN","","","","","","","","","","","","","",""
"","response","","html-keyboard-response","78","481703","0.0-1.0-104.0-0.0","0","0","94959","","749","","","75","11","","","1","11","training","adjacent","FE","6","5","M.jpg","Q.jpg","1","0","0","",""
"","feedback","","html-keyboard-response","79","482707","0.0-1.0-105.0-0.0","0","0","94959","","null","","","null","11","","","","","","","","","","","","","","","",""
"","time_out","","html-keyboard-response","80","484714","0.0-1.0-107.0-0.0","0","0","94959","","null","","","null","11","","","","","","","","","","","","","","","",""
"","ITI","","html-keyboard-response","81","485722","0.0-1.0-108.0","0","0","94959","","null","","","null","11","","","","","","","","","","","","","","","NaN",""
"","S1","","html-keyboard-response","82","485979","0.0-1.0-110.0","0","0","94959","","null","","","null","12","","","","","","","","","","","","","","","",""
"","ISI","","html-keyboard-response","83","486485","0.0-1.0-111.0","0","0","94959","","null","","","null","12","NaN","","","","","","","","","","","","","","",""
"","S2","","html-keyboard-response","84","486742","0.0-1.0-112.0","0","0","94959","","null","","","null","12","","NaN","","","","","","","","","","","","","",""
"","response","","html-keyboard-response","85","487294","0.0-1.0-113.0-0.0","0","0","94959","","548","","","68","12","","","1","12","training","adjacent","ED","5","4","Q.jpg","R.jpg","0","0","1","",""
"","feedback","","html-keyboard-response","86","488303","0.0-1.0-114.0-0.0","0","0","94959","","null","","","null","12","","","","","","","","","","","","","","","",""
"","ITI","","html-keyboard-response","87","489310","0.0-1.0-117.0","0","0","94959","","null","","","null","12","","","","","","","","","","","","","","","NaN",""
"","S1","","html-keyboard-response","88","489566","0.0-1.0-119.0","0","0","94959","","null","","","null","13","","","","","","","","","","","","","","","",""
"","ISI","","html-keyboard-response","89","490070","0.0-1.0-120.0","0","0","94959","","null","","","null","13","NaN","","","","","","","","","","","","","","",""
"","S2","","html-keyboard-response","90","490327","0.0-1.0-121.0","0","0","94959","","null","","","null","13","","NaN","","","","","","","","","","","","","",""
"","response","","html-keyboard-response","91","491449","0.0-1.0-122.0-0.0","0","0","94959","","1116","","","75","13","","","1","13","training","adjacent","BA","2","1","O.jpg","L.jpg","1","0","0","",""
"","feedback","","html-keyboard-response","92","492456","0.0-1.0-123.0-0.0","0","0","94959","","null","","","null","13","","","","","","","","","","","","","","","",""
"","time_out","","html-keyboard-response","93","494462","0.0-1.0-125.0-0.0","0","0","94959","","null","","","null","13","","","","","","","","","","","","","","","",""
"","ITI","","html-keyboard-response","94","495466","0.0-1.0-126.0","0","0","94959","","null","","","null","13","","","","","","","","","","","","","","","NaN",""
"","S1","","html-keyboard-response","95","495719","0.0-1.0-128.0","0","0","94959","","null","","","null","14","","","","","","","","","","","","","","","",""
"","ISI","","html-keyboard-response","96","496222","0.0-1.0-129.0","0","0","94959","","null","","","null","14","NaN","","","","","","","","","","","","","","",""
"","S2","","html-keyboard-response","97","496476","0.0-1.0-130.0","0","0","94959","","null","","","null","14","","NaN","","","","","","","","","","","","","",""
"","response","","html-keyboard-response","98","496893","0.0-1.0-131.0-0.0","0","0","94959","","412","","","68","14","","","1","14","training","adjacent","BA","2","1","O.jpg","L.jpg","0","0","1","",""
"","feedback","","html-keyboard-response","99","497898","0.0-1.0-132.0-0.0","0","0","94959","","null","","","null","14","","","","","","","","","","","","","","","",""
"","ITI","","html-keyboard-response","100","498901","0.0-1.0-135.0","0","0","94959","","null","","","null","14","","","","","","","","","","","","","","","NaN",""
"","S1","","html-keyboard-response","101","499160","0.0-1.0-137.0","0","0","94959","","null","","","null","15","","","","","","","","","","","","","","","",""
"","ISI","","html-keyboard-response","102","499664","0.0-1.0-138.0","0","0","94959","","null","","","null","15","NaN","","","","","","","","","","","","","","",""
"","S2","","html-keyboard-response","103","499919","0.0-1.0-139.0","0","0","94959","","null","","","null","15","","NaN","","","","","","","","","","","","","",""
"","response","","html-keyboard-response","104","500696","0.0-1.0-140.0-0.0","0","0","94959","","770","","","68","15","","","1","15","training","adjacent","EF","5","6","Q.jpg","M.jpg","0","1","0","",""
"","feedback","","html-keyboard-response","105","501701","0.0-1.0-141.0-0.0","0","0","94959","","null","","","null","15","","","","","","","","","","","","","","","",""
"","time_out","","html-keyboard-response","106","503709","0.0-1.0-143.0-0.0","0","0","94959","","null","","","null","15","","","","","","","","","","","","","","","",""
"","ITI","","html-keyboard-response","107","504718","0.0-1.0-144.0","0","0","94959","","null","","","null","15","","","","","","","","","","","","","","","NaN",""
"","S1","","html-keyboard-response","108","504975","0.0-1.0-146.0","0","0","94959","","null","","","null","16","","","","","","","","","","","","","","","",""
"","ISI","","html-keyboard-response","109","505480","0.0-1.0-147.0","0","0","94959","","null","","","null","16","NaN","","","","","","","","","","","","","","",""
"","S2","","html-keyboard-response","110","505737","0.0-1.0-148.0","0","0","94959","","null","","","null","16","","NaN","","","","","","","","","","","","","",""
"","response","","html-keyboard-response","111","506465","0.0-1.0-149.0-0.0","0","0","94959","","723","","","75","16","","","1","16","training","adjacent","DE","4","5","R.jpg","Q.jpg","1","1","1","",""
"","feedback","","html-keyboard-response","112","507473","0.0-1.0-150.0-0.0","0","0","94959","","null","","","null","16","","","","","","","","","","","","","","","",""
"","ITI","","html-keyboard-response","113","508479","0.0-1.0-153.0","0","0","94959","","null","","","null","16","","","","","","","","","","","","","","","NaN",""
"","S1","","html-keyboard-response","114","508734","0.0-1.0-155.0","0","0","94959","","null","","","null","17","","","","","","","","","","","","","","","",""
"","ISI","","html-keyboard-response","115","509239","0.0-1.0-156.0","0","0","94959","","null","","","null","17","NaN","","","","","","","","","","","","","","",""
"","S2","","html-keyboard-response","116","509495","0.0-1.0-157.0","0","0","94959","","null","","","null","17","","NaN","","","","","","","","","","","","","",""
"","response","","html-keyboard-response","117","510184","0.0-1.0-158.0-0.0","0","0","94959","","684","","","75","17","","","1","17","training","adjacent","FE","6","5","M.jpg","Q.jpg","1","0","0","",""
"","feedback","","html-keyboard-response","118","511190","0.0-1.0-159.0-0.0","0","0","94959","","null","","","null","17","","","","","","","","","","","","","","","",""
"","time_out","","html-keyboard-response","119","513195","0.0-1.0-161.0-0.0","0","0","94959","","null","","","null","17","","","","","","","","","","","","","","","",""
"","ITI","","html-keyboard-response","120","514201","0.0-1.0-162.0","0","0","94959","","null","","","null","17","","","","","","","","","","","","","","","NaN",""
"","S1","","html-keyboard-response","121","514459","0.0-1.0-164.0","0","0","94959","","null","","","null","18","","","","","","","","","","","","","","","",""
"","ISI","","html-keyboard-response","122","514961","0.0-1.0-165.0","0","0","94959","","null","","","null","18","NaN","","","","","","","","","","","","","","",""
"","S2","","html-keyboard-response","123","515223","0.0-1.0-166.0","0","0","94959","","null","","","null","18","","NaN","","","","","","","","","","","","","",""
"","response","","html-keyboard-response","124","515883","0.0-1.0-167.0-0.0","0","0","94959","","655","","","68","18","","","1","18","training","adjacent","BA","2","1","O.jpg","L.jpg","0","0","1","",""
"","feedback","","html-keyboard-response","125","516892","0.0-1.0-168.0-0.0","0","0","94959","","null","","","null","18","","","","","","","","","","","","","","","",""
"","ITI","","html-keyboard-response","126","517896","0.0-1.0-171.0","0","0","94959","","null","","","null","18","","","","","","","","","","","","","","","NaN",""
"","S1","","html-keyboard-response","127","518150","0.0-1.0-173.0","0","0","94959","","null","","","null","19","","","","","","","","","","","","","","","",""
"","ISI","","html-keyboard-response","128","518657","0.0-1.0-174.0","0","0","94959","","null","","","null","19","NaN","","","","","","","","","","","","","","",""
"","S2","","html-keyboard-response","129","518916","0.0-1.0-175.0","0","0","94959","","null","","","null","19","","NaN","","","","","","","","","","","","","",""
"","response","","html-keyboard-response","130","519482","0.0-1.0-176.0-0.0","0","0","94959","","561","","","75","19","","","1","19","training","adjacent","FG","6","7","M.jpg","P.jpg","1","1","1","",""
"","feedback","","html-keyboard-response","131","520489","0.0-1.0-177.0-0.0","0","0","94959","","null","","","null","19","","","","","","","","","","","","","","","",""
"","ITI","","html-keyboard-response","132","521498","0.0-1.0-180.0","0","0","94959","","null","","","null","19","","","","","","","","","","","","","","","NaN",""
"","S1","","html-keyboard-response","133","521755","0.0-1.0-182.0","0","0","94959","","null","","","null","20","","","","","","","","","","","","","","","",""
"","ISI","","html-keyboard-response","134","522259","0.0-1.0-183.0","0","0","94959","","null","","","null","20","NaN","","","","","","","","","","","","","","",""
"","S2","","html-keyboard-response","135","522518","0.0-1.0-184.0","0","0","94959","","null","","","null","20","","NaN","","","","","","","","","","","","","",""
"","response","","html-keyboard-response","136","523344","0.0-1.0-185.0-0.0","0","0","94959","","822","","","75","20","","","1","20","training","adjacent","GF","7","6","P.jpg","M.jpg","1","0","0","",""
"","feedback","","html-keyboard-response","137","524350","0.0-1.0-186.0-0.0","0","0","94959","","null","","","null","20","","","","","","","","","","","","","","","",""
"","time_out","","html-keyboard-response","138","526353","0.0-1.0-188.0-0.0","0","0","94959","","null","","","null","20","","","","","","","","","","","","","","","",""
"","ITI","","html-keyboard-response","139","527359","0.0-1.0-189.0","0","0","94959","","null","","","null","20","","","","","","","","","","","","","","","NaN",""
"","S1","","html-keyboard-response","140","527615","0.0-1.0-191.0","0","0","94959","","null","","","null","21","","","","","","","","","","","","","","","",""
"","ISI","","html-keyboard-response","141","528123","0.0-1.0-192.0","0","0","94959","","null","","","null","21","NaN","","","","","","","","","","","","","","",""
"","S2","","html-keyboard-response","142","528380","0.0-1.0-193.0","0","0","94959","","null","","","null","21","","NaN","","","","","","","","","","","","","",""
"","response","","html-keyboard-response","143","528908","0.0-1.0-194.0-0.0","0","0","94959","","522","","","68","21","","","1","21","training","adjacent","CB","3","2","N.jpg","O.jpg","0","0","1","",""
"","feedback","","html-keyboard-response","144","529915","0.0-1.0-195.0-0.0","0","0","94959","","null","","","null","21","","","","","","","","","","","","","","","",""
"","ITI","","html-keyboard-response","145","530922","0.0-1.0-198.0","0","0","94959","","null","","","null","21","","","","","","","","","","","","","","","NaN",""
"","S1","","html-keyboard-response","146","531178","0.0-1.0-200.0","0","0","94959","","null","","","null","22","","","","","","","","","","","","","","","",""
"","ISI","","html-keyboard-response","147","531683","0.0-1.0-201.0","0","0","94959","","null","","","null","22","NaN","","","","","","","","","","","","","","",""
"","S2","","html-keyboard-response","148","531939","0.0-1.0-202.0","0","0","94959","","null","","","null","22","","NaN","","","","","","","","","","","","","",""
"","response","","html-keyboard-response","149","532545","0.0-1.0-203.0-0.0","0","0","94959","","601","","","75","22","","","1","22","training","adjacent","DE","4","5","R.jpg","Q.jpg","1","1","1","",""
"","feedback","","html-keyboard-response","150","533549","0.0-1.0-204.0-0.0","0","0","94959","","null","","","null","22","","","","","","","","","","","","","","","",""
"","ITI","","html-keyboard-response","151","534556","0.0-1.0-207.0","0","0","94959","","null","","","null","22","","","","","","","","","","","","","","","NaN",""
"","S1","","html-keyboard-response","152","534810","0.0-1.0-209.0","0","0","94959","","null","","","null","23","","","","","","","","","","","","","","","",""
"","ISI","","html-keyboard-response","153","535314","0.0-1.0-210.0","0","0","94959","","null","","","null","23","NaN","","","","","","","","","","","","","","",""
"","S2","","html-keyboard-response","154","535570","0.0-1.0-211.0","0","0","94959","","null","","","null","23","","NaN","","","","","","","","","","","","","",""
"","response","","html-keyboard-response","155","536236","0.0-1.0-212.0-0.0","0","0","94959","","662","","","68","23","","","1","23","training","adjacent","DC","4","3","R.jpg","N.jpg","0","0","1","",""
"","feedback","","html-keyboard-response","156","537243","0.0-1.0-213.0-0.0","0","0","94959","","null","","","null","23","","","","","","","","","","","","","","","",""
"","ITI","","html-keyboard-response","157","538248","0.0-1.0-216.0","0","0","94959","","null","","","null","23","","","","","","","","","","","","","","","NaN",""
"","S1","","html-keyboard-response","158","538502","0.0-1.0-218.0","0","0","94959","","null","","","null","24","","","","","","","","","","","","","","","",""
"","ISI","","html-keyboard-response","159","539007","0.0-1.0-219.0","0","0","94959","","null","","","null","24","NaN","","","","","","","","","","","","","","",""
"","S2","","html-keyboard-response","160","539262","0.0-1.0-220.0","0","0","94959","","null","","","null","24","","NaN","","","","","","","","","","","","","",""
"","response","","html-keyboard-response","161","539692","0.0-1.0-221.0-0.0","0","0","94959","","427","","","75","24","","","1","24","training","adjacent","GF","7","6","P.jpg","M.jpg","1","0","0","",""
"","feedback","","html-keyboard-response","162","540696","0.0-1.0-222.0-0.0","0","0","94959","","null","","","null","24","","","","","","","","","","","","","","","",""
"","time_out","","html-keyboard-response","163","542703","0.0-1.0-224.0-0.0","0","0","94959","","null","","","null","24","","","","","","","","","","","","","","","",""
"","ITI","","html-keyboard-response","164","543708","0.0-1.0-225.0","0","0","94959","","null","","","null","24","","","","","","","","","","","","","","","NaN",""
"","S1","","html-keyboard-response","165","543962","0.0-1.0-227.0","0","0","94959","","null","","","null","25","","","","","","","","","","","","","","","",""
"","ISI","","html-keyboard-response","166","544470","0.0-1.0-228.0","0","0","94959","","null","","","null","25","NaN","","","","","","","","","","","","","","",""
"","S2","","html-keyboard-response","167","544726","0.0-1.0-229.0","0","0","94959","","null","","","null","25","","NaN","","","","","","","","","","","","","",""
"","response","","html-keyboard-response","168","545513","0.0-1.0-230.0-0.0","0","0","94959","","783","","","75","25","","","1","25","training","adjacent","EF","5","6","Q.jpg","M.jpg","1","1","1","",""
"","feedback","","html-keyboard-response","169","546520","0.0-1.0-231.0-0.0","0","0","94959","","null","","","null","25","","","","","","","","","","","","","","","",""
"","ITI","","html-keyboard-response","170","547528","0.0-1.0-234.0","0","0","94959","","null","","","null","25","","","","","","","","","","","","","","","NaN",""
"","S1","","html-keyboard-response","171","547784","0.0-1.0-236.0","0","0","94959","","null","","","null","26","","","","","","","","","","","","","","","",""
"","ISI","","html-keyboard-response","172","548291","0.0-1.0-237.0","0","0","94959","","null","","","null","26","NaN","","","","","","","","","","","","","","",""
"","S2","","html-keyboard-response","173","548550","0.0-1.0-238.0","0","0","94959","","null","","","null","26","","NaN","","","","","","","","","","","","","",""
"","response","","html-keyboard-response","174","549149","0.0-1.0-239.0-0.0","0","0","94959","","590","","","68","26","","","1","26","training","adjacent","AB","1","2","L.jpg","O.jpg","0","1","0","",""
"","feedback","","html-keyboard-response","175","550156","0.0-1.0-240.0-0.0","0","0","94959","","null","","","null","26","","","","","","","","","","","","","","","",""
"","time_out","","html-keyboard-response","176","552163","0.0-1.0-242.0-0.0","0","0","94959","","null","","","null","26","","","","","","","","","","","","","","","",""
"","ITI","","html-keyboard-response","177","553170","0.0-1.0-243.0","0","0","94959","","null","","","null","26","","","","","","","","","","","","","","","NaN",""
"","S1","","html-keyboard-response","178","553425","0.0-1.0-245.0","0","0","94959","","null","","","null","27","","","","","","","","","","","","","","","",""
"","ISI","","html-keyboard-response","179","553928","0.0-1.0-246.0","0","0","94959","","null","","","null","27","NaN","","","","","","","","","","","","","","",""
"","S2","","html-keyboard-response","180","554076","0.0-1.0-247.0","0","0","94959","","145","","","75","27","","k","1","27","training","adjacent","BC","2","3","O.jpg","N.jpg","1","1","1","",""
"","feedback","","html-keyboard-response","181","555081","0.0-1.0-249.0-0.0","0","0","94959","","null","","","null","27","","","","","","","","","","","","","","","",""
"","ITI","","html-keyboard-response","182","556087","0.0-1.0-252.0","0","0","94959","","null","","","null","27","","","","","","","","","","","","","","","NaN",""
"","S1","","html-keyboard-response","183","556343","0.0-1.0-254.0","0","0","94959","","null","","","null","28","","","","","","","","","","","","","","","",""
"","ISI","","html-keyboard-response","184","556847","0.0-1.0-255.0","0","0","94959","","null","","","null","28","NaN","","","","","","","","","","","","","","",""
"","S2","","html-keyboard-response","185","557130","0.0-1.0-256.0","0","0","94959","","null","","","null","28","","NaN","","","","","","","","","","","","","",""
"","response","","html-keyboard-response","186","557603","0.0-1.0-257.0-0.0","0","0","94959","","468","","","75","28","","","1","28","training","adjacent","AB","1","2","L.jpg","O.jpg","1","1","1","",""
"","feedback","","html-keyboard-response","187","558608","0.0-1.0-258.0-0.0","0","0","94959","","null","","","null","28","","","","","","","","","","","","","","","",""
"","ITI","","html-keyboard-response","188","559615","0.0-1.0-261.0","0","0","94959","","null","","","null","28","","","","","","","","","","","","","","","NaN",""
"","S1","","html-keyboard-response","189","559873","0.0-1.0-263.0","0","0","94959","","null","","","null","29","","","","","","","","","","","","","","","",""
"","ISI","","html-keyboard-response","190","560376","0.0-1.0-264.0","0","0","94959","","null","","","null","29","NaN","","","","","","","","","","","","","","",""
"","S2","","html-keyboard-response","191","560631","0.0-1.0-265.0","0","0","94959","","null","","","null","29","","NaN","","","","","","","","","","","","","",""
"","response","","html-keyboard-response","192","560965","0.0-1.0-266.0-0.0","0","0","94959","","331","","","68","29","","","1","29","training","adjacent","GF","7","6","P.jpg","M.jpg","0","0","1","",""
"","feedback","","html-keyboard-response","193","561973","0.0-1.0-267.0-0.0","0","0","94959","","null","","","null","29","","","","","","","","","","","","","","","",""
"","ITI","","html-keyboard-response","194","562980","0.0-1.0-270.0","0","0","94959","","null","","","null","29","","","","","","","","","","","","","","","NaN",""
"","S1","","html-keyboard-response","195","563235","0.0-1.0-272.0","0","0","94959","","null","","","null","30","","","","","","","","","","","","","","","",""
"","ISI","","html-keyboard-response","196","563739","0.0-1.0-273.0","0","0","94959","","null","","","null","30","NaN","","","","","","","","","","","","","","",""
"","S2","","html-keyboard-response","197","563996","0.0-1.0-274.0","0","0","94959","","null","","","null","30","","NaN","","","","","","","","","","","","","",""
"","response","","html-keyboard-response","198","565164","0.0-1.0-275.0-0.0","0","0","94959","","1164","","","75","30","","","1","30","training","adjacent","FG","6","7","M.jpg","P.jpg","1","1","1","",""
"","feedback","","html-keyboard-response","199","566170","0.0-1.0-276.0-0.0","0","0","94959","","null","","","null","30","","","","","","","","","","","","","","","",""
"","ITI","","html-keyboard-response","200","567175","0.0-1.0-279.0","0","0","94959","","null","","","null","30","","","","","","","","","","","","","","","NaN",""
"","S1","","html-keyboard-response","201","567430","0.0-1.0-281.0","0","0","94959","","null","","","null","31","","","","","","","","","","","","","","","",""
"","ISI","","html-keyboard-response","202","567934","0.0-1.0-282.0","0","0","94959","","null","","","null","31","NaN","","","","","","","","","","","","","","",""
"","S2","","html-keyboard-response","203","568191","0.0-1.0-283.0","0","0","94959","","null","","","null","31","","NaN","","","","","","","","","","","","","",""
"","response","","html-keyboard-response","204","568860","0.0-1.0-284.0-0.0","0","0","94959","","658","","","68","31","","","1","31","training","adjacent","EF","5","6","Q.jpg","M.jpg","0","1","0","",""
"","feedback","","html-keyboard-response","205","569872","0.0-1.0-285.0-0.0","0","0","94959","","null","","","null","31","","","","","","","","","","","","","","","",""
"","time_out","","html-keyboard-response","206","571878","0.0-1.0-287.0-0.0","0","0","94959","","null","","","null","31","","","","","","","","","","","","","","","",""
"","ITI","","html-keyboard-response","207","572886","0.0-1.0-288.0","0","0","94959","","null","","","null","31","","","","","","","","","","","","","","","NaN",""
"","S1","","html-keyboard-response","208","573145","0.0-1.0-290.0","0","0","94959","","null","","","null","32","","","","","","","","","","","","","","","",""
"","ISI","","html-keyboard-response","209","573648","0.0-1.0-291.0","0","0","94959","","null","","","null","32","NaN","","","","","","","","","","","","","","",""
"","S2","","html-keyboard-response","210","573904","0.0-1.0-292.0","0","0","94959","","null","","","null","32","","NaN","","","","","","","","","","","","","",""
"","response","","html-keyboard-response","211","574317","0.0-1.0-293.0-0.0","0","0","94959","","408","","","75","32","","","1","32","training","adjacent","DE","4","5","R.jpg","Q.jpg","1","1","1","",""
"","feedback","","html-keyboard-response","212","575323","0.0-1.0-294.0-0.0","0","0","94959","","null","","","null","32","","","","","","","","","","","","","","","",""
"","ITI","","html-keyboard-response","213","576329","0.0-1.0-297.0","0","0","94959","","null","","","null","32","","","","","","","","","","","","","","","NaN",""
"","S1","","html-keyboard-response","214","576584","0.0-1.0-299.0","0","0","94959","","null","","","null","33","","","","","","","","","","","","","","","",""
"","ISI","","html-keyboard-response","215","577088","0.0-1.0-300.0","0","0","94959","","null","","","null","33","NaN","","","","","","","","","","","","","","",""
"","S2","","html-keyboard-response","216","577343","0.0-1.0-301.0","0","0","94959","","null","","","null","33","","NaN","","","","","","","","","","","","","",""
"","response","","html-keyboard-response","217","577929","0.0-1.0-302.0-0.0","0","0","94959","","580","","","68","33","","","1","33","training","adjacent","BA","2","1","O.jpg","L.jpg","0","0","1","",""
"","feedback","","html-keyboard-response","218","578937","0.0-1.0-303.0-0.0","0","0","94959","","null","","","null","33","","","","","","","","","","","","","","","",""
"","ITI","","html-keyboard-response","219","579944","0.0-1.0-306.0","0","0","94959","","null","","","null","33","","","","","","","","","","","","","","","NaN",""
"","S1","","html-keyboard-response","220","580202","0.0-1.0-308.0","0","0","94959","","null","","","null","34","","","","","","","","","","","","","","","",""
"","ISI","","html-keyboard-response","221","580707","0.0-1.0-309.0","0","0","94959","","null","","","null","34","NaN","","","","","","","","","","","","","","",""
"","S2","","html-keyboard-response","222","580961","0.0-1.0-310.0","0","0","94959","","null","","","null","34","","NaN","","","","","","","","","","","","","",""
"","response","","html-keyboard-response","223","581723","0.0-1.0-311.0-0.0","0","0","94959","","758","","","75","34","","","1","34","training","adjacent","DC","4","3","R.jpg","N.jpg","1","0","0","",""
"","feedback","","html-keyboard-response","224","582732","0.0-1.0-312.0-0.0","0","0","94959","","null","","","null","34","","","","","","","","","","","","","","","",""
"","time_out","","html-keyboard-response","225","584738","0.0-1.0-314.0-0.0","0","0","94959","","null","","","null","34","","","","","","","","","","","","","","","",""
"","ITI","","html-keyboard-response","226","585745","0.0-1.0-315.0","0","0","94959","","null","","","null","34","","","","","","","","","","","","","","","NaN",""
"","S1","","html-keyboard-response","227","586006","0.0-1.0-317.0","0","0","94959","","null","","","null","35","","","","","","","","","","","","","","","",""
"","ISI","","html-keyboard-response","228","586510","0.0-1.0-318.0","0","0","94959","","null","","","null","35","NaN","","","","","","","","","","","","","","",""
"","S2","","html-keyboard-response","229","586765","0.0-1.0-319.0","0","0","94959","","null","","","null","35","","NaN","","","","","","","","","","","","","",""
"","response","","html-keyboard-response","230","587258","0.0-1.0-320.0-0.0","0","0","94959","","489","","","68","35","","","1","35","training","adjacent","FG","6","7","M.jpg","P.jpg","0","1","0","",""
"","feedback","","html-keyboard-response","231","588265","0.0-1.0-321.0-0.0","0","0","94959","","null","","","null","35","","","","","","","","","","","","","","","",""
"","time_out","","html-keyboard-response","232","590271","0.0-1.0-323.0-0.0","0","0","94959","","null","","","null","35","","","","","","","","","","","","","","","",""
"","ITI","","html-keyboard-response","233","591275","0.0-1.0-324.0","0","0","94959","","null","","","null","35","","","","","","","","","","","","","","","NaN",""
"","S1","","html-keyboard-response","234","591528","0.0-1.0-326.0","0","0","94959","","null","","","null","36","","","","","","","","","","","","","","","",""
"","ISI","","html-keyboard-response","235","592031","0.0-1.0-327.0","0","0","94959","","466","","","75","36","k","","","","","","","","","","","","","","",""
"","S2","","html-keyboard-response","236","592287","0.0-1.0-328.0","0","0","94959","","null","","","null","36","","NaN","","","","","","","","","","","","","",""
"","response","","html-keyboard-response","237","593046","0.0-1.0-329.0-0.0","0","0","94959","","753","","","75","36","","","1","36","training","adjacent","CD","3","4","N.jpg","R.jpg","1","1","1","",""
"","feedback","","html-keyboard-response","238","594053","0.0-1.0-330.0-0.0","0","0","94959","","null","","","null","36","","","","","","","","","","","","","","","",""
"","ITI","","html-keyboard-response","239","595058","0.0-1.0-333.0","0","0","94959","","null","","","null","36","","","","","","","","","","","","","","","NaN",""
"","S1","","html-keyboard-response","240","595313","0.0-1.0-335.0","0","0","94959","","null","","","null","37","","","","","","","","","","","","","","","",""
"","ISI","","html-keyboard-response","241","595817","0.0-1.0-336.0","0","0","94959","","null","","","null","37","NaN","","","","","","","","","","","","","","",""
"","S2","","html-keyboard-response","242","596081","0.0-1.0-337.0","0","0","94959","","null","","","null","37","","NaN","","","","","","","","","","","","","",""
"","response","","html-keyboard-response","243","596588","0.0-1.0-338.0-0.0","0","0","94959","","502","","","75","37","","","1","37","training","adjacent","CD","3","4","N.jpg","R.jpg","1","1","1","",""
"","feedback","","html-keyboard-response","244","597597","0.0-1.0-339.0-0.0","0","0","94959","","null","","","null","37","","","","","","","","","","","","","","","",""
"","ITI","","html-keyboard-response","245","598604","0.0-1.0-342.0","0","0","94959","","null","","","null","37","","","","","","","","","","","","","","","NaN",""
"","S1","","html-keyboard-response","246","598862","0.0-1.0-344.0","0","0","94959","","null","","","null","38","","","","","","","","","","","","","","","",""
"","ISI","","html-keyboard-response","247","599370","0.0-1.0-345.0","0","0","94959","","null","","","null","38","NaN","","","","","","","","","","","","","","",""
"","S2","","html-keyboard-response","248","599628","0.0-1.0-346.0","0","0","94959","","null","","","null","38","","NaN","","","","","","","","","","","","","",""
"","response","","html-keyboard-response","249","600125","0.0-1.0-347.0-0.0","0","0","94959","","491","","","68","38","","","1","38","training","adjacent","BC","2","3","O.jpg","N.jpg","0","1","0","",""
"","feedback","","html-keyboard-response","250","601134","0.0-1.0-348.0-0.0","0","0","94959","","null","","","null","38","","","","","","","","","","","","","","","",""
"","time_out","","html-keyboard-response","251","603146","0.0-1.0-350.0-0.0","0","0","94959","","null","","","null","38","","","","","","","","","","","","","","","",""
"","ITI","","html-keyboard-response","252","604149","0.0-1.0-351.0","0","0","94959","","null","","","null","38","","","","","","","","","","","","","","","NaN",""
"","S1","","html-keyboard-response","253","604408","0.0-1.0-353.0","0","0","94959","","null","","","null","39","","","","","","","","","","","","","","","",""
"","ISI","","html-keyboard-response","254","604915","0.0-1.0-354.0","0","0","94959","","null","","","null","39","NaN","","","","","","","","","","","","","","",""
"","S2","","html-keyboard-response","255","605173","0.0-1.0-355.0","0","0","94959","","null","","","null","39","","NaN","","","","","","","","","","","","","",""
"","response","","html-keyboard-response","256","605647","0.0-1.0-356.0-0.0","0","0","94959","","469","","","75","39","","","1","39","training","adjacent","ED","5","4","Q.jpg","R.jpg","1","0","0","",""
"","feedback","","html-keyboard-response","257","606655","0.0-1.0-357.0-0.0","0","0","94959","","null","","","null","39","","","","","","","","","","","","","","","",""
"","time_out","","html-keyboard-response","258","608659","0.0-1.0-359.0-0.0","0","0","94959","","null","","","null","39","","","","","","","","","","","","","","","",""
"","ITI","","html-keyboard-response","259","609668","0.0-1.0-360.0","0","0","94959","","null","","","null","39","","","","","","","","","","","","","","","NaN",""
"","S1","","html-keyboard-response","260","609926","0.0-1.0-362.0","0","0","94959","","null","","","null","40","","","","","","","","","","","","","","","",""
"","ISI","","html-keyboard-response","261","610432","0.0-1.0-363.0","0","0","94959","","null","","","null","40","NaN","","","","","","","","","","","","","","",""
"","S2","","html-keyboard-response","262","610689","0.0-1.0-364.0","0","0","94959","","null","","","null","40","","NaN","","","","","","","","","","","","","",""
"","response","","html-keyboard-response","263","611107","0.0-1.0-365.0-0.0","0","0","94959","","413","","","68","40","","","1","40","training","adjacent","AB","1","2","L.jpg","O.jpg","0","1","0","",""
"","feedback","","html-keyboard-response","264","612115","0.0-1.0-366.0-0.0","0","0","94959","","null","","","null","40","","","","","","","","","","","","","","","",""
"","time_out","","html-keyboard-response","265","614121","0.0-1.0-368.0-0.0","0","0","94959","","null","","","null","40","","","","","","","","","","","","","","","",""
"","ITI","","html-keyboard-response","266","615128","0.0-1.0-369.0","0","0","94959","","null","","","null","40","","","","","","","","","","","","","","","NaN",""
"","S1","","html-keyboard-response","267","615382","0.0-1.0-371.0","0","0","94959","","null","","","null","41","","","","","","","","","","","","","","","",""
"","ISI","","html-keyboard-response","268","615888","0.0-1.0-372.0","0","0","94959","","480","","","75","41","k","","","","","","","","","","","","","","",""
"","S2","","html-keyboard-response","269","616144","0.0-1.0-373.0","0","0","94959","","null","","","null","41","","NaN","","","","","","","","","","","","","",""
"","response","","html-keyboard-response","270","616876","0.0-1.0-374.0-0.0","0","0","94959","","726","","","75","41","","","1","41","training","adjacent","GF","7","6","P.jpg","M.jpg","1","0","0","",""
"","feedback","","html-keyboard-response","271","617883","0.0-1.0-375.0-0.0","0","0","94959","","null","","","null","41","","","","","","","","","","","","","","","",""
"","time_out","","html-keyboard-response","272","619887","0.0-1.0-377.0-0.0","0","0","94959","","null","","","null","41","","","","","","","","","","","","","","","",""
"","ITI","","html-keyboard-response","273","620890","0.0-1.0-378.0","0","0","94959","","null","","","null","41","","","","","","","","","","","","","","","NaN",""
"","S1","","html-keyboard-response","274","621144","0.0-1.0-380.0","0","0","94959","","null","","","null","42","","","","","","","","","","","","","","","",""
"","ISI","","html-keyboard-response","275","621647","0.0-1.0-381.0","0","0","94959","","null","","","null","42","NaN","","","","","","","","","","","","","","",""
"","S2","","html-keyboard-response","276","621909","0.0-1.0-382.0","0","0","94959","","null","","","null","42","","NaN","","","","","","","","","","","","","",""
"","response","","html-keyboard-response","277","622296","0.0-1.0-383.0-0.0","0","0","94959","","382","","","68","42","","","1","42","training","adjacent","DC","4","3","R.jpg","N.jpg","0","0","1","",""
"","feedback","","html-keyboard-response","278","623308","0.0-1.0-384.0-0.0","0","0","94959","","null","","","null","42","","","","","","","","","","","","","","","",""
"","ITI","","html-keyboard-response","279","624315","0.0-1.0-387.0","0","0","94959","","null","","","null","42","","","","","","","","","","","","","","","NaN",""
"","S1","","html-keyboard-response","280","624573","0.0-1.0-389.0","0","0","94959","","null","","","null","43","","","","","","","","","","","","","","","",""
"","ISI","","html-keyboard-response","281","625080","0.0-1.0-390.0","0","0","94959","","null","","","null","43","NaN","","","","","","","","","","","","","","",""
"","S2","","html-keyboard-response","282","625342","0.0-1.0-391.0","0","0","94959","","null","","","null","43","","NaN","","","","","","","","","","","","","",""
"","response","","html-keyboard-response","283","626036","0.0-1.0-392.0-0.0","0","0","94959","","690","","","75","43","","","1","43","training","adjacent","FE","6","5","M.jpg","Q.jpg","1","0","0","",""
"","feedback","","html-keyboard-response","284","627047","0.0-1.0-393.0-0.0","0","0","94959","","null","","","null","43","","","","","","","","","","","","","","","",""
"","time_out","","html-keyboard-response","285","629054","0.0-1.0-395.0-0.0","0","0","94959","","null","","","null","43","","","","","","","","","","","","","","","",""
"","ITI","","html-keyboard-response","286","630060","0.0-1.0-396.0","0","0","94959","","null","","","null","43","","","","","","","","","","","","","","","NaN",""
"","S1","","html-keyboard-response","287","630317","0.0-1.0-398.0","0","0","94959","","null","","","null","44","","","","","","","","","","","","","","","",""
"","ISI","","html-keyboard-response","288","630820","0.0-1.0-399.0","0","0","94959","","null","","","null","44","NaN","","","","","","","","","","","","","","",""
"","S2","","html-keyboard-response","289","631075","0.0-1.0-400.0","0","0","94959","","null","","","null","44","","NaN","","","","","","","","","","","","","",""
"","response","","html-keyboard-response","290","631956","0.0-1.0-401.0-0.0","0","0","94959","","877","","","75","44","","","1","44","training","adjacent","FG","6","7","M.jpg","P.jpg","1","1","1","",""
"","feedback","","html-keyboard-response","291","632963","0.0-1.0-402.0-0.0","0","0","94959","","null","","","null","44","","","","","","","","","","","","","","","",""
"","ITI","","html-keyboard-response","292","633968","0.0-1.0-405.0","0","0","94959","","null","","","null","44","","","","","","","","","","","","","","","NaN",""
"","S1","","html-keyboard-response","293","634224","0.0-1.0-407.0","0","0","94959","","null","","","null","45","","","","","","","","","","","","","","","",""
"","ISI","","html-keyboard-response","294","634727","0.0-1.0-408.0","0","0","94959","","null","","","null","45","NaN","","","","","","","","","","","","","","",""
"","S2","","html-keyboard-response","295","634984","0.0-1.0-409.0","0","0","94959","","null","","","null","45","","NaN","","","","","","","","","","","","","",""
"","response","","html-keyboard-response","296","636282","0.0-1.0-410.0-0.0","0","0","94959","","1292","","","68","45","","","1","45","training","adjacent","ED","5","4","Q.jpg","R.jpg","0","0","1","",""
"","feedback","","html-keyboard-response","297","637291","0.0-1.0-411.0-0.0","0","0","94959","","null","","","null","45","","","","","","","","","","","","","","","",""
"","ITI","","html-keyboard-response","298","638298","0.0-1.0-414.0","0","0","94959","","null","","","null","45","","","","","","","","","","","","","","","NaN",""
"","S1","","html-keyboard-response","299","638554","0.0-1.0-416.0","0","0","94959","","null","","","null","46","","","","","","","","","","","","","","","",""
"","ISI","","html-keyboard-response","300","639059","0.0-1.0-417.0","0","0","94959","","null","","","null","46","NaN","","","","","","","","","","","","","","",""
"","S2","","html-keyboard-response","301","639313","0.0-1.0-418.0","0","0","94959","","null","","","null","46","","NaN","","","","","","","","","","","","","",""
"","response","","html-keyboard-response","302","640178","0.0-1.0-419.0-0.0","0","0","94959","","857","","","75","46","","","1","46","training","adjacent","DE","4","5","R.jpg","Q.jpg","1","1","1","",""
"","feedback","","html-keyboard-response","303","641182","0.0-1.0-420.0-0.0","0","0","94959","","null","","","null","46","","","","","","","","","","","","","","","",""
"","ITI","","html-keyboard-response","304","642192","0.0-1.0-423.0","0","0","94959","","null","","","null","46","","","","","","","","","","","","","","","NaN",""
"","S1","","html-keyboard-response","305","642451","0.0-1.0-425.0","0","0","94959","","null","","","null","47","","","","","","","","","","","","","","","",""
"","ISI","","html-keyboard-response","306","642958","0.0-1.0-426.0","0","0","94959","","null","","","null","47","NaN","","","","","","","","","","","","","","",""
"","S2","","html-keyboard-response","307","643213","0.0-1.0-427.0","0","0","94959","","null","","","null","47","","NaN","","","","","","","","","","","","","",""
"","response","","html-keyboard-response","308","643757","0.0-1.0-428.0-0.0","0","0","94959","","538","","","68","47","","","1","47","training","adjacent","CB","3","2","N.jpg","O.jpg","0","0","1","",""
"","feedback","","html-keyboard-response","309","644763","0.0-1.0-429.0-0.0","0","0","94959","","null","","","null","47","","","","","","","","","","","","","","","",""
"","ITI","","html-keyboard-response","310","645767","0.0-1.0-432.0","0","0","94959","","null","","","null","47","","","","","","","","","","","","","","","NaN",""
"","block_over","","html-keyboard-response","311","679239","0.0-1.0-433.0-0.0","0","0","94959","","33453","","","32","47","","","","","","","","","","","","","","","",""
"","S1","","html-keyboard-response","312","679500","0.0-1.0-434.0","0","0","94959","","null","","","null","48","","","","","","","","","","","","","","","",""
"","ISI","","html-keyboard-response","313","680006","0.0-1.0-435.0","0","0","94959","","null","","","null","48","NaN","","","","","","","","","","","","","","",""
"","S2","","html-keyboard-response","314","680263","0.0-1.0-436.0","0","0","94959","","null","","","null","48","","NaN","","","","","","","","","","","","","",""
"","response","","html-keyboard-response","315","682023","0.0-1.0-437.0-0.0","0","0","94959","","null","","","null","48","","","2","48","training","adjacent","FE","6","5","M.jpg","Q.jpg","NaN","0","0","",""
"","too_slow_prompt","","html-keyboard-response","316","683030","0.0-1.0-439.0-0.0","1","0","94959","","null","","","null","","","","","","","","","","","","","","","","",""
"","time_out","","html-keyboard-response","317","685038","0.0-1.0-440.0-0.0","0","0","94959","","null","","","null","48","","","","","","","","","","","","","","","",""
"","ITI","","html-keyboard-response","318","686044","0.0-1.0-441.0","0","0","94959","","null","","","null","48","","","","","","","","","","","","","","","NaN",""
"","S1","","html-keyboard-response","319","686301","0.0-1.0-443.0","0","0","94959","","null","","","null","49","","","","","","","","","","","","","","","",""
"","ISI","","html-keyboard-response","320","686805","0.0-1.0-444.0","0","0","94959","","null","","","null","49","NaN","","","","","","","","","","","","","","",""
"","S2","","html-keyboard-response","321","687069","0.0-1.0-445.0","0","0","94959","","null","","","null","49","","NaN","","","","","","","","","","","","","",""
"","response","","html-keyboard-response","322","687695","0.0-1.0-446.0-0.0","0","0","94959","","623","","","68","49","","","2","49","training","adjacent","BC","2","3","O.jpg","N.jpg","0","1","0","",""
"","feedback","","html-keyboard-response","323","688701","0.0-1.0-447.0-0.0","0","0","94959","","null","","","null","49","","","","","","","","","","","","","","","",""
"","time_out","","html-keyboard-response","324","690709","0.0-1.0-449.0-0.0","0","0","94959","","null","","","null","49","","","","","","","","","","","","","","","",""
"","ITI","","html-keyboard-response","325","691715","0.0-1.0-450.0","0","0","94959","","null","","","null","49","","","","","","","","","","","","","","","NaN",""
"","S1","","html-keyboard-response","326","691970","0.0-1.0-452.0","0","0","94959","","null","","","null","50","","","","","","","","","","","","","","","",""
"","ISI","","html-keyboard-response","327","692475","0.0-1.0-453.0","0","0","94959","","null","","","null","50","NaN","","","","","","","","","","","","","","",""
"","S2","","html-keyboard-response","328","692732","0.0-1.0-454.0","0","0","94959","","null","","","null","50","","NaN","","","","","","","","","","","","","",""
"","response","","html-keyboard-response","329","693919","0.0-1.0-455.0-0.0","0","0","94959","","1181","","","75","50","","","2","50","training","adjacent","DE","4","5","R.jpg","Q.jpg","1","1","1","",""
"","feedback","","html-keyboard-response","330","694923","0.0-1.0-456.0-0.0","0","0","94959","","null","","","null","50","","","","","","","","","","","","","","","",""
"","ITI","","html-keyboard-response","331","695931","0.0-1.0-459.0","0","0","94959","","null","","","null","50","","","","","","","","","","","","","","","NaN",""
"","S1","","html-keyboard-response","332","696188","0.0-1.0-461.0","0","0","94959","","null","","","null","51","","","","","","","","","","","","","","","",""
"","ISI","","html-keyboard-response","333","696697","0.0-1.0-462.0","0","0","94959","","null","","","null","51","NaN","","","","","","","","","","","","","","",""
"","S2","","html-keyboard-response","334","696955","0.0-1.0-463.0","0","0","94959","","null","","","null","51","","NaN","","","","","","","","","","","","","",""
"","response","","html-keyboard-response","335","697449","0.0-1.0-464.0-0.0","0","0","94959","","488","","","75","51","","","2","51","training","adjacent","AB","1","2","L.jpg","O.jpg","1","1","1","",""
"","feedback","","html-keyboard-response","336","698457","0.0-1.0-465.0-0.0","0","0","94959","","null","","","null","51","","","","","","","","","","","","","","","",""
"","ITI","","html-keyboard-response","337","699460","0.0-1.0-468.0","0","0","94959","","null","","","null","51","","","","","","","","","","","","","","","NaN",""
"","S1","","html-keyboard-response","338","699715","0.0-1.0-470.0","0","0","94959","","null","","","null","52","","","","","","","","","","","","","","","",""
"","ISI","","html-keyboard-response","339","700223","0.0-1.0-471.0","0","0","94959","","null","","","null","52","NaN","","","","","","","","","","","","","","",""
"","S2","","html-keyboard-response","340","700481","0.0-1.0-472.0","0","0","94959","","null","","","null","52","","NaN","","","","","","","","","","","","","",""
"","response","","html-keyboard-response","341","701143","0.0-1.0-473.0-0.0","0","0","94959","","659","","","68","52","","","2","52","training","adjacent","AB","1","2","L.jpg","O.jpg","0","1","0","",""
"","feedback","","html-keyboard-response","342","702151","0.0-1.0-474.0-0.0","0","0","94959","","null","","","null","52","","","","","","","","","","","","","","","",""
"","time_out","","html-keyboard-response","343","704158","0.0-1.0-476.0-0.0","0","0","94959","","null","","","null","52","","","","","","","","","","","","","","","",""
"","ITI","","html-keyboard-response","344","705166","0.0-1.0-477.0","0","0","94959","","null","","","null","52","","","","","","","","","","","","","","","NaN",""
"","S1","","html-keyboard-response","345","705421","0.0-1.0-479.0","0","0","94959","","null","","","null","53","","","","","","","","","","","","","","","",""
"","ISI","","html-keyboard-response","346","705925","0.0-1.0-480.0","0","0","94959","","null","","","null","53","NaN","","","","","","","","","","","","","","",""
"","S2","","html-keyboard-response","347","706180","0.0-1.0-481.0","0","0","94959","","null","","","null","53","","NaN","","","","","","","","","","","","","",""
"","response","","html-keyboard-response","348","706862","0.0-1.0-482.0-0.0","0","0","94959","","677","","","75","53","","","2","53","training","adjacent","BA","2","1","O.jpg","L.jpg","1","0","0","",""
"","feedback","","html-keyboard-response","349","707867","0.0-1.0-483.0-0.0","0","0","94959","","null","","","null","53","","","","","","","","","","","","","","","",""
"","time_out","","html-keyboard-response","350","709875","0.0-1.0-485.0-0.0","0","0","94959","","null","","","null","53","","","","","","","","","","","","","","","",""
"","ITI","","html-keyboard-response","351","710887","0.0-1.0-486.0","0","0","94959","","null","","","null","53","","","","","","","","","","","","","","","NaN",""
"","S1","","html-keyboard-response","352","711145","0.0-1.0-488.0","0","0","94959","","null","","","null","54","","","","","","","","","","","","","","","",""
"","ISI","","html-keyboard-response","353","711656","0.0-1.0-489.0","0","0","94959","","null","","","null","54","NaN","","","","","","","","","","","","","","",""
"","S2","","html-keyboard-response","354","711911","0.0-1.0-490.0","0","0","94959","","null","","","null","54","","NaN","","","","","","","","","","","","","",""
"","response","","html-keyboard-response","355","712513","0.0-1.0-491.0-0.0","0","0","94959","","594","","","68","54","","","2","54","training","adjacent","FE","6","5","M.jpg","Q.jpg","0","0","1","",""
"","feedback","","html-keyboard-response","356","713519","0.0-1.0-492.0-0.0","0","0","94959","","null","","","null","54","","","","","","","","","","","","","","","",""
"","ITI","","html-keyboard-response","357","714525","0.0-1.0-495.0","0","0","94959","","null","","","null","54","","","","","","","","","","","","","","","NaN",""
"","S1","","html-keyboard-response","358","714780","0.0-1.0-497.0","0","0","94959","","null","","","null","55","","","","","","","","","","","","","","","",""
"","ISI","","html-keyboard-response","359","715288","0.0-1.0-498.0","0","0","94959","","null","","","null","55","NaN","","","","","","","","","","","","","","",""
"","S2","","html-keyboard-response","360","715545","0.0-1.0-499.0","0","0","94959","","null","","","null","55","","NaN","","","","","","","","","","","","","",""
"","response","","html-keyboard-response","361","716288","0.0-1.0-500.0-0.0","0","0","94959","","739","","","75","55","","","2","55","training","adjacent","CB","3","2","N.jpg","O.jpg","1","0","0","",""
"","feedback","","html-keyboard-response","362","717293","0.0-1.0-501.0-0.0","0","0","94959","","null","","","null","55","","","","","","","","","","","","","","","",""
"","time_out","","html-keyboard-response","363","719298","0.0-1.0-503.0-0.0","0","0","94959","","null","","","null","55","","","","","","","","","","","","","","","",""
"","ITI","","html-keyboard-response","364","720305","0.0-1.0-504.0","0","0","94959","","null","","","null","55","","","","","","","","","","","","","","","NaN",""
"","S1","","html-keyboard-response","365","720562","0.0-1.0-506.0","0","0","94959","","null","","","null","56","","","","","","","","","","","","","","","",""
"","ISI","","html-keyboard-response","366","721066","0.0-1.0-507.0","0","0","94959","","413","","","68","56","d","","","","","","","","","","","","","","",""
"","S2","","html-keyboard-response","367","721324","0.0-1.0-508.0","0","0","94959","","null","","","null","56","","NaN","","","","","","","","","","","","","",""
"","response","","html-keyboard-response","368","722351","0.0-1.0-509.0-0.0","0","0","94959","","1020","","","68","56","","","2","56","training","adjacent","FG","6","7","M.jpg","P.jpg","0","1","0","",""
"","feedback","","html-keyboard-response","369","723359","0.0-1.0-510.0-0.0","0","0","94959","","null","","","null","56","","","","","","","","","","","","","","","",""
"","time_out","","html-keyboard-response","370","725365","0.0-1.0-512.0-0.0","0","0","94959","","null","","","null","56","","","","","","","","","","","","","","","",""
"","ITI","","html-keyboard-response","371","726372","0.0-1.0-513.0","0","0","94959","","16","","","75","56","","","","","","","","","","","","","","","k",""
"","S1","","html-keyboard-response","372","726630","0.0-1.0-515.0","0","0","94959","","null","","","null","57","","","","","","","","","","","","","","","",""
"","ISI","","html-keyboard-response","373","727135","0.0-1.0-516.0","0","0","94959","","254","","","75","57","k","","","","","","","","","","","","","","",""
"","S2","","html-keyboard-response","374","727392","0.0-1.0-517.0","0","0","94959","","null","","","null","57","","NaN","","","","","","","","","","","","","",""
"","response","","html-keyboard-response","375","727727","0.0-1.0-518.0-0.0","0","0","94959","","330","","","75","57","","","2","57","training","adjacent","BC","2","3","O.jpg","N.jpg","1","1","1","",""
"","feedback","","html-keyboard-response","376","728732","0.0-1.0-519.0-0.0","0","0","94959","","null","","","null","57","","","","","","","","","","","","","","","",""
"","ITI","","html-keyboard-response","377","729736","0.0-1.0-522.0","0","0","94959","","null","","","null","57","","","","","","","","","","","","","","","NaN",""
"","S1","","html-keyboard-response","378","729991","0.0-1.0-524.0","0","0","94959","","null","","","null","58","","","","","","","","","","","","","","","",""
"","ISI","","html-keyboard-response","379","730495","0.0-1.0-525.0","0","0","94959","","null","","","null","58","NaN","","","","","","","","","","","","","","",""
"","S2","","html-keyboard-response","380","730751","0.0-1.0-526.0","0","0","94959","","null","","","null","58","","NaN","","","","","","","","","","","","","",""
"","response","","html-keyboard-response","381","731431","0.0-1.0-527.0-0.0","0","0","94959","","676","","","75","58","","","2","58","training","adjacent","DC","4","3","R.jpg","N.jpg","1","0","0","",""
"","feedback","","html-keyboard-response","382","732438","0.0-1.0-528.0-0.0","0","0","94959","","null","","","null","58","","","","","","","","","","","","","","","",""
"","time_out","","html-keyboard-response","383","734443","0.0-1.0-530.0-0.0","0","0","94959","","null","","","null","58","","","","","","","","","","","","","","","",""
"","ITI","","html-keyboard-response","384","735450","0.0-1.0-531.0","0","0","94959","","null","","","null","58","","","","","","","","","","","","","","","NaN",""
"","S1","","html-keyboard-response","385","735708","0.0-1.0-533.0","0","0","94959","","null","","","null","59","","","","","","","","","","","","","","","",""
"","ISI","","html-keyboard-response","386","736216","0.0-1.0-534.0","0","0","94959","","null","","","null","59","NaN","","","","","","","","","","","","","","",""
"","S2","","html-keyboard-response","387","736473","0.0-1.0-535.0","0","0","94959","","null","","","null","59","","NaN","","","","","","","","","","","","","",""
"","response","","html-keyboard-response","388","738231","0.0-1.0-536.0-0.0","0","0","94959","","null","","","null","59","","","2","59","training","adjacent","FG","6","7","M.jpg","P.jpg","NaN","1","0","",""
"","too_slow_prompt","","html-keyboard-response","389","739240","0.0-1.0-538.0-0.0","1","0","94959","","null","","","null","","","","","","","","","","","","","","","","",""
"","time_out","","html-keyboard-response","390","741248","0.0-1.0-539.0-0.0","0","0","94959","","null","","","null","59","","","","","","","","","","","","","","","",""
"","ITI","","html-keyboard-response","391","742252","0.0-1.0-540.0","0","0","94959","","null","","","null","59","","","","","","","","","","","","","","","NaN",""
"","S1","","html-keyboard-response","392","742508","0.0-1.0-542.0","0","0","94959","","null","","","null","60","","","","","","","","","","","","","","","",""
"","ISI","","html-keyboard-response","393","743012","0.0-1.0-543.0","0","0","94959","","null","","","null","60","NaN","","","","","","","","","","","","","","",""
"","S2","","html-keyboard-response","394","743268","0.0-1.0-544.0","0","0","94959","","null","","","null","60","","NaN","","","","","","","","","","","","","",""
"","response","","html-keyboard-response","395","744291","0.0-1.0-545.0-0.0","0","0","94959","","1017","","","68","60","","","2","60","training","adjacent","DE","4","5","R.jpg","Q.jpg","0","1","0","",""
"","feedback","","html-keyboard-response","396","745299","0.0-1.0-546.0-0.0","0","0","94959","","null","","","null","60","","","","","","","","","","","","","","","",""
"","time_out","","html-keyboard-response","397","747307","0.0-1.0-548.0-0.0","0","0","94959","","null","","","null","60","","","","","","","","","","","","","","","",""
"","ITI","","html-keyboard-response","398","748311","0.0-1.0-549.0","0","0","94959","","null","","","null","60","","","","","","","","","","","","","","","NaN",""
"","S1","","html-keyboard-response","399","748568","0.0-1.0-551.0","0","0","94959","","null","","","null","61","","","","","","","","","","","","","","","",""
"","ISI","","html-keyboard-response","400","749073","0.0-1.0-552.0","0","0","94959","","null","","","null","61","NaN","","","","","","","","","","","","","","",""
"","S2","","html-keyboard-response","401","749329","0.0-1.0-553.0","0","0","94959","","null","","","null","61","","NaN","","","","","","","","","","","","","",""
"","response","","html-keyboard-response","402","750101","0.0-1.0-554.0-0.0","0","0","94959","","766","","","75","61","","","2","61","training","adjacent","GF","7","6","P.jpg","M.jpg","1","0","0","",""
"","feedback","","html-keyboard-response","403","751120","0.0-1.0-555.0-0.0","0","0","94959","","null","","","null","61","","","","","","","","","","","","","","","",""
"","time_out","","html-keyboard-response","404","753131","0.0-1.0-557.0-0.0","0","0","94959","","null","","","null","61","","","","","","","","","","","","","","","",""
"","ITI","","html-keyboard-response","405","754140","0.0-1.0-558.0","0","0","94959","","null","","","null","61","","","","","","","","","","","","","","","NaN",""
"","S1","","html-keyboard-response","406","754399","0.0-1.0-560.0","0","0","94959","","null","","","null","62","","","","","","","","","","","","","","","",""
"","ISI","","html-keyboard-response","407","754907","0.0-1.0-561.0","0","0","94959","","null","","","null","62","NaN","","","","","","","","","","","","","","",""
"","S2","","html-keyboard-response","408","755172","0.0-1.0-562.0","0","0","94959","","null","","","null","62","","NaN","","","","","","","","","","","","","",""
"","response","","html-keyboard-response","409","755701","0.0-1.0-563.0-0.0","0","0","94959","","522","","","68","62","","","2","62","training","adjacent","ED","5","4","Q.jpg","R.jpg","0","0","1","",""
"","feedback","","html-keyboard-response","410","756708","0.0-1.0-564.0-0.0","0","0","94959","","null","","","null","62","","","","","","","","","","","","","","","",""
"","ITI","","html-keyboard-response","411","757713","0.0-1.0-567.0","0","0","94959","","null","","","null","62","","","","","","","","","","","","","","","NaN",""
"","S1","","html-keyboard-response","412","757968","0.0-1.0-569.0","0","0","94959","","null","","","null","63","","","","","","","","","","","","","","","",""
"","ISI","","html-keyboard-response","413","758473","0.0-1.0-570.0","0","0","94959","","null","","","null","63","NaN","","","","","","","","","","","","","","",""
"","S2","","html-keyboard-response","414","758730","0.0-1.0-571.0","0","0","94959","","null","","","null","63","","NaN","","","","","","","","","","","","","",""
"","response","","html-keyboard-response","415","759600","0.0-1.0-572.0-0.0","0","0","94959","","860","","","75","63","","","2","63","training","adjacent","DC","4","3","R.jpg","N.jpg","1","0","0","",""
"","feedback","","html-keyboard-response","416","760605","0.0-1.0-573.0-0.0","0","0","94959","","null","","","null","63","","","","","","","","","","","","","","","",""
"","time_out","","html-keyboard-response","417","762611","0.0-1.0-575.0-0.0","0","0","94959","","null","","","null","63","","","","","","","","","","","","","","","",""
"","ITI","","html-keyboard-response","418","763619","0.0-1.0-576.0","0","0","94959","","null","","","null","63","","","","","","","","","","","","","","","NaN",""
"","S1","","html-keyboard-response","419","763875","0.0-1.0-578.0","0","0","94959","","null","","","null","64","","","","","","","","","","","","","","","",""
"","ISI","","html-keyboard-response","420","764382","0.0-1.0-579.0","0","0","94959","","null","","","null","64","NaN","","","","","","","","","","","","","","",""
"","S2","","html-keyboard-response","421","764641","0.0-1.0-580.0","0","0","94959","","null","","","null","64","","NaN","","","","","","","","","","","","","",""
"","response","","html-keyboard-response","422","765192","0.0-1.0-581.0-0.0","0","0","94959","","546","","","68","64","","","2","64","training","adjacent","CB","3","2","N.jpg","O.jpg","0","0","1","",""
"","feedback","","html-keyboard-response","423","766201","0.0-1.0-582.0-0.0","0","0","94959","","null","","","null","64","","","","","","","","","","","","","","","",""
"","ITI","","html-keyboard-response","424","767214","0.0-1.0-585.0","0","0","94959","","null","","","null","64","","","","","","","","","","","","","","","NaN",""
"","S1","","html-keyboard-response","425","767473","0.0-1.0-587.0","0","0","94959","","null","","","null","65","","","","","","","","","","","","","","","",""
"","ISI","","html-keyboard-response","426","767979","0.0-1.0-588.0","0","0","94959","","null","","","null","65","NaN","","","","","","","","","","","","","","",""
"","S2","","html-keyboard-response","427","768236","0.0-1.0-589.0","0","0","94959","","null","","","null","65","","NaN","","","","","","","","","","","","","",""
"","response","","html-keyboard-response","428","769149","0.0-1.0-590.0-0.0","0","0","94959","","909","","","75","65","","","2","65","training","adjacent","FG","6","7","M.jpg","P.jpg","1","1","1","",""
"","feedback","","html-keyboard-response","429","770157","0.0-1.0-591.0-0.0","0","0","94959","","null","","","null","65","","","","","","","","","","","","","","","",""
"","ITI","","html-keyboard-response","430","771165","0.0-1.0-594.0","0","0","94959","","null","","","null","65","","","","","","","","","","","","","","","NaN",""
"","S1","","html-keyboard-response","431","771422","0.0-1.0-596.0","0","0","94959","","null","","","null","66","","","","","","","","","","","","","","","",""
"","ISI","","html-keyboard-response","432","771927","0.0-1.0-597.0","0","0","94959","","null","","","null","66","NaN","","","","","","","","","","","","","","",""
"","S2","","html-keyboard-response","433","772184","0.0-1.0-598.0","0","0","94959","","null","","","null","66","","NaN","","","","","","","","","","","","","",""
"","response","","html-keyboard-response","434","773240","0.0-1.0-599.0-0.0","0","0","94959","","1051","","","68","66","","","2","66","training","adjacent","GF","7","6","P.jpg","M.jpg","0","0","1","",""
"","feedback","","html-keyboard-response","435","774244","0.0-1.0-600.0-0.0","0","0","94959","","null","","","null","66","","","","","","","","","","","","","","","",""
"","ITI","","html-keyboard-response","436","775249","0.0-1.0-603.0","0","0","94959","","null","","","null","66","","","","","","","","","","","","","","","NaN",""
"","S1","","html-keyboard-response","437","775505","0.0-1.0-605.0","0","0","94959","","null","","","null","67","","","","","","","","","","","","","","","",""
"","ISI","","html-keyboard-response","438","776012","0.0-1.0-606.0","0","0","94959","","null","","","null","67","NaN","","","","","","","","","","","","","","",""
"","S2","","html-keyboard-response","439","776265","0.0-1.0-607.0","0","0","94959","","null","","","null","67","","NaN","","","","","","","","","","","","","",""
"","response","","html-keyboard-response","440","776777","0.0-1.0-608.0-0.0","0","0","94959","","507","","","75","67","","","2","67","training","adjacent","DC","4","3","R.jpg","N.jpg","1","0","0","",""
"","feedback","","html-keyboard-response","441","777785","0.0-1.0-609.0-0.0","0","0","94959","","null","","","null","67","","","","","","","","","","","","","","","",""
"","time_out","","html-keyboard-response","442","779803","0.0-1.0-611.0-0.0","0","0","94959","","null","","","null","67","","","","","","","","","","","","","","","",""
"","ITI","","html-keyboard-response","443","780811","0.0-1.0-612.0","0","0","94959","","null","","","null","67","","","","","","","","","","","","","","","NaN",""
"","S1","","html-keyboard-response","444","781065","0.0-1.0-614.0","0","0","94959","","null","","","null","68","","","","","","","","","","","","","","","",""
"","ISI","","html-keyboard-response","445","781572","0.0-1.0-615.0","0","0","94959","","null","","","null","68","NaN","","","","","","","","","","","","","","",""
"","S2","","html-keyboard-response","446","781642","0.0-1.0-616.0","0","0","94959","","62","","","68","68","","d","2","68","training","adjacent","EF","5","6","Q.jpg","M.jpg","0","1","0","",""
"","feedback","","html-keyboard-response","447","782650","0.0-1.0-618.0-0.0","0","0","94959","","null","","","null","68","","","","","","","","","","","","","","","",""
"","time_out","","html-keyboard-response","448","784658","0.0-1.0-620.0-0.0","0","0","94959","","null","","","null","68","","","","","","","","","","","","","","","",""
"","ITI","","html-keyboard-response","449","785664","0.0-1.0-621.0","0","0","94959","","null","","","null","68","","","","","","","","","","","","","","","NaN",""
"","S1","","html-keyboard-response","450","785919","0.0-1.0-623.0","0","0","94959","","null","","","null","69","","","","","","","","","","","","","","","",""
"","ISI","","html-keyboard-response","451","786423","0.0-1.0-624.0","0","0","94959","","null","","","null","69","NaN","","","","","","","","","","","","","","",""
"","S2","","html-keyboard-response","452","786680","0.0-1.0-625.0","0","0","94959","","null","","","null","69","","NaN","","","","","","","","","","","","","",""
"","response","","html-keyboard-response","453","787033","0.0-1.0-626.0-0.0","0","0","94959","","346","","","75","69","","","2","69","training","adjacent","DE","4","5","R.jpg","Q.jpg","1","1","1","",""
"","feedback","","html-keyboard-response","454","788038","0.0-1.0-627.0-0.0","0","0","94959","","null","","","null","69","","","","","","","","","","","","","","","",""
"","ITI","","html-keyboard-response","455","789048","0.0-1.0-630.0","0","0","94959","","null","","","null","69","","","","","","","","","","","","","","","NaN",""
"","S1","","html-keyboard-response","456","789303","0.0-1.0-632.0","0","0","94959","","null","","","null","70","","","","","","","","","","","","","","","",""
"","ISI","","html-keyboard-response","457","789808","0.0-1.0-633.0","0","0","94959","","null","","","null","70","NaN","","","","","","","","","","","","","","",""
"","S2","","html-keyboard-response","458","790069","0.0-1.0-634.0","0","0","94959","","null","","","null","70","","NaN","","","","","","","","","","","","","",""
"","response","","html-keyboard-response","459","790738","0.0-1.0-635.0-0.0","0","0","94959","","664","","","68","70","","","2","70","training","adjacent","FG","6","7","M.jpg","P.jpg","0","1","0","",""
"","feedback","","html-keyboard-response","460","791743","0.0-1.0-636.0-0.0","0","0","94959","","null","","","null","70","","","","","","","","","","","","","","","",""
"","time_out","","html-keyboard-response","461","793751","0.0-1.0-638.0-0.0","0","0","94959","","null","","","null","70","","","","","","","","","","","","","","","",""
"","ITI","","html-keyboard-response","462","794758","0.0-1.0-639.0","0","0","94959","","null","","","null","70","","","","","","","","","","","","","","","NaN",""
"","S1","","html-keyboard-response","463","795014","0.0-1.0-641.0","0","0","94959","","null","","","null","71","","","","","","","","","","","","","","","",""
"","ISI","","html-keyboard-response","464","795519","0.0-1.0-642.0","0","0","94959","","null","","","null","71","NaN","","","","","","","","","","","","","","",""
"","S2","","html-keyboard-response","465","795531","0.0-1.0-643.0","0","0","94959","","6","","","75","71","","k","2","71","training","adjacent","AB","1","2","L.jpg","O.jpg","1","1","1","",""
"","feedback","","html-keyboard-response","466","796537","0.0-1.0-645.0-0.0","0","0","94959","","null","","","null","71","","","","","","","","","","","","","","","",""
"","ITI","","html-keyboard-response","467","797547","0.0-1.0-648.0","0","0","94959","","null","","","null","71","","","","","","","","","","","","","","","NaN",""
"","S1","","html-keyboard-response","468","797803","0.0-1.0-650.0","0","0","94959","","null","","","null","72","","","","","","","","","","","","","","","",""
"","ISI","","html-keyboard-response","469","798308","0.0-1.0-651.0","0","0","94959","","null","","","null","72","NaN","","","","","","","","","","","","","","",""
"","S2","","html-keyboard-response","470","798565","0.0-1.0-652.0","0","0","94959","","null","","","null","72","","NaN","","","","","","","","","","","","","",""
"","response","","html-keyboard-response","471","800070","0.0-1.0-653.0-0.0","0","0","94959","","1499","","","75","72","","","2","72","training","adjacent","BC","2","3","O.jpg","N.jpg","1","1","1","",""
"","feedback","","html-keyboard-response","472","801074","0.0-1.0-654.0-0.0","0","0","94959","","null","","","null","72","","","","","","","","","","","","","","","",""
"","ITI","","html-keyboard-response","473","802079","0.0-1.0-657.0","0","0","94959","","null","","","null","72","","","","","","","","","","","","","","","NaN",""
"","S1","","html-keyboard-response","474","802336","0.0-1.0-659.0","0","0","94959","","null","","","null","73","","","","","","","","","","","","","","","",""
"","ISI","","html-keyboard-response","475","802840","0.0-1.0-660.0","0","0","94959","","null","","","null","73","NaN","","","","","","","","","","","","","","",""
"","S2","","html-keyboard-response","476","803099","0.0-1.0-661.0","0","0","94959","","null","","","null","73","","NaN","","","","","","","","","","","","","",""
"","response","","html-keyboard-response","477","804374","0.0-1.0-662.0-0.0","0","0","94959","","1267","","","68","73","","","2","73","training","adjacent","FE","6","5","M.jpg","Q.jpg","0","0","1","",""
"","feedback","","html-keyboard-response","478","805387","0.0-1.0-663.0-0.0","0","0","94959","","null","","","null","73","","","","","","","","","","","","","","","",""
"","ITI","","html-keyboard-response","479","806399","0.0-1.0-666.0","0","0","94959","","null","","","null","73","","","","","","","","","","","","","","","NaN",""
"","S1","","html-keyboard-response","480","806655","0.0-1.0-668.0","0","0","94959","","null","","","null","74","","","","","","","","","","","","","","","",""
"","ISI","","html-keyboard-response","481","807161","0.0-1.0-669.0","0","0","94959","","null","","","null","74","NaN","","","","","","","","","","","","","","",""
"","S2","","html-keyboard-response","482","807418","0.0-1.0-670.0","0","0","94959","","null","","","null","74","","NaN","","","","","","","","","","","","","",""
"","response","","html-keyboard-response","483","808299","0.0-1.0-671.0-0.0","0","0","94959","","873","","","68","74","","","2","74","training","adjacent","CD","3","4","N.jpg","R.jpg","0","1","0","",""
"","feedback","","html-keyboard-response","484","809305","0.0-1.0-672.0-0.0","0","0","94959","","null","","","null","74","","","","","","","","","","","","","","","",""
"","time_out","","html-keyboard-response","485","811315","0.0-1.0-674.0-0.0","0","0","94959","","null","","","null","74","","","","","","","","","","","","","","","",""
"","ITI","","html-keyboard-response","486","812323","0.0-1.0-675.0","0","0","94959","","null","","","null","74","","","","","","","","","","","","","","","NaN",""
"","S1","","html-keyboard-response","487","812585","0.0-1.0-677.0","0","0","94959","","null","","","null","75","","","","","","","","","","","","","","","",""
"","ISI","","html-keyboard-response","488","813089","0.0-1.0-678.0","0","0","94959","","null","","","null","75","NaN","","","","","","","","","","","","","","",""
"","S2","","html-keyboard-response","489","813262","0.0-1.0-679.0","0","0","94959","","161","","","75","75","","k","2","75","training","adjacent","EF","5","6","Q.jpg","M.jpg","1","1","1","",""
"","feedback","","html-keyboard-response","490","814273","0.0-1.0-681.0-0.0","0","0","94959","","null","","","null","75","","","","","","","","","","","","","","","",""
"","ITI","","html-keyboard-response","491","815280","0.0-1.0-684.0","0","0","94959","","null","","","null","75","","","","","","","","","","","","","","","NaN",""
"","S1","","html-keyboard-response","492","815534","0.0-1.0-686.0","0","0","94959","","null","","","null","76","","","","","","","","","","","","","","","",""
"","ISI","","html-keyboard-response","493","816037","0.0-1.0-687.0","0","0","94959","","null","","","null","76","NaN","","","","","","","","","","","","","","",""
"","S2","","html-keyboard-response","494","816292","0.0-1.0-688.0","0","0","94959","","null","","","null","76","","NaN","","","","","","","","","","","","","",""
"","response","","html-keyboard-response","495","816947","0.0-1.0-689.0-0.0","0","0","94959","","651","","","68","76","","","2","76","training","adjacent","CD","3","4","N.jpg","R.jpg","0","1","0","",""
"","feedback","","html-keyboard-response","496","817952","0.0-1.0-690.0-0.0","0","0","94959","","null","","","null","76","","","","","","","","","","","","","","","",""
"","time_out","","html-keyboard-response","497","819961","0.0-1.0-692.0-0.0","0","0","94959","","null","","","null","76","","","","","","","","","","","","","","","",""
"","ITI","","html-keyboard-response","498","820972","0.0-1.0-693.0","0","0","94959","","null","","","null","76","","","","","","","","","","","","","","","NaN",""
"","S1","","html-keyboard-response","499","821228","0.0-1.0-695.0","0","0","94959","","null","","","null","77","","","","","","","","","","","","","","","",""
"","ISI","","html-keyboard-response","500","821733","0.0-1.0-696.0","0","0","94959","","null","","","null","77","NaN","","","","","","","","","","","","","","",""
"","S2","","html-keyboard-response","501","821974","0.0-1.0-697.0","0","0","94959","","232","","","75","77","","k","2","77","training","adjacent","CD","3","4","N.jpg","R.jpg","1","1","1","",""
"","feedback","","html-keyboard-response","502","822986","0.0-1.0-699.0-0.0","0","0","94959","","null","","","null","77","","","","","","","","","","","","","","","",""
"","ITI","","html-keyboard-response","503","823994","0.0-1.0-702.0","0","0","94959","","null","","","null","77","","","","","","","","","","","","","","","NaN",""
"","S1","","html-keyboard-response","504","824250","0.0-1.0-704.0","0","0","94959","","null","","","null","78","","","","","","","","","","","","","","","",""
"","ISI","","html-keyboard-response","505","824755","0.0-1.0-705.0","0","0","94959","","null","","","null","78","NaN","","","","","","","","","","","","","","",""
"","S2","","html-keyboard-response","506","825010","0.0-1.0-706.0","0","0","94959","","null","","","null","78","","NaN","","","","","","","","","","","","","",""
"","response","","html-keyboard-response","507","825556","0.0-1.0-707.0-0.0","0","0","94959","","537","","","75","78","","","2","78","training","adjacent","CB","3","2","N.jpg","O.jpg","1","0","0","",""
"","feedback","","html-keyboard-response","508","826563","0.0-1.0-708.0-0.0","0","0","94959","","null","","","null","78","","","","","","","","","","","","","","","",""
"","time_out","","html-keyboard-response","509","828571","0.0-1.0-710.0-0.0","0","0","94959","","null","","","null","78","","","","","","","","","","","","","","","",""
"","ITI","","html-keyboard-response","510","829576","0.0-1.0-711.0","0","0","94959","","null","","","null","78","","","","","","","","","","","","","","","NaN",""
"","S1","","html-keyboard-response","511","829831","0.0-1.0-713.0","0","0","94959","","null","","","null","79","","","","","","","","","","","","","","","",""
"","ISI","","html-keyboard-response","512","830336","0.0-1.0-714.0","0","0","94959","","null","","","null","79","NaN","","","","","","","","","","","","","","",""
"","S2","","html-keyboard-response","513","830593","0.0-1.0-715.0","0","0","94959","","null","","","null","79","","NaN","","","","","","","","","","","","","",""
"","response","","html-keyboard-response","514","831100","0.0-1.0-716.0-0.0","0","0","94959","","501","","","68","79","","","2","79","training","adjacent","BA","2","1","O.jpg","L.jpg","0","0","1","",""
"","feedback","","html-keyboard-response","515","832104","0.0-1.0-717.0-0.0","0","0","94959","","null","","","null","79","","","","","","","","","","","","","","","",""
"","ITI","","html-keyboard-response","516","833107","0.0-1.0-720.0","0","0","94959","","null","","","null","79","","","","","","","","","","","","","","","NaN",""
"","S1","","html-keyboard-response","517","833361","0.0-1.0-722.0","0","0","94959","","null","","","null","80","","","","","","","","","","","","","","","",""
"","ISI","","html-keyboard-response","518","833866","0.0-1.0-723.0","0","0","94959","","null","","","null","80","NaN","","","","","","","","","","","","","","",""
"","S2","","html-keyboard-response","519","834120","0.0-1.0-724.0","0","0","94959","","null","","","null","80","","NaN","","","","","","","","","","","","","",""
"","response","","html-keyboard-response","520","834637","0.0-1.0-725.0-0.0","0","0","94959","","513","","","75","80","","","2","80","training","adjacent","ED","5","4","Q.jpg","R.jpg","1","0","0","",""
"","feedback","","html-keyboard-response","521","835645","0.0-1.0-726.0-0.0","0","0","94959","","null","","","null","80","","","","","","","","","","","","","","","",""
"","time_out","","html-keyboard-response","522","837658","0.0-1.0-728.0-0.0","0","0","94959","","null","","","null","80","","","","","","","","","","","","","","","",""
"","ITI","","html-keyboard-response","523","838667","0.0-1.0-729.0","0","0","94959","","null","","","null","80","","","","","","","","","","","","","","","NaN",""
"","S1","","html-keyboard-response","524","838922","0.0-1.0-731.0","0","0","94959","","null","","","null","81","","","","","","","","","","","","","","","",""
"","ISI","","html-keyboard-response","525","839430","0.0-1.0-732.0","0","0","94959","","null","","","null","81","NaN","","","","","","","","","","","","","","",""
"","S2","","html-keyboard-response","526","839561","0.0-1.0-733.0","0","0","94959","","123","","","68","81","","d","2","81","training","adjacent","GF","7","6","P.jpg","M.jpg","0","0","1","",""
"","feedback","","html-keyboard-response","527","840567","0.0-1.0-735.0-0.0","0","0","94959","","null","","","null","81","","","","","","","","","","","","","","","",""
"","ITI","","html-keyboard-response","528","841573","0.0-1.0-738.0","0","0","94959","","null","","","null","81","","","","","","","","","","","","","","","NaN",""
"","S1","","html-keyboard-response","529","841827","0.0-1.0-740.0","0","0","94959","","null","","","null","82","","","","","","","","","","","","","","","",""
"","ISI","","html-keyboard-response","530","842334","0.0-1.0-741.0","0","0","94959","","422","","","75","82","k","","","","","","","","","","","","","","",""
"","S2","","html-keyboard-response","531","842591","0.0-1.0-742.0","0","0","94959","","null","","","null","82","","NaN","","","","","","","","","","","","","",""
"","response","","html-keyboard-response","532","843261","0.0-1.0-743.0-0.0","0","0","94959","","662","","","75","82","","","2","82","training","adjacent","EF","5","6","Q.jpg","M.jpg","1","1","1","",""
"","feedback","","html-keyboard-response","533","844269","0.0-1.0-744.0-0.0","0","0","94959","","null","","","null","82","","","","","","","","","","","","","","","",""
"","ITI","","html-keyboard-response","534","845274","0.0-1.0-747.0","0","0","94959","","null","","","null","82","","","","","","","","","","","","","","","NaN",""
"","S1","","html-keyboard-response","535","845528","0.0-1.0-749.0","0","0","94959","","null","","","null","83","","","","","","","","","","","","","","","",""
"","ISI","","html-keyboard-response","536","846032","0.0-1.0-750.0","0","0","94959","","null","","","null","83","NaN","","","","","","","","","","","","","","",""
"","S2","","html-keyboard-response","537","846289","0.0-1.0-751.0","0","0","94959","","null","","","null","83","","NaN","","","","","","","","","","","","","",""
"","response","","html-keyboard-response","538","847026","0.0-1.0-752.0-0.0","0","0","94959","","731","","","68","83","","","2","83","training","adjacent","ED","5","4","Q.jpg","R.jpg","0","0","1","",""
"","feedback","","html-keyboard-response","539","848034","0.0-1.0-753.0-0.0","0","0","94959","","null","","","null","83","","","","","","","","","","","","","","","",""
"","ITI","","html-keyboard-response","540","849048","0.0-1.0-756.0","0","0","94959","","null","","","null","83","","","","","","","","","","","","","","","NaN",""
"","S1","","html-keyboard-response","541","849304","0.0-1.0-758.0","0","0","94959","","null","","","null","84","","","","","","","","","","","","","","","",""
"","ISI","","html-keyboard-response","542","849809","0.0-1.0-759.0","0","0","94959","","null","","","null","84","NaN","","","","","","","","","","","","","","",""
"","S2","","html-keyboard-response","543","850068","0.0-1.0-760.0","0","0","94959","","null","","","null","84","","NaN","","","","","","","","","","","","","",""
"","response","","html-keyboard-response","544","851482","0.0-1.0-761.0-0.0","0","0","94959","","1406","","","75","84","","","2","84","training","adjacent","BA","2","1","O.jpg","L.jpg","1","0","0","",""
"","feedback","","html-keyboard-response","545","852488","0.0-1.0-762.0-0.0","0","0","94959","","null","","","null","84","","","","","","","","","","","","","","","",""
"","time_out","","html-keyboard-response","546","854498","0.0-1.0-764.0-0.0","0","0","94959","","null","","","null","84","","","","","","","","","","","","","","","",""
"","ITI","","html-keyboard-response","547","855505","0.0-1.0-765.0","0","0","94959","","null","","","null","84","","","","","","","","","","","","","","","NaN",""
"","S1","","html-keyboard-response","548","855762","0.0-1.0-767.0","0","0","94959","","null","","","null","85","","","","","","","","","","","","","","","",""
"","ISI","","html-keyboard-response","549","856266","0.0-1.0-768.0","0","0","94959","","397","","","68","85","d","","","","","","","","","","","","","","",""
"","S2","","html-keyboard-response","550","856522","0.0-1.0-769.0","0","0","94959","","null","","","null","85","","NaN","","","","","","","","","","","","","",""
"","response","","html-keyboard-response","551","857170","0.0-1.0-770.0-0.0","0","0","94959","","643","","","68","85","","","2","85","training","adjacent","BC","2","3","O.jpg","N.jpg","0","1","0","",""
"","feedback","","html-keyboard-response","552","858174","0.0-1.0-771.0-0.0","0","0","94959","","null","","","null","85","","","","","","","","","","","","","","","",""
"","time_out","","html-keyboard-response","553","860179","0.0-1.0-773.0-0.0","0","0","94959","","null","","","null","85","","","","","","","","","","","","","","","",""
"","ITI","","html-keyboard-response","554","861185","0.0-1.0-774.0","0","0","94959","","207","","","68","85","","","","","","","","","","","","","","","d",""
"","S1","","html-keyboard-response","555","861442","0.0-1.0-776.0","0","0","94959","","null","","","null","86","","","","","","","","","","","","","","","",""
"","ISI","","html-keyboard-response","556","861946","0.0-1.0-777.0","0","0","94959","","483","","","75","86","k","","","","","","","","","","","","","","",""
"","S2","","html-keyboard-response","557","862201","0.0-1.0-778.0","0","0","94959","","null","","","null","86","","NaN","","","","","","","","","","","","","",""
"","response","","html-keyboard-response","558","862832","0.0-1.0-779.0-0.0","0","0","94959","","626","","","75","86","","","2","86","training","adjacent","FE","6","5","M.jpg","Q.jpg","1","0","0","",""
"","feedback","","html-keyboard-response","559","863843","0.0-1.0-780.0-0.0","0","0","94959","","null","","","null","86","","","","","","","","","","","","","","","",""
"","time_out","","html-keyboard-response","560","865850","0.0-1.0-782.0-0.0","0","0","94959","","null","","","null","86","","","","","","","","","","","","","","","",""
"","ITI","","html-keyboard-response","561","866860","0.0-1.0-783.0","0","0","94959","","null","","","null","86","","","","","","","","","","","","","","","NaN",""
"","S1","","html-keyboard-response","562","867119","0.0-1.0-785.0","0","0","94959","","null","","","null","87","","","","","","","","","","","","","","","",""
"","ISI","","html-keyboard-response","563","867622","0.0-1.0-786.0","0","0","94959","","409","","","68","87","d","","","","","","","","","","","","","","",""
"","S2","","html-keyboard-response","564","867877","0.0-1.0-787.0","0","0","94959","","null","","","null","87","","NaN","","","","","","","","","","","","","",""
"","response","","html-keyboard-response","565","868434","0.0-1.0-788.0-0.0","0","0","94959","","550","","","68","87","","","2","87","training","adjacent","CD","3","4","N.jpg","R.jpg","0","1","0","",""
"","feedback","","html-keyboard-response","566","869444","0.0-1.0-789.0-0.0","0","0","94959","","null","","","null","87","","","","","","","","","","","","","","","",""
"","time_out","","html-keyboard-response","567","871454","0.0-1.0-791.0-0.0","0","0","94959","","null","","","null","87","","","","","","","","","","","","","","","",""
"","ITI","","html-keyboard-response","568","872459","0.0-1.0-792.0","0","0","94959","","null","","","null","87","","","","","","","","","","","","","","","NaN",""
"","S1","","html-keyboard-response","569","872717","0.0-1.0-794.0","0","0","94959","","null","","","null","88","","","","","","","","","","","","","","","",""
"","ISI","","html-keyboard-response","570","873222","0.0-1.0-795.0","0","0","94959","","null","","","null","88","NaN","","","","","","","","","","","","","","",""
"","S2","","html-keyboard-response","571","873477","0.0-1.0-796.0","0","0","94959","","null","","","null","88","","NaN","","","","","","","","","","","","","",""
"","response","","html-keyboard-response","572","874122","0.0-1.0-797.0-0.0","0","0","94959","","640","","","75","88","","","2","88","training","adjacent","BA","2","1","O.jpg","L.jpg","1","0","0","",""
"","feedback","","html-keyboard-response","573","875130","0.0-1.0-798.0-0.0","0","0","94959","","null","","","null","88","","","","","","","","","","","","","","","",""
"","time_out","","html-keyboard-response","574","877140","0.0-1.0-800.0-0.0","0","0","94959","","null","","","null","88","","","","","","","","","","","","","","","",""
"","ITI","","html-keyboard-response","575","878146","0.0-1.0-801.0","0","0","94959","","null","","","null","88","","","","","","","","","","","","","","","NaN",""
"","S1","","html-keyboard-response","576","878401","0.0-1.0-803.0","0","0","94959","","null","","","null","89","","","","","","","","","","","","","","","",""
"","ISI","","html-keyboard-response","577","878906","0.0-1.0-804.0","0","0","94959","","345","","","68","89","d","","","","","","","","","","","","","","",""
"","S2","","html-keyboard-response","578","879163","0.0-1.0-805.0","0","0","94959","","null","","","null","89","","NaN","","","","","","","","","","","","","",""
"","response","","html-keyboard-response","579","879749","0.0-1.0-806.0-0.0","0","0","94959","","581","","","68","89","","","2","89","training","adjacent","ED","5","4","Q.jpg","R.jpg","0","0","1","",""
"","feedback","","html-keyboard-response","580","880758","0.0-1.0-807.0-0.0","0","0","94959","","null","","","null","89","","","","","","","","","","","","","","","",""
"","ITI","","html-keyboard-response","581","881763","0.0-1.0-810.0","0","0","94959","","null","","","null","89","","","","","","","","","","","","","","","NaN",""
"","S1","","html-keyboard-response","582","882019","0.0-1.0-812.0","0","0","94959","","null","","","null","90","","","","","","","","","","","","","","","",""
