"success","ttype","start_time","trial_type","trial_index","time_elapsed","internal_node_id","warning","missed_checkup","PID","view_history","rt","responses","repeat_instructions","key_press","index","keypress_isi","keypress_S2","block","trial_num","phase","group_type","pair_type","S1_stim","S2_stim","S1_img","S2_img","S1_chosen","S1_higher","accuracy","keypress_iti","total_bonus_tally"
"true","full_screen","d04132023hr1352","fullscreen","0","8351","0.0-0.0","0","0","29963","","","","","","","","","","","","","","","","","","","","","",""
"","instructions","","instructions","1","49615","0.0-1.0-0.0-0.0","0","0","29963","[{""page_index"":0,""viewing_time"":2939},{""page_index"":1,""viewing_time"":21687},{""page_index"":2,""viewing_time"":15024},{""page_index"":3,""viewing_time"":1612}]","41262","","","","","","","","","","","","","","","","","","","",""
"","comprehension_check","","survey-multi-choice","2","71476","0.0-1.0-0.0-1.0","0","0","29963","","21857","{""Q0"":""True"",""Q1"":""K"",""Q2"":""Only when the screen 'MAKE A CHOICE' is shown"",""Q3"":""Green mark"",""Q4"":""either D or K""}","1","","","","","","","","","","","","","","","","","",""
"","missed_instruction_checkup","","html-keyboard-response","3","74260","0.0-1.0-0.0-2.0-0.0","0","1","29963","","2782","","","32","","","","","","","","","","","","","","","","",""
"","instructions","","instructions","4","86412","0.0-1.0-0.1-0.1","0","0","29963","[{""page_index"":0,""viewing_time"":4667},{""page_index"":1,""viewing_time"":5310},{""page_index"":2,""viewing_time"":1401},{""page_index"":3,""viewing_time"":773}]","12151","","","","","","","","","","","","","","","","","","","",""
"","comprehension_check","","survey-multi-choice","5","97345","0.0-1.0-0.1-1.1","0","0","29963","","10929","{""Q0"":""True"",""Q1"":""K"",""Q2"":""Once the second image appears and while the screen 'MAKE A CHOICE' is shown"",""Q3"":""Green mark"",""Q4"":""either D or K""}","0","","","","","","","","","","","","","","","","","",""
"","start_exp","","html-keyboard-response","6","99378","0.0-1.0-1.0","0","0","29963","","2032","","","32","","","","","","","","","","","","","","","","",""
"","S1","","html-keyboard-response","7","99632","0.0-1.0-2.0","0","0","29963","","null","","","null","0","","","","","","","","","","","","","","","",""
"","ISI","","html-keyboard-response","8","100635","0.0-1.0-3.0","0","0","29963","","null","","","null","0","NaN","","","","","","","","","","","","","","",""
"","S2","","html-keyboard-response","9","100887","0.0-1.0-4.0","0","0","29963","","null","","","null","0","","NaN","","","","","","","","","","","","","",""
"","response","","html-keyboard-response","10","102638","0.0-1.0-5.0-0.0","0","0","29963","","null","","","null","0","","","1","0","training","adjacent","BC","2","3","R.jpg","Q.jpg","NaN","1","0","",""
"","too_slow_prompt","","html-keyboard-response","11","103640","0.0-1.0-7.0-0.0","1","0","29963","","null","","","null","","","","","","","","","","","","","","","","",""
"","time_out","","html-keyboard-response","12","105642","0.0-1.0-8.0-0.0","0","0","29963","","null","","","null","0","","","","","","","","","","","","","","","",""
"","ITI","","html-keyboard-response","13","106646","0.0-1.0-9.0","0","0","29963","","null","","","null","0","","","","","","","","","","","","","","","NaN",""
"","S1","","html-keyboard-response","14","106899","0.0-1.0-11.0","0","0","29963","","null","","","null","1","","","","","","","","","","","","","","","",""
"","ISI","","html-keyboard-response","15","107901","0.0-1.0-12.0","0","0","29963","","null","","","null","1","NaN","","","","","","","","","","","","","","",""
"","S2","","html-keyboard-response","16","108154","0.0-1.0-13.0","0","0","29963","","null","","","null","1","","NaN","","","","","","","","","","","","","",""
"","response","","html-keyboard-response","17","108800","0.0-1.0-14.0-0.0","0","0","29963","","645","","","68","1","","","1","1","training","adjacent","GF","7","6","O.jpg","N.jpg","0","0","1","",""
"","feedback","","html-keyboard-response","18","109803","0.0-1.0-15.0-0.0","0","0","29963","","null","","","null","1","","","","","","","","","","","","","","","",""
"","ITI","","html-keyboard-response","19","110806","0.0-1.0-18.0","0","0","29963","","null","","","null","1","","","","","","","","","","","","","","","NaN",""
"","S1","","html-keyboard-response","20","111058","0.0-1.0-20.0","0","0","29963","","null","","","null","2","","","","","","","","","","","","","","","",""
"","ISI","","html-keyboard-response","21","112060","0.0-1.0-21.0","0","0","29963","","null","","","null","2","NaN","","","","","","","","","","","","","","",""
"","S2","","html-keyboard-response","22","112312","0.0-1.0-22.0","0","0","29963","","null","","","null","2","","NaN","","","","","","","","","","","","","",""
"","response","","html-keyboard-response","23","112571","0.0-1.0-23.0-0.0","0","0","29963","","258","","","68","2","","","1","2","training","adjacent","DC","4","3","M.jpg","Q.jpg","0","0","1","",""
"","feedback","","html-keyboard-response","24","113575","0.0-1.0-24.0-0.0","0","0","29963","","null","","","null","2","","","","","","","","","","","","","","","",""
"","ITI","","html-keyboard-response","25","114577","0.0-1.0-27.0","0","0","29963","","null","","","null","2","","","","","","","","","","","","","","","NaN",""
"","S1","","html-keyboard-response","26","114829","0.0-1.0-29.0","0","0","29963","","null","","","null","3","","","","","","","","","","","","","","","",""
"","ISI","","html-keyboard-response","27","115832","0.0-1.0-30.0","0","0","29963","","null","","","null","3","NaN","","","","","","","","","","","","","","",""
"","S2","","html-keyboard-response","28","116084","0.0-1.0-31.0","0","0","29963","","null","","","null","3","","NaN","","","","","","","","","","","","","",""
"","response","","html-keyboard-response","29","116198","0.0-1.0-32.0-0.0","0","0","29963","","112","","","68","3","","","1","3","training","adjacent","GF","7","6","O.jpg","N.jpg","0","0","1","",""
"","feedback","","html-keyboard-response","30","117202","0.0-1.0-33.0-0.0","0","0","29963","","null","","","null","3","","","","","","","","","","","","","","","",""
"","ITI","","html-keyboard-response","31","118203","0.0-1.0-36.0","0","0","29963","","null","","","null","3","","","","","","","","","","","","","","","NaN",""
"","S1","","html-keyboard-response","32","118455","0.0-1.0-38.0","0","0","29963","","null","","","null","4","","","","","","","","","","","","","","","",""
"","ISI","","html-keyboard-response","33","119460","0.0-1.0-39.0","0","0","29963","","null","","","null","4","NaN","","","","","","","","","","","","","","",""
"","S2","","html-keyboard-response","34","119711","0.0-1.0-40.0","0","0","29963","","null","","","null","4","","NaN","","","","","","","","","","","","","",""
"","response","","html-keyboard-response","35","119915","0.0-1.0-41.0-0.0","0","0","29963","","203","","","75","4","","","1","4","training","adjacent","AB","1","2","L.jpg","R.jpg","1","1","1","",""
"","feedback","","html-keyboard-response","36","120919","0.0-1.0-42.0-0.0","0","0","29963","","null","","","null","4","","","","","","","","","","","","","","","",""
"","ITI","","html-keyboard-response","37","121921","0.0-1.0-45.0","0","0","29963","","null","","","null","4","","","","","","","","","","","","","","","NaN",""
"","S1","","html-keyboard-response","38","122174","0.0-1.0-47.0","0","0","29963","","null","","","null","5","","","","","","","","","","","","","","","",""
"","ISI","","html-keyboard-response","39","123176","0.0-1.0-48.0","0","0","29963","","null","","","null","5","NaN","","","","","","","","","","","","","","",""
"","S2","","html-keyboard-response","40","123428","0.0-1.0-49.0","0","0","29963","","null","","","null","5","","NaN","","","","","","","","","","","","","",""
"","response","","html-keyboard-response","41","123506","0.0-1.0-50.0-0.0","0","0","29963","","77","","","75","5","","","1","5","training","adjacent","FG","6","7","N.jpg","O.jpg","1","1","1","",""
"","feedback","","html-keyboard-response","42","124509","0.0-1.0-51.0-0.0","0","0","29963","","null","","","null","5","","","","","","","","","","","","","","","",""
"","ITI","","html-keyboard-response","43","125511","0.0-1.0-54.0","0","0","29963","","null","","","null","5","","","","","","","","","","","","","","","NaN",""
"","S1","","html-keyboard-response","44","125763","0.0-1.0-56.0","0","0","29963","","null","","","null","6","","","","","","","","","","","","","","","",""
"","ISI","","html-keyboard-response","45","126766","0.0-1.0-57.0","0","0","29963","","null","","","null","6","NaN","","","","","","","","","","","","","","",""
"","S2","","html-keyboard-response","46","127018","0.0-1.0-58.0","0","0","29963","","null","","","null","6","","NaN","","","","","","","","","","","","","",""
"","response","","html-keyboard-response","47","127161","0.0-1.0-59.0-0.0","0","0","29963","","141","","","68","6","","","1","6","training","adjacent","FE","6","5","N.jpg","P.jpg","0","0","1","",""
"","feedback","","html-keyboard-response","48","128164","0.0-1.0-60.0-0.0","0","0","29963","","null","","","null","6","","","","","","","","","","","","","","","",""
"","ITI","","html-keyboard-response","49","129166","0.0-1.0-63.0","0","0","29963","","null","","","null","6","","","","","","","","","","","","","","","NaN",""
"","S1","","html-keyboard-response","50","129418","0.0-1.0-65.0","0","0","29963","","null","","","null","7","","","","","","","","","","","","","","","",""
"","ISI","","html-keyboard-response","51","130419","0.0-1.0-66.0","0","0","29963","","null","","","null","7","NaN","","","","","","","","","","","","","","",""
"","S2","","html-keyboard-response","52","130672","0.0-1.0-67.0","0","0","29963","","null","","","null","7","","NaN","","","","","","","","","","","","","",""
"","response","","html-keyboard-response","53","130988","0.0-1.0-68.0-0.0","0","0","29963","","314","","","75","7","","","1","7","training","adjacent","ED","5","4","P.jpg","M.jpg","1","0","0","",""
"","feedback","","html-keyboard-response","54","131990","0.0-1.0-69.0-0.0","0","0","29963","","null","","","null","7","","","","","","","","","","","","","","","",""
"","time_out","","html-keyboard-response","55","133992","0.0-1.0-71.0-0.0","0","0","29963","","null","","","null","7","","","","","","","","","","","","","","","",""
"","ITI","","html-keyboard-response","56","134994","0.0-1.0-72.0","0","0","29963","","null","","","null","7","","","","","","","","","","","","","","","NaN",""
"","S1","","html-keyboard-response","57","135245","0.0-1.0-74.0","0","0","29963","","null","","","null","8","","","","","","","","","","","","","","","",""
"","ISI","","html-keyboard-response","58","136247","0.0-1.0-75.0","0","0","29963","","null","","","null","8","NaN","","","","","","","","","","","","","","",""
"","S2","","html-keyboard-response","59","136500","0.0-1.0-76.0","0","0","29963","","null","","","null","8","","NaN","","","","","","","","","","","","","",""
"","response","","html-keyboard-response","60","136864","0.0-1.0-77.0-0.0","0","0","29963","","363","","","68","8","","","1","8","training","adjacent","BA","2","1","R.jpg","L.jpg","0","0","1","",""
"","feedback","","html-keyboard-response","61","137866","0.0-1.0-78.0-0.0","0","0","29963","","null","","","null","8","","","","","","","","","","","","","","","",""
"","ITI","","html-keyboard-response","62","138869","0.0-1.0-81.0","0","0","29963","","null","","","null","8","","","","","","","","","","","","","","","NaN",""
"","S1","","html-keyboard-response","63","139123","0.0-1.0-83.0","0","0","29963","","null","","","null","9","","","","","","","","","","","","","","","",""
"","ISI","","html-keyboard-response","64","140124","0.0-1.0-84.0","0","0","29963","","null","","","null","9","NaN","","","","","","","","","","","","","","",""
"","S2","","html-keyboard-response","65","140377","0.0-1.0-85.0","0","0","29963","","null","","","null","9","","NaN","","","","","","","","","","","","","",""
"","response","","html-keyboard-response","66","140830","0.0-1.0-86.0-0.0","0","0","29963","","451","","","75","9","","","1","9","training","adjacent","BA","2","1","R.jpg","L.jpg","1","0","0","",""
"","feedback","","html-keyboard-response","67","141832","0.0-1.0-87.0-0.0","0","0","29963","","null","","","null","9","","","","","","","","","","","","","","","",""
"","time_out","","html-keyboard-response","68","143834","0.0-1.0-89.0-0.0","0","0","29963","","null","","","null","9","","","","","","","","","","","","","","","",""
"","ITI","","html-keyboard-response","69","144836","0.0-1.0-90.0","0","0","29963","","null","","","null","9","","","","","","","","","","","","","","","NaN",""
"","S1","","html-keyboard-response","70","145089","0.0-1.0-92.0","0","0","29963","","null","","","null","10","","","","","","","","","","","","","","","",""
"","ISI","","html-keyboard-response","71","146091","0.0-1.0-93.0","0","0","29963","","null","","","null","10","NaN","","","","","","","","","","","","","","",""
"","S2","","html-keyboard-response","72","146343","0.0-1.0-94.0","0","0","29963","","null","","","null","10","","NaN","","","","","","","","","","","","","",""
"","response","","html-keyboard-response","73","146438","0.0-1.0-95.0-0.0","0","0","29963","","93","","","68","10","","","1","10","training","adjacent","AB","1","2","L.jpg","R.jpg","0","1","0","",""
"","feedback","","html-keyboard-response","74","147441","0.0-1.0-96.0-0.0","0","0","29963","","null","","","null","10","","","","","","","","","","","","","","","",""
"","time_out","","html-keyboard-response","75","149443","0.0-1.0-98.0-0.0","0","0","29963","","null","","","null","10","","","","","","","","","","","","","","","",""
"","ITI","","html-keyboard-response","76","150445","0.0-1.0-99.0","0","0","29963","","null","","","null","10","","","","","","","","","","","","","","","NaN",""
"","S1","","html-keyboard-response","77","150697","0.0-1.0-101.0","0","0","29963","","null","","","null","11","","","","","","","","","","","","","","","",""
"","ISI","","html-keyboard-response","78","151700","0.0-1.0-102.0","0","0","29963","","null","","","null","11","NaN","","","","","","","","","","","","","","",""
"","S2","","html-keyboard-response","79","151953","0.0-1.0-103.0","0","0","29963","","null","","","null","11","","NaN","","","","","","","","","","","","","",""
"","response","","html-keyboard-response","80","152299","0.0-1.0-104.0-0.0","0","0","29963","","346","","","75","11","","","1","11","training","adjacent","DE","4","5","M.jpg","P.jpg","1","1","1","",""
"","feedback","","html-keyboard-response","81","153301","0.0-1.0-105.0-0.0","0","0","29963","","null","","","null","11","","","","","","","","","","","","","","","",""
"","ITI","","html-keyboard-response","82","154303","0.0-1.0-108.0","0","0","29963","","null","","","null","11","","","","","","","","","","","","","","","NaN",""
"","S1","","html-keyboard-response","83","154555","0.0-1.0-110.0","0","0","29963","","null","","","null","12","","","","","","","","","","","","","","","",""
"","ISI","","html-keyboard-response","84","155557","0.0-1.0-111.0","0","0","29963","","null","","","null","12","NaN","","","","","","","","","","","","","","",""
"","S2","","html-keyboard-response","85","155810","0.0-1.0-112.0","0","0","29963","","null","","","null","12","","NaN","","","","","","","","","","","","","",""
"","response","","html-keyboard-response","86","156167","0.0-1.0-113.0-0.0","0","0","29963","","355","","","75","12","","","1","12","training","adjacent","ED","5","4","P.jpg","M.jpg","1","0","0","",""
"","feedback","","html-keyboard-response","87","157171","0.0-1.0-114.0-0.0","0","0","29963","","null","","","null","12","","","","","","","","","","","","","","","",""
"","time_out","","html-keyboard-response","88","159173","0.0-1.0-116.0-0.0","0","0","29963","","null","","","null","12","","","","","","","","","","","","","","","",""
"","ITI","","html-keyboard-response","89","160175","0.0-1.0-117.0","0","0","29963","","null","","","null","12","","","","","","","","","","","","","","","NaN",""
"","S1","","html-keyboard-response","90","160427","0.0-1.0-119.0","0","0","29963","","null","","","null","13","","","","","","","","","","","","","","","",""
"","ISI","","html-keyboard-response","91","161430","0.0-1.0-120.0","0","0","29963","","null","","","null","13","NaN","","","","","","","","","","","","","","",""
"","S2","","html-keyboard-response","92","161682","0.0-1.0-121.0","0","0","29963","","null","","","null","13","","NaN","","","","","","","","","","","","","",""
"","response","","html-keyboard-response","93","162020","0.0-1.0-122.0-0.0","0","0","29963","","337","","","68","13","","","1","13","training","adjacent","EF","5","6","P.jpg","N.jpg","0","1","0","",""
"","feedback","","html-keyboard-response","94","163022","0.0-1.0-123.0-0.0","0","0","29963","","null","","","null","13","","","","","","","","","","","","","","","",""
"","time_out","","html-keyboard-response","95","165025","0.0-1.0-125.0-0.0","0","0","29963","","null","","","null","13","","","","","","","","","","","","","","","",""
"","ITI","","html-keyboard-response","96","166027","0.0-1.0-126.0","0","0","29963","","null","","","null","13","","","","","","","","","","","","","","","NaN",""
"","S1","","html-keyboard-response","97","166280","0.0-1.0-128.0","0","0","29963","","null","","","null","14","","","","","","","","","","","","","","","",""
"","ISI","","html-keyboard-response","98","167283","0.0-1.0-129.0","0","0","29963","","null","","","null","14","NaN","","","","","","","","","","","","","","",""
"","S2","","html-keyboard-response","99","167535","0.0-1.0-130.0","0","0","29963","","null","","","null","14","","NaN","","","","","","","","","","","","","",""
"","response","","html-keyboard-response","100","168047","0.0-1.0-131.0-0.0","0","0","29963","","511","","","68","14","","","1","14","training","adjacent","AB","1","2","L.jpg","R.jpg","0","1","0","",""
"","feedback","","html-keyboard-response","101","169050","0.0-1.0-132.0-0.0","0","0","29963","","null","","","null","14","","","","","","","","","","","","","","","",""
"","time_out","","html-keyboard-response","102","171053","0.0-1.0-134.0-0.0","0","0","29963","","null","","","null","14","","","","","","","","","","","","","","","",""
"","ITI","","html-keyboard-response","103","172056","0.0-1.0-135.0","0","0","29963","","null","","","null","14","","","","","","","","","","","","","","","NaN",""
"","S1","","html-keyboard-response","104","172309","0.0-1.0-137.0","0","0","29963","","null","","","null","15","","","","","","","","","","","","","","","",""
"","ISI","","html-keyboard-response","105","173312","0.0-1.0-138.0","0","0","29963","","null","","","null","15","NaN","","","","","","","","","","","","","","",""
"","S2","","html-keyboard-response","106","173564","0.0-1.0-139.0","0","0","29963","","null","","","null","15","","NaN","","","","","","","","","","","","","",""
"","response","","html-keyboard-response","107","173757","0.0-1.0-140.0-0.0","0","0","29963","","192","","","75","15","","","1","15","training","adjacent","BA","2","1","R.jpg","L.jpg","1","0","0","",""
"","feedback","","html-keyboard-response","108","174758","0.0-1.0-141.0-0.0","0","0","29963","","null","","","null","15","","","","","","","","","","","","","","","",""
"","time_out","","html-keyboard-response","109","176761","0.0-1.0-143.0-0.0","0","0","29963","","null","","","null","15","","","","","","","","","","","","","","","",""
"","ITI","","html-keyboard-response","110","177763","0.0-1.0-144.0","0","0","29963","","null","","","null","15","","","","","","","","","","","","","","","NaN",""
"","S1","","html-keyboard-response","111","178015","0.0-1.0-146.0","0","0","29963","","null","","","null","16","","","","","","","","","","","","","","","",""
"","ISI","","html-keyboard-response","112","179016","0.0-1.0-147.0","0","0","29963","","null","","","null","16","NaN","","","","","","","","","","","","","","",""
"","S2","","html-keyboard-response","113","179268","0.0-1.0-148.0","0","0","29963","","null","","","null","16","","NaN","","","","","","","","","","","","","",""
"","response","","html-keyboard-response","114","179322","0.0-1.0-149.0-0.0","0","0","29963","","52","","","68","16","","","1","16","training","adjacent","CB","3","2","Q.jpg","R.jpg","0","0","1","",""
"","feedback","","html-keyboard-response","115","180327","0.0-1.0-150.0-0.0","0","0","29963","","null","","","null","16","","","","","","","","","","","","","","","",""
"","ITI","","html-keyboard-response","116","181329","0.0-1.0-153.0","0","0","29963","","null","","","null","16","","","","","","","","","","","","","","","NaN",""
"","S1","","html-keyboard-response","117","181582","0.0-1.0-155.0","0","0","29963","","null","","","null","17","","","","","","","","","","","","","","","",""
"","ISI","","html-keyboard-response","118","182583","0.0-1.0-156.0","0","0","29963","","null","","","null","17","NaN","","","","","","","","","","","","","","",""
"","S2","","html-keyboard-response","119","182836","0.0-1.0-157.0","0","0","29963","","null","","","null","17","","NaN","","","","","","","","","","","","","",""
"","response","","html-keyboard-response","120","183536","0.0-1.0-158.0-0.0","0","0","29963","","698","","","75","17","","","1","17","training","adjacent","EF","5","6","P.jpg","N.jpg","1","1","1","",""
"","feedback","","html-keyboard-response","121","184538","0.0-1.0-159.0-0.0","0","0","29963","","null","","","null","17","","","","","","","","","","","","","","","",""
"","ITI","","html-keyboard-response","122","185540","0.0-1.0-162.0","0","0","29963","","null","","","null","17","","","","","","","","","","","","","","","NaN",""
"","S1","","html-keyboard-response","123","185792","0.0-1.0-164.0","0","0","29963","","null","","","null","18","","","","","","","","","","","","","","","",""
"","ISI","","html-keyboard-response","124","186793","0.0-1.0-165.0","0","0","29963","","null","","","null","18","NaN","","","","","","","","","","","","","","",""
"","S2","","html-keyboard-response","125","187045","0.0-1.0-166.0","0","0","29963","","null","","","null","18","","NaN","","","","","","","","","","","","","",""
"","response","","html-keyboard-response","126","187289","0.0-1.0-167.0-0.0","0","0","29963","","243","","","68","18","","","1","18","training","adjacent","FG","6","7","N.jpg","O.jpg","0","1","0","",""
"","feedback","","html-keyboard-response","127","188291","0.0-1.0-168.0-0.0","0","0","29963","","null","","","null","18","","","","","","","","","","","","","","","",""
"","time_out","","html-keyboard-response","128","190294","0.0-1.0-170.0-0.0","0","0","29963","","null","","","null","18","","","","","","","","","","","","","","","",""
"","ITI","","html-keyboard-response","129","191296","0.0-1.0-171.0","0","0","29963","","null","","","null","18","","","","","","","","","","","","","","","NaN",""
"","S1","","html-keyboard-response","130","191548","0.0-1.0-173.0","0","0","29963","","null","","","null","19","","","","","","","","","","","","","","","",""
"","ISI","","html-keyboard-response","131","192550","0.0-1.0-174.0","0","0","29963","","null","","","null","19","NaN","","","","","","","","","","","","","","",""
"","S2","","html-keyboard-response","132","192803","0.0-1.0-175.0","0","0","29963","","null","","","null","19","","NaN","","","","","","","","","","","","","",""
"","response","","html-keyboard-response","133","193193","0.0-1.0-176.0-0.0","0","0","29963","","388","","","75","19","","","1","19","training","adjacent","CB","3","2","Q.jpg","R.jpg","1","0","0","",""
"","feedback","","html-keyboard-response","134","194196","0.0-1.0-177.0-0.0","0","0","29963","","null","","","null","19","","","","","","","","","","","","","","","",""
"","time_out","","html-keyboard-response","135","196199","0.0-1.0-179.0-0.0","0","0","29963","","null","","","null","19","","","","","","","","","","","","","","","",""
"","ITI","","html-keyboard-response","136","197203","0.0-1.0-180.0","0","0","29963","","null","","","null","19","","","","","","","","","","","","","","","NaN",""
"","S1","","html-keyboard-response","137","197456","0.0-1.0-182.0","0","0","29963","","null","","","null","20","","","","","","","","","","","","","","","",""
"","ISI","","html-keyboard-response","138","198459","0.0-1.0-183.0","0","0","29963","","null","","","null","20","NaN","","","","","","","","","","","","","","",""
"","S2","","html-keyboard-response","139","198711","0.0-1.0-184.0","0","0","29963","","null","","","null","20","","NaN","","","","","","","","","","","","","",""
"","response","","html-keyboard-response","140","198960","0.0-1.0-185.0-0.0","0","0","29963","","249","","","75","20","","","1","20","training","adjacent","CB","3","2","Q.jpg","R.jpg","1","0","0","",""
"","feedback","","html-keyboard-response","141","199962","0.0-1.0-186.0-0.0","0","0","29963","","null","","","null","20","","","","","","","","","","","","","","","",""
"","time_out","","html-keyboard-response","142","201964","0.0-1.0-188.0-0.0","0","0","29963","","null","","","null","20","","","","","","","","","","","","","","","",""
"","ITI","","html-keyboard-response","143","202967","0.0-1.0-189.0","0","0","29963","","null","","","null","20","","","","","","","","","","","","","","","NaN",""
"","S1","","html-keyboard-response","144","203220","0.0-1.0-191.0","0","0","29963","","null","","","null","21","","","","","","","","","","","","","","","",""
"","ISI","","html-keyboard-response","145","204222","0.0-1.0-192.0","0","0","29963","","null","","","null","21","NaN","","","","","","","","","","","","","","",""
"","S2","","html-keyboard-response","146","204475","0.0-1.0-193.0","0","0","29963","","null","","","null","21","","NaN","","","","","","","","","","","","","",""
"","response","","html-keyboard-response","147","204874","0.0-1.0-194.0-0.0","0","0","29963","","397","","","75","21","","","1","21","training","adjacent","BC","2","3","R.jpg","Q.jpg","1","1","1","",""
"","feedback","","html-keyboard-response","148","205877","0.0-1.0-195.0-0.0","0","0","29963","","null","","","null","21","","","","","","","","","","","","","","","",""
"","ITI","","html-keyboard-response","149","206879","0.0-1.0-198.0","0","0","29963","","null","","","null","21","","","","","","","","","","","","","","","NaN",""
"","S1","","html-keyboard-response","150","207132","0.0-1.0-200.0","0","0","29963","","null","","","null","22","","","","","","","","","","","","","","","",""
"","ISI","","html-keyboard-response","151","208144","0.0-1.0-201.0","0","0","29963","","null","","","null","22","NaN","","","","","","","","","","","","","","",""
"","S2","","html-keyboard-response","152","208397","0.0-1.0-202.0","0","0","29963","","null","","","null","22","","NaN","","","","","","","","","","","","","",""
"","response","","html-keyboard-response","153","208420","0.0-1.0-203.0-0.0","0","0","29963","","23","","","68","22","","","1","22","training","adjacent","CB","3","2","Q.jpg","R.jpg","0","0","1","",""
"","feedback","","html-keyboard-response","154","209423","0.0-1.0-204.0-0.0","0","0","29963","","null","","","null","22","","","","","","","","","","","","","","","",""
"","ITI","","html-keyboard-response","155","210426","0.0-1.0-207.0","0","0","29963","","null","","","null","22","","","","","","","","","","","","","","","NaN",""
"","S1","","html-keyboard-response","156","210678","0.0-1.0-209.0","0","0","29963","","null","","","null","23","","","","","","","","","","","","","","","",""
"","ISI","","html-keyboard-response","157","211696","0.0-1.0-210.0","0","0","29963","","null","","","null","23","NaN","","","","","","","","","","","","","","",""
"","S2","","html-keyboard-response","158","211950","0.0-1.0-211.0","0","0","29963","","null","","","null","23","","NaN","","","","","","","","","","","","","",""
"","response","","html-keyboard-response","159","212453","0.0-1.0-212.0-0.0","0","0","29963","","501","","","68","23","","","1","23","training","adjacent","DE","4","5","M.jpg","P.jpg","0","1","0","",""
"","feedback","","html-keyboard-response","160","213457","0.0-1.0-213.0-0.0","0","0","29963","","null","","","null","23","","","","","","","","","","","","","","","",""
"","time_out","","html-keyboard-response","161","215459","0.0-1.0-215.0-0.0","0","0","29963","","null","","","null","23","","","","","","","","","","","","","","","",""
"","ITI","","html-keyboard-response","162","216461","0.0-1.0-216.0","0","0","29963","","null","","","null","23","","","","","","","","","","","","","","","NaN",""
"","S1","","html-keyboard-response","163","216712","0.0-1.0-218.0","0","0","29963","","null","","","null","24","","","","","","","","","","","","","","","",""
"","ISI","","html-keyboard-response","164","217714","0.0-1.0-219.0","0","0","29963","","null","","","null","24","NaN","","","","","","","","","","","","","","",""
"","S2","","html-keyboard-response","165","217930","0.0-1.0-220.0","0","0","29963","","214","","","68","24","","d","1","24","training","adjacent","CD","3","4","Q.jpg","M.jpg","0","1","0","",""
"","feedback","","html-keyboard-response","166","218933","0.0-1.0-222.0-0.0","0","0","29963","","null","","","null","24","","","","","","","","","","","","","","","",""
"","time_out","","html-keyboard-response","167","220935","0.0-1.0-224.0-0.0","0","0","29963","","null","","","null","24","","","","","","","","","","","","","","","",""
"","ITI","","html-keyboard-response","168","221937","0.0-1.0-225.0","0","0","29963","","null","","","null","24","","","","","","","","","","","","","","","NaN",""
"","S1","","html-keyboard-response","169","222190","0.0-1.0-227.0","0","0","29963","","null","","","null","25","","","","","","","","","","","","","","","",""
"","ISI","","html-keyboard-response","170","223192","0.0-1.0-228.0","0","0","29963","","null","","","null","25","NaN","","","","","","","","","","","","","","",""
"","S2","","html-keyboard-response","171","223444","0.0-1.0-229.0","0","0","29963","","null","","","null","25","","NaN","","","","","","","","","","","","","",""
"","response","","html-keyboard-response","172","223553","0.0-1.0-230.0-0.0","0","0","29963","","108","","","75","25","","","1","25","training","adjacent","ED","5","4","P.jpg","M.jpg","1","0","0","",""
"","feedback","","html-keyboard-response","173","224556","0.0-1.0-231.0-0.0","0","0","29963","","null","","","null","25","","","","","","","","","","","","","","","",""
"","time_out","","html-keyboard-response","174","226557","0.0-1.0-233.0-0.0","0","0","29963","","null","","","null","25","","","","","","","","","","","","","","","",""
"","ITI","","html-keyboard-response","175","227559","0.0-1.0-234.0","0","0","29963","","null","","","null","25","","","","","","","","","","","","","","","NaN",""
"","S1","","html-keyboard-response","176","227811","0.0-1.0-236.0","0","0","29963","","null","","","null","26","","","","","","","","","","","","","","","",""
"","ISI","","html-keyboard-response","177","228814","0.0-1.0-237.0","0","0","29963","","null","","","null","26","NaN","","","","","","","","","","","","","","",""
"","S2","","html-keyboard-response","178","229066","0.0-1.0-238.0","0","0","29963","","null","","","null","26","","NaN","","","","","","","","","","","","","",""
"","response","","html-keyboard-response","179","229245","0.0-1.0-239.0-0.0","0","0","29963","","177","","","68","26","","","1","26","training","adjacent","BC","2","3","R.jpg","Q.jpg","0","1","0","",""
"","feedback","","html-keyboard-response","180","230247","0.0-1.0-240.0-0.0","0","0","29963","","null","","","null","26","","","","","","","","","","","","","","","",""
"","time_out","","html-keyboard-response","181","232249","0.0-1.0-242.0-0.0","0","0","29963","","null","","","null","26","","","","","","","","","","","","","","","",""
"","ITI","","html-keyboard-response","182","233250","0.0-1.0-243.0","0","0","29963","","null","","","null","26","","","","","","","","","","","","","","","NaN",""
"","S1","","html-keyboard-response","183","233502","0.0-1.0-245.0","0","0","29963","","null","","","null","27","","","","","","","","","","","","","","","",""
"","ISI","","html-keyboard-response","184","234512","0.0-1.0-246.0","0","0","29963","","205","","","75","27","k","","","","","","","","","","","","","","",""
"","S2","","html-keyboard-response","185","234765","0.0-1.0-247.0","0","0","29963","","null","","","null","27","","NaN","","","","","","","","","","","","","",""
"","response","","html-keyboard-response","186","235108","0.0-1.0-248.0-0.0","0","0","29963","","341","","","75","27","","","1","27","training","adjacent","EF","5","6","P.jpg","N.jpg","1","1","1","",""
"","feedback","","html-keyboard-response","187","236110","0.0-1.0-249.0-0.0","0","0","29963","","null","","","null","27","","","","","","","","","","","","","","","",""
"","ITI","","html-keyboard-response","188","237113","0.0-1.0-252.0","0","0","29963","","null","","","null","27","","","","","","","","","","","","","","","NaN",""
"","S1","","html-keyboard-response","189","237366","0.0-1.0-254.0","0","0","29963","","null","","","null","28","","","","","","","","","","","","","","","",""
"","ISI","","html-keyboard-response","190","238368","0.0-1.0-255.0","0","0","29963","","null","","","null","28","NaN","","","","","","","","","","","","","","",""
"","S2","","html-keyboard-response","191","238620","0.0-1.0-256.0","0","0","29963","","null","","","null","28","","NaN","","","","","","","","","","","","","",""
"","response","","html-keyboard-response","192","239087","0.0-1.0-257.0-0.0","0","0","29963","","467","","","75","28","","","1","28","training","adjacent","FG","6","7","N.jpg","O.jpg","1","1","1","",""
"","feedback","","html-keyboard-response","193","240090","0.0-1.0-258.0-0.0","0","0","29963","","null","","","null","28","","","","","","","","","","","","","","","",""
"","ITI","","html-keyboard-response","194","241097","0.0-1.0-261.0","0","0","29963","","null","","","null","28","","","","","","","","","","","","","","","NaN",""
"","S1","","html-keyboard-response","195","241350","0.0-1.0-263.0","0","0","29963","","null","","","null","29","","","","","","","","","","","","","","","",""
"","ISI","","html-keyboard-response","196","242353","0.0-1.0-264.0","0","0","29963","","null","","","null","29","NaN","","","","","","","","","","","","","","",""
"","S2","","html-keyboard-response","197","242605","0.0-1.0-265.0","0","0","29963","","null","","","null","29","","NaN","","","","","","","","","","","","","",""
"","response","","html-keyboard-response","198","242869","0.0-1.0-266.0-0.0","0","0","29963","","263","","","68","29","","","1","29","training","adjacent","DC","4","3","M.jpg","Q.jpg","0","0","1","",""
"","feedback","","html-keyboard-response","199","243881","0.0-1.0-267.0-0.0","0","0","29963","","null","","","null","29","","","","","","","","","","","","","","","",""
"","ITI","","html-keyboard-response","200","244884","0.0-1.0-270.0","0","0","29963","","null","","","null","29","","","","","","","","","","","","","","","NaN",""
"","S1","","html-keyboard-response","201","245136","0.0-1.0-272.0","0","0","29963","","null","","","null","30","","","","","","","","","","","","","","","",""
"","ISI","","html-keyboard-response","202","246137","0.0-1.0-273.0","0","0","29963","","null","","","null","30","NaN","","","","","","","","","","","","","","",""
"","S2","","html-keyboard-response","203","246391","0.0-1.0-274.0","0","0","29963","","null","","","null","30","","NaN","","","","","","","","","","","","","",""
"","response","","html-keyboard-response","204","246641","0.0-1.0-275.0-0.0","0","0","29963","","247","","","68","30","","","1","30","training","adjacent","BC","2","3","R.jpg","Q.jpg","0","1","0","",""
"","feedback","","html-keyboard-response","205","247644","0.0-1.0-276.0-0.0","0","0","29963","","null","","","null","30","","","","","","","","","","","","","","","",""
"","time_out","","html-keyboard-response","206","249647","0.0-1.0-278.0-0.0","0","0","29963","","null","","","null","30","","","","","","","","","","","","","","","",""
"","ITI","","html-keyboard-response","207","250649","0.0-1.0-279.0","0","0","29963","","null","","","null","30","","","","","","","","","","","","","","","NaN",""
"","S1","","html-keyboard-response","208","250900","0.0-1.0-281.0","0","0","29963","","null","","","null","31","","","","","","","","","","","","","","","",""
"","ISI","","html-keyboard-response","209","251902","0.0-1.0-282.0","0","0","29963","","null","","","null","31","NaN","","","","","","","","","","","","","","",""
"","S2","","html-keyboard-response","210","252153","0.0-1.0-283.0","0","0","29963","","null","","","null","31","","NaN","","","","","","","","","","","","","",""
"","response","","html-keyboard-response","211","252412","0.0-1.0-284.0-0.0","0","0","29963","","258","","","68","31","","","1","31","training","adjacent","DC","4","3","M.jpg","Q.jpg","0","0","1","",""
"","feedback","","html-keyboard-response","212","253414","0.0-1.0-285.0-0.0","0","0","29963","","null","","","null","31","","","","","","","","","","","","","","","",""
"","ITI","","html-keyboard-response","213","254416","0.0-1.0-288.0","0","0","29963","","null","","","null","31","","","","","","","","","","","","","","","NaN",""
"","S1","","html-keyboard-response","214","254668","0.0-1.0-290.0","0","0","29963","","null","","","null","32","","","","","","","","","","","","","","","",""
"","ISI","","html-keyboard-response","215","255671","0.0-1.0-291.0","0","0","29963","","null","","","null","32","NaN","","","","","","","","","","","","","","",""
"","S2","","html-keyboard-response","216","255923","0.0-1.0-292.0","0","0","29963","","null","","","null","32","","NaN","","","","","","","","","","","","","",""
"","response","","html-keyboard-response","217","256268","0.0-1.0-293.0-0.0","0","0","29963","","345","","","75","32","","","1","32","training","adjacent","AB","1","2","L.jpg","R.jpg","1","1","1","",""
"","feedback","","html-keyboard-response","218","257270","0.0-1.0-294.0-0.0","0","0","29963","","null","","","null","32","","","","","","","","","","","","","","","",""
"","ITI","","html-keyboard-response","219","258273","0.0-1.0-297.0","0","0","29963","","null","","","null","32","","","","","","","","","","","","","","","NaN",""
"","S1","","html-keyboard-response","220","258524","0.0-1.0-299.0","0","0","29963","","null","","","null","33","","","","","","","","","","","","","","","",""
"","ISI","","html-keyboard-response","221","259527","0.0-1.0-300.0","0","0","29963","","null","","","null","33","NaN","","","","","","","","","","","","","","",""
"","S2","","html-keyboard-response","222","259779","0.0-1.0-301.0","0","0","29963","","null","","","null","33","","NaN","","","","","","","","","","","","","",""
"","response","","html-keyboard-response","223","260004","0.0-1.0-302.0-0.0","0","0","29963","","224","","","68","33","","","1","33","training","adjacent","GF","7","6","O.jpg","N.jpg","0","0","1","",""
"","feedback","","html-keyboard-response","224","261006","0.0-1.0-303.0-0.0","0","0","29963","","null","","","null","33","","","","","","","","","","","","","","","",""
"","ITI","","html-keyboard-response","225","262009","0.0-1.0-306.0","0","0","29963","","null","","","null","33","","","","","","","","","","","","","","","NaN",""
"","S1","","html-keyboard-response","226","262262","0.0-1.0-308.0","0","0","29963","","null","","","null","34","","","","","","","","","","","","","","","",""
"","ISI","","html-keyboard-response","227","263264","0.0-1.0-309.0","0","0","29963","","null","","","null","34","NaN","","","","","","","","","","","","","","",""
"","S2","","html-keyboard-response","228","263516","0.0-1.0-310.0","0","0","29963","","null","","","null","34","","NaN","","","","","","","","","","","","","",""
"","response","","html-keyboard-response","229","263712","0.0-1.0-311.0-0.0","0","0","29963","","194","","","75","34","","","1","34","training","adjacent","FE","6","5","N.jpg","P.jpg","1","0","0","",""
"","feedback","","html-keyboard-response","230","264714","0.0-1.0-312.0-0.0","0","0","29963","","null","","","null","34","","","","","","","","","","","","","","","",""
"","time_out","","html-keyboard-response","231","266716","0.0-1.0-314.0-0.0","0","0","29963","","null","","","null","34","","","","","","","","","","","","","","","",""
"","ITI","","html-keyboard-response","232","267718","0.0-1.0-315.0","0","0","29963","","null","","","null","34","","","","","","","","","","","","","","","NaN",""
"","S1","","html-keyboard-response","233","267970","0.0-1.0-317.0","0","0","29963","","null","","","null","35","","","","","","","","","","","","","","","",""
"","ISI","","html-keyboard-response","234","268971","0.0-1.0-318.0","0","0","29963","","null","","","null","35","NaN","","","","","","","","","","","","","","",""
"","S2","","html-keyboard-response","235","269195","0.0-1.0-319.0","0","0","29963","","223","","","68","35","","d","1","35","training","adjacent","GF","7","6","O.jpg","N.jpg","0","0","1","",""
"","feedback","","html-keyboard-response","236","270198","0.0-1.0-321.0-0.0","0","0","29963","","null","","","null","35","","","","","","","","","","","","","","","",""
"","ITI","","html-keyboard-response","237","271200","0.0-1.0-324.0","0","0","29963","","null","","","null","35","","","","","","","","","","","","","","","NaN",""
"","S1","","html-keyboard-response","238","271453","0.0-1.0-326.0","0","0","29963","","null","","","null","36","","","","","","","","","","","","","","","",""
"","ISI","","html-keyboard-response","239","272455","0.0-1.0-327.0","0","0","29963","","null","","","null","36","NaN","","","","","","","","","","","","","","",""
"","S2","","html-keyboard-response","240","272713","0.0-1.0-328.0","0","0","29963","","null","","","null","36","","NaN","","","","","","","","","","","","","",""
"","response","","html-keyboard-response","241","272809","0.0-1.0-329.0-0.0","0","0","29963","","95","","","75","36","","","1","36","training","adjacent","ED","5","4","P.jpg","M.jpg","1","0","0","",""
"","feedback","","html-keyboard-response","242","273812","0.0-1.0-330.0-0.0","0","0","29963","","null","","","null","36","","","","","","","","","","","","","","","",""
"","time_out","","html-keyboard-response","243","275817","0.0-1.0-332.0-0.0","0","0","29963","","null","","","null","36","","","","","","","","","","","","","","","",""
"","ITI","","html-keyboard-response","244","276819","0.0-1.0-333.0","0","0","29963","","null","","","null","36","","","","","","","","","","","","","","","NaN",""
"","S1","","html-keyboard-response","245","277072","0.0-1.0-335.0","0","0","29963","","null","","","null","37","","","","","","","","","","","","","","","",""
"","ISI","","html-keyboard-response","246","278074","0.0-1.0-336.0","0","0","29963","","null","","","null","37","NaN","","","","","","","","","","","","","","",""
"","S2","","html-keyboard-response","247","278327","0.0-1.0-337.0","0","0","29963","","null","","","null","37","","NaN","","","","","","","","","","","","","",""
"","response","","html-keyboard-response","248","278552","0.0-1.0-338.0-0.0","0","0","29963","","222","","","75","37","","","1","37","training","adjacent","FG","6","7","N.jpg","O.jpg","1","1","1","",""
"","feedback","","html-keyboard-response","249","279554","0.0-1.0-339.0-0.0","0","0","29963","","null","","","null","37","","","","","","","","","","","","","","","",""
"","ITI","","html-keyboard-response","250","280556","0.0-1.0-342.0","0","0","29963","","null","","","null","37","","","","","","","","","","","","","","","NaN",""
"","S1","","html-keyboard-response","251","280808","0.0-1.0-344.0","0","0","29963","","null","","","null","38","","","","","","","","","","","","","","","",""
"","ISI","","html-keyboard-response","252","281810","0.0-1.0-345.0","0","0","29963","","null","","","null","38","NaN","","","","","","","","","","","","","","",""
"","S2","","html-keyboard-response","253","282062","0.0-1.0-346.0","0","0","29963","","null","","","null","38","","NaN","","","","","","","","","","","","","",""
"","response","","html-keyboard-response","254","282525","0.0-1.0-347.0-0.0","0","0","29963","","461","","","75","38","","","1","38","training","adjacent","DE","4","5","M.jpg","P.jpg","1","1","1","",""
"","feedback","","html-keyboard-response","255","283528","0.0-1.0-348.0-0.0","0","0","29963","","null","","","null","38","","","","","","","","","","","","","","","",""
"","ITI","","html-keyboard-response","256","284543","0.0-1.0-351.0","0","0","29963","","null","","","null","38","","","","","","","","","","","","","","","NaN",""
"","S1","","html-keyboard-response","257","284796","0.0-1.0-353.0","0","0","29963","","null","","","null","39","","","","","","","","","","","","","","","",""
"","ISI","","html-keyboard-response","258","285798","0.0-1.0-354.0","0","0","29963","","null","","","null","39","NaN","","","","","","","","","","","","","","",""
"","S2","","html-keyboard-response","259","286035","0.0-1.0-355.0","0","0","29963","","236","","","68","39","","d","1","39","training","adjacent","FE","6","5","N.jpg","P.jpg","0","0","1","",""
"","feedback","","html-keyboard-response","260","287037","0.0-1.0-357.0-0.0","0","0","29963","","null","","","null","39","","","","","","","","","","","","","","","",""
"","ITI","","html-keyboard-response","261","288040","0.0-1.0-360.0","0","0","29963","","null","","","null","39","","","","","","","","","","","","","","","NaN",""
"","S1","","html-keyboard-response","262","288292","0.0-1.0-362.0","0","0","29963","","null","","","null","40","","","","","","","","","","","","","","","",""
"","ISI","","html-keyboard-response","263","289295","0.0-1.0-363.0","0","0","29963","","null","","","null","40","NaN","","","","","","","","","","","","","","",""
"","S2","","html-keyboard-response","264","289548","0.0-1.0-364.0","0","0","29963","","null","","","null","40","","NaN","","","","","","","","","","","","","",""
"","response","","html-keyboard-response","265","289579","0.0-1.0-365.0-0.0","0","0","29963","","30","","","75","40","","","1","40","training","adjacent","CD","3","4","Q.jpg","M.jpg","1","1","1","",""
"","feedback","","html-keyboard-response","266","290582","0.0-1.0-366.0-0.0","0","0","29963","","null","","","null","40","","","","","","","","","","","","","","","",""
"","ITI","","html-keyboard-response","267","291584","0.0-1.0-369.0","0","0","29963","","null","","","null","40","","","","","","","","","","","","","","","NaN",""
"","S1","","html-keyboard-response","268","291835","0.0-1.0-371.0","0","0","29963","","null","","","null","41","","","","","","","","","","","","","","","",""
"","ISI","","html-keyboard-response","269","292838","0.0-1.0-372.0","0","0","29963","","null","","","null","41","NaN","","","","","","","","","","","","","","",""
"","S2","","html-keyboard-response","270","293043","0.0-1.0-373.0","0","0","29963","","203","","","68","41","","d","1","41","training","adjacent","BA","2","1","R.jpg","L.jpg","0","0","1","",""
"","feedback","","html-keyboard-response","271","294045","0.0-1.0-375.0-0.0","0","0","29963","","null","","","null","41","","","","","","","","","","","","","","","",""
"","ITI","","html-keyboard-response","272","295048","0.0-1.0-378.0","0","0","29963","","null","","","null","41","","","","","","","","","","","","","","","NaN",""
"","S1","","html-keyboard-response","273","295300","0.0-1.0-380.0","0","0","29963","","null","","","null","42","","","","","","","","","","","","","","","",""
"","ISI","","html-keyboard-response","274","296303","0.0-1.0-381.0","0","0","29963","","null","","","null","42","NaN","","","","","","","","","","","","","","",""
"","S2","","html-keyboard-response","275","296568","0.0-1.0-382.0","0","0","29963","","null","","","null","42","","NaN","","","","","","","","","","","","","",""
"","response","","html-keyboard-response","276","296602","0.0-1.0-383.0-0.0","0","0","29963","","32","","","75","42","","","1","42","training","adjacent","DC","4","3","M.jpg","Q.jpg","1","0","0","",""
"","feedback","","html-keyboard-response","277","297604","0.0-1.0-384.0-0.0","0","0","29963","","null","","","null","42","","","","","","","","","","","","","","","",""
"","time_out","","html-keyboard-response","278","299607","0.0-1.0-386.0-0.0","0","0","29963","","null","","","null","42","","","","","","","","","","","","","","","",""
"","ITI","","html-keyboard-response","279","300610","0.0-1.0-387.0","0","0","29963","","null","","","null","42","","","","","","","","","","","","","","","NaN",""
"","S1","","html-keyboard-response","280","300861","0.0-1.0-389.0","0","0","29963","","null","","","null","43","","","","","","","","","","","","","","","",""
"","ISI","","html-keyboard-response","281","301865","0.0-1.0-390.0","0","0","29963","","null","","","null","43","NaN","","","","","","","","","","","","","","",""
"","S2","","html-keyboard-response","282","302118","0.0-1.0-391.0","0","0","29963","","null","","","null","43","","NaN","","","","","","","","","","","","","",""
"","response","","html-keyboard-response","283","302317","0.0-1.0-392.0-0.0","0","0","29963","","197","","","75","43","","","1","43","training","adjacent","DE","4","5","M.jpg","P.jpg","1","1","1","",""
"","feedback","","html-keyboard-response","284","303319","0.0-1.0-393.0-0.0","0","0","29963","","null","","","null","43","","","","","","","","","","","","","","","",""
"","ITI","","html-keyboard-response","285","304321","0.0-1.0-396.0","0","0","29963","","null","","","null","43","","","","","","","","","","","","","","","NaN",""
"","S1","","html-keyboard-response","286","304574","0.0-1.0-398.0","0","0","29963","","null","","","null","44","","","","","","","","","","","","","","","",""
"","ISI","","html-keyboard-response","287","305576","0.0-1.0-399.0","0","0","29963","","null","","","null","44","NaN","","","","","","","","","","","","","","",""
"","S2","","html-keyboard-response","288","305818","0.0-1.0-400.0","0","0","29963","","239","","","68","44","","d","1","44","training","adjacent","FE","6","5","N.jpg","P.jpg","0","0","1","",""
"","feedback","","html-keyboard-response","289","306821","0.0-1.0-402.0-0.0","0","0","29963","","null","","","null","44","","","","","","","","","","","","","","","",""
"","ITI","","html-keyboard-response","290","307824","0.0-1.0-405.0","0","0","29963","","null","","","null","44","","","","","","","","","","","","","","","NaN",""
"","S1","","html-keyboard-response","291","308077","0.0-1.0-407.0","0","0","29963","","null","","","null","45","","","","","","","","","","","","","","","",""
"","ISI","","html-keyboard-response","292","309079","0.0-1.0-408.0","0","0","29963","","null","","","null","45","NaN","","","","","","","","","","","","","","",""
"","S2","","html-keyboard-response","293","309303","0.0-1.0-409.0","0","0","29963","","222","","","75","45","","k","1","45","training","adjacent","CD","3","4","Q.jpg","M.jpg","1","1","1","",""
"","feedback","","html-keyboard-response","294","310305","0.0-1.0-411.0-0.0","0","0","29963","","null","","","null","45","","","","","","","","","","","","","","","",""
"","ITI","","html-keyboard-response","295","311308","0.0-1.0-414.0","0","0","29963","","null","","","null","45","","","","","","","","","","","","","","","NaN",""
"","S1","","html-keyboard-response","296","311561","0.0-1.0-416.0","0","0","29963","","null","","","null","46","","","","","","","","","","","","","","","",""
"","ISI","","html-keyboard-response","297","312563","0.0-1.0-417.0","0","0","29963","","null","","","null","46","NaN","","","","","","","","","","","","","","",""
"","S2","","html-keyboard-response","298","312817","0.0-1.0-418.0","0","0","29963","","null","","","null","46","","NaN","","","","","","","","","","","","","",""
"","response","","html-keyboard-response","299","312990","0.0-1.0-419.0-0.0","0","0","29963","","172","","","75","46","","","1","46","training","adjacent","EF","5","6","P.jpg","N.jpg","1","1","1","",""
"","feedback","","html-keyboard-response","300","313993","0.0-1.0-420.0-0.0","0","0","29963","","null","","","null","46","","","","","","","","","","","","","","","",""
"","ITI","","html-keyboard-response","301","314996","0.0-1.0-423.0","0","0","29963","","null","","","null","46","","","","","","","","","","","","","","","NaN",""
"","S1","","html-keyboard-response","302","315248","0.0-1.0-425.0","0","0","29963","","null","","","null","47","","","","","","","","","","","","","","","",""
"","ISI","","html-keyboard-response","303","316250","0.0-1.0-426.0","0","0","29963","","null","","","null","47","NaN","","","","","","","","","","","","","","",""
"","S2","","html-keyboard-response","304","316405","0.0-1.0-427.0","0","0","29963","","154","","","68","47","","d","1","47","training","adjacent","CD","3","4","Q.jpg","M.jpg","0","1","0","",""
"","feedback","","html-keyboard-response","305","317409","0.0-1.0-429.0-0.0","0","0","29963","","null","","","null","47","","","","","","","","","","","","","","","",""
"","time_out","","html-keyboard-response","306","319410","0.0-1.0-431.0-0.0","0","0","29963","","null","","","null","47","","","","","","","","","","","","","","","",""
"","ITI","","html-keyboard-response","307","320412","0.0-1.0-432.0","0","0","29963","","null","","","null","47","","","","","","","","","","","","","","","NaN",""
"","block_over","","html-keyboard-response","308","330596","0.0-1.0-433.0-0.0","0","0","29963","","10182","","","32","47","","","","","","","","","","","","","","","",""
"","S1","","html-keyboard-response","309","330853","0.0-1.0-434.0","0","0","29963","","null","","","null","48","","","","","","","","","","","","","","","",""
"","ISI","","html-keyboard-response","310","331855","0.0-1.0-435.0","0","0","29963","","null","","","null","48","NaN","","","","","","","","","","","","","","",""
"","S2","","html-keyboard-response","311","332107","0.0-1.0-436.0","0","0","29963","","null","","","null","48","","NaN","","","","","","","","","","","","","",""
"","response","","html-keyboard-response","312","332143","0.0-1.0-437.0-0.0","0","0","29963","","35","","","75","48","","","2","48","training","adjacent","DE","4","5","M.jpg","P.jpg","1","1","1","",""
"","feedback","","html-keyboard-response","313","333147","0.0-1.0-438.0-0.0","0","0","29963","","null","","","null","48","","","","","","","","","","","","","","","",""
"","ITI","","html-keyboard-response","314","334148","0.0-1.0-441.0","0","0","29963","","null","","","null","48","","","","","","","","","","","","","","","NaN",""
"","S1","","html-keyboard-response","315","334400","0.0-1.0-443.0","0","0","29963","","null","","","null","49","","","","","","","","","","","","","","","",""
"","ISI","","html-keyboard-response","316","335402","0.0-1.0-444.0","0","0","29963","","null","","","null","49","NaN","","","","","","","","","","","","","","",""
"","S2","","html-keyboard-response","317","335588","0.0-1.0-445.0","0","0","29963","","184","","","68","49","","d","2","49","training","adjacent","BA","2","1","R.jpg","L.jpg","0","0","1","",""
"","feedback","","html-keyboard-response","318","336596","0.0-1.0-447.0-0.0","0","0","29963","","null","","","null","49","","","","","","","","","","","","","","","",""
"","ITI","","html-keyboard-response","319","337598","0.0-1.0-450.0","0","0","29963","","null","","","null","49","","","","","","","","","","","","","","","NaN",""
"","S1","","html-keyboard-response","320","337849","0.0-1.0-452.0","0","0","29963","","null","","","null","50","","","","","","","","","","","","","","","",""
"","ISI","","html-keyboard-response","321","338851","0.0-1.0-453.0","0","0","29963","","null","","","null","50","NaN","","","","","","","","","","","","","","",""
"","S2","","html-keyboard-response","322","338863","0.0-1.0-454.0","0","0","29963","","10","","","68","50","","d","2","50","training","adjacent","GF","7","6","O.jpg","N.jpg","0","0","1","",""
"","feedback","","html-keyboard-response","323","339866","0.0-1.0-456.0-0.0","0","0","29963","","null","","","null","50","","","","","","","","","","","","","","","",""
"","ITI","","html-keyboard-response","324","340868","0.0-1.0-459.0","0","0","29963","","null","","","null","50","","","","","","","","","","","","","","","NaN",""
"","S1","","html-keyboard-response","325","341121","0.0-1.0-461.0","0","0","29963","","null","","","null","51","","","","","","","","","","","","","","","",""
"","ISI","","html-keyboard-response","326","342124","0.0-1.0-462.0","0","0","29963","","null","","","null","51","NaN","","","","","","","","","","","","","","",""
"","S2","","html-keyboard-response","327","342347","0.0-1.0-463.0","0","0","29963","","222","","","75","51","","k","2","51","training","adjacent","DE","4","5","M.jpg","P.jpg","1","1","1","",""
"","feedback","","html-keyboard-response","328","343350","0.0-1.0-465.0-0.0","0","0","29963","","null","","","null","51","","","","","","","","","","","","","","","",""
"","ITI","","html-keyboard-response","329","344353","0.0-1.0-468.0","0","0","29963","","null","","","null","51","","","","","","","","","","","","","","","NaN",""
"","S1","","html-keyboard-response","330","344605","0.0-1.0-470.0","0","0","29963","","null","","","null","52","","","","","","","","","","","","","","","",""
"","ISI","","html-keyboard-response","331","345607","0.0-1.0-471.0","0","0","29963","","null","","","null","52","NaN","","","","","","","","","","","","","","",""
"","S2","","html-keyboard-response","332","345858","0.0-1.0-472.0","0","0","29963","","null","","","null","52","","NaN","","","","","","","","","","","","","",""
"","response","","html-keyboard-response","333","346033","0.0-1.0-473.0-0.0","0","0","29963","","173","","","68","52","","","2","52","training","adjacent","FE","6","5","N.jpg","P.jpg","0","0","1","",""
"","feedback","","html-keyboard-response","334","347036","0.0-1.0-474.0-0.0","0","0","29963","","null","","","null","52","","","","","","","","","","","","","","","",""
"","ITI","","html-keyboard-response","335","348039","0.0-1.0-477.0","0","0","29963","","null","","","null","52","","","","","","","","","","","","","","","NaN",""
"","S1","","html-keyboard-response","336","348292","0.0-1.0-479.0","0","0","29963","","null","","","null","53","","","","","","","","","","","","","","","",""
"","ISI","","html-keyboard-response","337","349294","0.0-1.0-480.0","0","0","29963","","null","","","null","53","NaN","","","","","","","","","","","","","","",""
"","S2","","html-keyboard-response","338","349524","0.0-1.0-481.0","0","0","29963","","228","","","68","53","","d","2","53","training","adjacent","CD","3","4","Q.jpg","M.jpg","0","1","0","",""
"","feedback","","html-keyboard-response","339","350526","0.0-1.0-483.0-0.0","0","0","29963","","null","","","null","53","","","","","","","","","","","","","","","",""
"","time_out","","html-keyboard-response","340","352528","0.0-1.0-485.0-0.0","0","0","29963","","null","","","null","53","","","","","","","","","","","","","","","",""
"","ITI","","html-keyboard-response","341","353531","0.0-1.0-486.0","0","0","29963","","null","","","null","53","","","","","","","","","","","","","","","NaN",""
"","S1","","html-keyboard-response","342","353783","0.0-1.0-488.0","0","0","29963","","null","","","null","54","","","","","","","","","","","","","","","",""
"","ISI","","html-keyboard-response","343","354785","0.0-1.0-489.0","0","0","29963","","null","","","null","54","NaN","","","","","","","","","","","","","","",""
"","S2","","html-keyboard-response","344","354998","0.0-1.0-490.0","0","0","29963","","210","","","75","54","","k","2","54","training","adjacent","FE","6","5","N.jpg","P.jpg","1","0","0","",""
"","feedback","","html-keyboard-response","345","356000","0.0-1.0-492.0-0.0","0","0","29963","","null","","","null","54","","","","","","","","","","","","","","","",""
"","time_out","","html-keyboard-response","346","358002","0.0-1.0-494.0-0.0","0","0","29963","","null","","","null","54","","","","","","","","","","","","","","","",""
"","ITI","","html-keyboard-response","347","359004","0.0-1.0-495.0","0","0","29963","","null","","","null","54","","","","","","","","","","","","","","","NaN",""
"","S1","","html-keyboard-response","348","359256","0.0-1.0-497.0","0","0","29963","","null","","","null","55","","","","","","","","","","","","","","","",""
"","ISI","","html-keyboard-response","349","360258","0.0-1.0-498.0","0","0","29963","","null","","","null","55","NaN","","","","","","","","","","","","","","",""
"","S2","","html-keyboard-response","350","360507","0.0-1.0-499.0","0","0","29963","","247","","","75","55","","k","2","55","training","adjacent","DC","4","3","M.jpg","Q.jpg","1","0","0","",""
"","feedback","","html-keyboard-response","351","361508","0.0-1.0-501.0-0.0","0","0","29963","","null","","","null","55","","","","","","","","","","","","","","","",""
"","time_out","","html-keyboard-response","352","363518","0.0-1.0-503.0-0.0","0","0","29963","","null","","","null","55","","","","","","","","","","","","","","","",""
"","ITI","","html-keyboard-response","353","364520","0.0-1.0-504.0","0","0","29963","","null","","","null","55","","","","","","","","","","","","","","","NaN",""
"","S1","","html-keyboard-response","354","364773","0.0-1.0-506.0","0","0","29963","","null","","","null","56","","","","","","","","","","","","","","","",""
"","ISI","","html-keyboard-response","355","365774","0.0-1.0-507.0","0","0","29963","","null","","","null","56","NaN","","","","","","","","","","","","","","",""
"","S2","","html-keyboard-response","356","365784","0.0-1.0-508.0","0","0","29963","","8","","","75","56","","k","2","56","training","adjacent","EF","5","6","P.jpg","N.jpg","1","1","1","",""
"","feedback","","html-keyboard-response","357","366787","0.0-1.0-510.0-0.0","0","0","29963","","null","","","null","56","","","","","","","","","","","","","","","",""
"","ITI","","html-keyboard-response","358","367788","0.0-1.0-513.0","0","0","29963","","null","","","null","56","","","","","","","","","","","","","","","NaN",""
"","S1","","html-keyboard-response","359","368041","0.0-1.0-515.0","0","0","29963","","null","","","null","57","","","","","","","","","","","","","","","",""
"","ISI","","html-keyboard-response","360","369043","0.0-1.0-516.0","0","0","29963","","null","","","null","57","NaN","","","","","","","","","","","","","","",""
"","S2","","html-keyboard-response","361","369295","0.0-1.0-517.0","0","0","29963","","null","","","null","57","","NaN","","","","","","","","","","","","","",""
"","response","","html-keyboard-response","362","369695","0.0-1.0-518.0-0.0","0","0","29963","","398","","","68","57","","","2","57","training","adjacent","ED","5","4","P.jpg","M.jpg","0","0","1","",""
"","feedback","","html-keyboard-response","363","370697","0.0-1.0-519.0-0.0","0","0","29963","","null","","","null","57","","","","","","","","","","","","","","","",""
"","ITI","","html-keyboard-response","364","371699","0.0-1.0-522.0","0","0","29963","","null","","","null","57","","","","","","","","","","","","","","","NaN",""
"","S1","","html-keyboard-response","365","371952","0.0-1.0-524.0","0","0","29963","","null","","","null","58","","","","","","","","","","","","","","","",""
"","ISI","","html-keyboard-response","366","372953","0.0-1.0-525.0","0","0","29963","","null","","","null","58","NaN","","","","","","","","","","","","","","",""
"","S2","","html-keyboard-response","367","373205","0.0-1.0-526.0","0","0","29963","","null","","","null","58","","NaN","","","","","","","","","","","","","",""
"","response","","html-keyboard-response","368","373454","0.0-1.0-527.0-0.0","0","0","29963","","248","","","68","58","","","2","58","training","adjacent","BA","2","1","R.jpg","L.jpg","0","0","1","",""
"","feedback","","html-keyboard-response","369","374456","0.0-1.0-528.0-0.0","0","0","29963","","null","","","null","58","","","","","","","","","","","","","","","",""
"","ITI","","html-keyboard-response","370","375458","0.0-1.0-531.0","0","0","29963","","null","","","null","58","","","","","","","","","","","","","","","NaN",""
"","S1","","html-keyboard-response","371","375709","0.0-1.0-533.0","0","0","29963","","null","","","null","59","","","","","","","","","","","","","","","",""
"","ISI","","html-keyboard-response","372","376712","0.0-1.0-534.0","0","0","29963","","null","","","null","59","NaN","","","","","","","","","","","","","","",""
"","S2","","html-keyboard-response","373","376964","0.0-1.0-535.0","0","0","29963","","null","","","null","59","","NaN","","","","","","","","","","","","","",""
"","response","","html-keyboard-response","374","377135","0.0-1.0-536.0-0.0","0","0","29963","","170","","","68","59","","","2","59","training","adjacent","ED","5","4","P.jpg","M.jpg","0","0","1","",""
"","feedback","","html-keyboard-response","375","378138","0.0-1.0-537.0-0.0","0","0","29963","","null","","","null","59","","","","","","","","","","","","","","","",""
"","ITI","","html-keyboard-response","376","379140","0.0-1.0-540.0","0","0","29963","","null","","","null","59","","","","","","","","","","","","","","","NaN",""
"","S1","","html-keyboard-response","377","379392","0.0-1.0-542.0","0","0","29963","","null","","","null","60","","","","","","","","","","","","","","","",""
"","ISI","","html-keyboard-response","378","380394","0.0-1.0-543.0","0","0","29963","","null","","","null","60","NaN","","","","","","","","","","","","","","",""
"","S2","","html-keyboard-response","379","380647","0.0-1.0-544.0","0","0","29963","","null","","","null","60","","NaN","","","","","","","","","","","","","",""
"","response","","html-keyboard-response","380","381031","0.0-1.0-545.0-0.0","0","0","29963","","382","","","68","60","","","2","60","training","adjacent","FG","6","7","N.jpg","O.jpg","0","1","0","",""
"","feedback","","html-keyboard-response","381","382033","0.0-1.0-546.0-0.0","0","0","29963","","null","","","null","60","","","","","","","","","","","","","","","",""
"","time_out","","html-keyboard-response","382","384045","0.0-1.0-548.0-0.0","0","0","29963","","null","","","null","60","","","","","","","","","","","","","","","",""
"","ITI","","html-keyboard-response","383","385048","0.0-1.0-549.0","0","0","29963","","null","","","null","60","","","","","","","","","","","","","","","NaN",""
"","S1","","html-keyboard-response","384","385302","0.0-1.0-551.0","0","0","29963","","null","","","null","61","","","","","","","","","","","","","","","",""
"","ISI","","html-keyboard-response","385","386305","0.0-1.0-552.0","0","0","29963","","null","","","null","61","NaN","","","","","","","","","","","","","","",""
"","S2","","html-keyboard-response","386","386492","0.0-1.0-553.0","0","0","29963","","186","","","68","61","","d","2","61","training","adjacent","AB","1","2","L.jpg","R.jpg","0","1","0","",""
"","feedback","","html-keyboard-response","387","387494","0.0-1.0-555.0-0.0","0","0","29963","","null","","","null","61","","","","","","","","","","","","","","","",""
"","time_out","","html-keyboard-response","388","389497","0.0-1.0-557.0-0.0","0","0","29963","","null","","","null","61","","","","","","","","","","","","","","","",""
"","ITI","","html-keyboard-response","389","390499","0.0-1.0-558.0","0","0","29963","","null","","","null","61","","","","","","","","","","","","","","","NaN",""
"","S1","","html-keyboard-response","390","390751","0.0-1.0-560.0","0","0","29963","","null","","","null","62","","","","","","","","","","","","","","","",""
"","ISI","","html-keyboard-response","391","391753","0.0-1.0-561.0","0","0","29963","","null","","","null","62","NaN","","","","","","","","","","","","","","",""
"","S2","","html-keyboard-response","392","391940","0.0-1.0-562.0","0","0","29963","","185","","","68","62","","d","2","62","training","adjacent","CB","3","2","Q.jpg","R.jpg","0","0","1","",""
"","feedback","","html-keyboard-response","393","392942","0.0-1.0-564.0-0.0","0","0","29963","","null","","","null","62","","","","","","","","","","","","","","","",""
"","ITI","","html-keyboard-response","394","393945","0.0-1.0-567.0","0","0","29963","","null","","","null","62","","","","","","","","","","","","","","","NaN",""
"","S1","","html-keyboard-response","395","394198","0.0-1.0-569.0","0","0","29963","","null","","","null","63","","","","","","","","","","","","","","","",""
"","ISI","","html-keyboard-response","396","395201","0.0-1.0-570.0","0","0","29963","","null","","","null","63","NaN","","","","","","","","","","","","","","",""
"","S2","","html-keyboard-response","397","395454","0.0-1.0-571.0","0","0","29963","","null","","","null","63","","NaN","","","","","","","","","","","","","",""
"","response","","html-keyboard-response","398","395526","0.0-1.0-572.0-0.0","0","0","29963","","71","","","75","63","","","2","63","training","adjacent","CD","3","4","Q.jpg","M.jpg","1","1","1","",""
"","feedback","","html-keyboard-response","399","396529","0.0-1.0-573.0-0.0","0","0","29963","","null","","","null","63","","","","","","","","","","","","","","","",""
"","ITI","","html-keyboard-response","400","397532","0.0-1.0-576.0","0","0","29963","","null","","","null","63","","","","","","","","","","","","","","","NaN",""
"","S1","","html-keyboard-response","401","397783","0.0-1.0-578.0","0","0","29963","","null","","","null","64","","","","","","","","","","","","","","","",""
"","ISI","","html-keyboard-response","402","398785","0.0-1.0-579.0","0","0","29963","","null","","","null","64","NaN","","","","","","","","","","","","","","",""
"","S2","","html-keyboard-response","403","399029","0.0-1.0-580.0","0","0","29963","","242","","","68","64","","d","2","64","training","adjacent","BC","2","3","R.jpg","Q.jpg","0","1","0","",""
"","feedback","","html-keyboard-response","404","400032","0.0-1.0-582.0-0.0","0","0","29963","","null","","","null","64","","","","","","","","","","","","","","","",""
"","time_out","","html-keyboard-response","405","402034","0.0-1.0-584.0-0.0","0","0","29963","","null","","","null","64","","","","","","","","","","","","","","","",""
"","ITI","","html-keyboard-response","406","403037","0.0-1.0-585.0","0","0","29963","","null","","","null","64","","","","","","","","","","","","","","","NaN",""
"","S1","","html-keyboard-response","407","403290","0.0-1.0-587.0","0","0","29963","","null","","","null","65","","","","","","","","","","","","","","","",""
"","ISI","","html-keyboard-response","408","404293","0.0-1.0-588.0","0","0","29963","","null","","","null","65","NaN","","","","","","","","","","","","","","",""
"","S2","","html-keyboard-response","409","404545","0.0-1.0-589.0","0","0","29963","","null","","","null","65","","NaN","","","","","","","","","","","","","",""
"","response","","html-keyboard-response","410","404624","0.0-1.0-590.0-0.0","0","0","29963","","78","","","75","65","","","2","65","training","adjacent","BC","2","3","R.jpg","Q.jpg","1","1","1","",""
"","feedback","","html-keyboard-response","411","405626","0.0-1.0-591.0-0.0","0","0","29963","","null","","","null","65","","","","","","","","","","","","","","","",""
"","ITI","","html-keyboard-response","412","406629","0.0-1.0-594.0","0","0","29963","","null","","","null","65","","","","","","","","","","","","","","","NaN",""
"","S1","","html-keyboard-response","413","406881","0.0-1.0-596.0","0","0","29963","","null","","","null","66","","","","","","","","","","","","","","","",""
"","ISI","","html-keyboard-response","414","407883","0.0-1.0-597.0","0","0","29963","","null","","","null","66","NaN","","","","","","","","","","","","","","",""
"","S2","","html-keyboard-response","415","407965","0.0-1.0-598.0","0","0","29963","","81","","","75","66","","k","2","66","training","adjacent","DE","4","5","M.jpg","P.jpg","1","1","1","",""
"","feedback","","html-keyboard-response","416","408967","0.0-1.0-600.0-0.0","0","0","29963","","null","","","null","66","","","","","","","","","","","","","","","",""
"","ITI","","html-keyboard-response","417","409968","0.0-1.0-603.0","0","0","29963","","null","","","null","66","","","","","","","","","","","","","","","NaN",""
"","S1","","html-keyboard-response","418","410227","0.0-1.0-605.0","0","0","29963","","null","","","null","67","","","","","","","","","","","","","","","",""
"","ISI","","html-keyboard-response","419","411230","0.0-1.0-606.0","0","0","29963","","null","","","null","67","NaN","","","","","","","","","","","","","","",""
"","S2","","html-keyboard-response","420","411325","0.0-1.0-607.0","0","0","29963","","95","","","68","67","","d","2","67","training","adjacent","FG","6","7","N.jpg","O.jpg","0","1","0","",""
"","feedback","","html-keyboard-response","421","412328","0.0-1.0-609.0-0.0","0","0","29963","","null","","","null","67","","","","","","","","","","","","","","","",""
"","time_out","","html-keyboard-response","422","414330","0.0-1.0-611.0-0.0","0","0","29963","","null","","","null","67","","","","","","","","","","","","","","","",""
"","ITI","","html-keyboard-response","423","415332","0.0-1.0-612.0","0","0","29963","","null","","","null","67","","","","","","","","","","","","","","","NaN",""
"","S1","","html-keyboard-response","424","415584","0.0-1.0-614.0","0","0","29963","","null","","","null","68","","","","","","","","","","","","","","","",""
"","ISI","","html-keyboard-response","425","416587","0.0-1.0-615.0","0","0","29963","","null","","","null","68","NaN","","","","","","","","","","","","","","",""
"","S2","","html-keyboard-response","426","416839","0.0-1.0-616.0","0","0","29963","","null","","","null","68","","NaN","","","","","","","","","","","","","",""
"","response","","html-keyboard-response","427","417023","0.0-1.0-617.0-0.0","0","0","29963","","182","","","68","68","","","2","68","training","adjacent","ED","5","4","P.jpg","M.jpg","0","0","1","",""
"","feedback","","html-keyboard-response","428","418025","0.0-1.0-618.0-0.0","0","0","29963","","null","","","null","68","","","","","","","","","","","","","","","",""
"","ITI","","html-keyboard-response","429","419028","0.0-1.0-621.0","0","0","29963","","null","","","null","68","","","","","","","","","","","","","","","NaN",""
"","S1","","html-keyboard-response","430","419292","0.0-1.0-623.0","0","0","29963","","null","","","null","69","","","","","","","","","","","","","","","",""
"","ISI","","html-keyboard-response","431","420294","0.0-1.0-624.0","0","0","29963","","null","","","null","69","NaN","","","","","","","","","","","","","","",""
"","S2","","html-keyboard-response","432","420546","0.0-1.0-625.0","0","0","29963","","null","","","null","69","","NaN","","","","","","","","","","","","","",""
"","response","","html-keyboard-response","433","420614","0.0-1.0-626.0-0.0","0","0","29963","","66","","","68","69","","","2","69","training","adjacent","FE","6","5","N.jpg","P.jpg","0","0","1","",""
"","feedback","","html-keyboard-response","434","421616","0.0-1.0-627.0-0.0","0","0","29963","","null","","","null","69","","","","","","","","","","","","","","","",""
"","ITI","","html-keyboard-response","435","422619","0.0-1.0-630.0","0","0","29963","","null","","","null","69","","","","","","","","","","","","","","","NaN",""
"","S1","","html-keyboard-response","436","422872","0.0-1.0-632.0","0","0","29963","","null","","","null","70","","","","","","","","","","","","","","","",""
"","ISI","","html-keyboard-response","437","423875","0.0-1.0-633.0","0","0","29963","","null","","","null","70","NaN","","","","","","","","","","","","","","",""
"","S2","","html-keyboard-response","438","424127","0.0-1.0-634.0","0","0","29963","","null","","","null","70","","NaN","","","","","","","","","","","","","",""
"","response","","html-keyboard-response","439","424227","0.0-1.0-635.0-0.0","0","0","29963","","98","","","68","70","","","2","70","training","adjacent","FE","6","5","N.jpg","P.jpg","0","0","1","",""
"","feedback","","html-keyboard-response","440","425230","0.0-1.0-636.0-0.0","0","0","29963","","null","","","null","70","","","","","","","","","","","","","","","",""
"","ITI","","html-keyboard-response","441","426233","0.0-1.0-639.0","0","0","29963","","null","","","null","70","","","","","","","","","","","","","","","NaN",""
"","S1","","html-keyboard-response","442","426486","0.0-1.0-641.0","0","0","29963","","null","","","null","71","","","","","","","","","","","","","","","",""
"","ISI","","html-keyboard-response","443","427488","0.0-1.0-642.0","0","0","29963","","null","","","null","71","NaN","","","","","","","","","","","","","","",""
"","S2","","html-keyboard-response","444","427691","0.0-1.0-643.0","0","0","29963","","201","","","75","71","","k","2","71","training","adjacent","CD","3","4","Q.jpg","M.jpg","1","1","1","",""
"","feedback","","html-keyboard-response","445","428694","0.0-1.0-645.0-0.0","0","0","29963","","null","","","null","71","","","","","","","","","","","","","","","",""
"","ITI","","html-keyboard-response","446","429697","0.0-1.0-648.0","0","0","29963","","null","","","null","71","","","","","","","","","","","","","","","NaN",""
"","S1","","html-keyboard-response","447","429949","0.0-1.0-650.0","0","0","29963","","null","","","null","72","","","","","","","","","","","","","","","",""
"","ISI","","html-keyboard-response","448","430953","0.0-1.0-651.0","0","0","29963","","null","","","null","72","NaN","","","","","","","","","","","","","","",""
"","S2","","html-keyboard-response","449","431206","0.0-1.0-652.0","0","0","29963","","null","","","null","72","","NaN","","","","","","","","","","","","","",""
"","response","","html-keyboard-response","450","431582","0.0-1.0-653.0-0.0","0","0","29963","","374","","","68","72","","","2","72","training","adjacent","BC","2","3","R.jpg","Q.jpg","0","1","0","",""
"","feedback","","html-keyboard-response","451","432584","0.0-1.0-654.0-0.0","0","0","29963","","null","","","null","72","","","","","","","","","","","","","","","",""
"","time_out","","html-keyboard-response","452","434586","0.0-1.0-656.0-0.0","0","0","29963","","null","","","null","72","","","","","","","","","","","","","","","",""
"","ITI","","html-keyboard-response","453","435589","0.0-1.0-657.0","0","0","29963","","null","","","null","72","","","","","","","","","","","","","","","NaN",""
"","S1","","html-keyboard-response","454","435841","0.0-1.0-659.0","0","0","29963","","null","","","null","73","","","","","","","","","","","","","","","",""
"","ISI","","html-keyboard-response","455","436843","0.0-1.0-660.0","0","0","29963","","176","","","75","73","k","","","","","","","","","","","","","","",""
"","S2","","html-keyboard-response","456","437095","0.0-1.0-661.0","0","0","29963","","null","","","null","73","","NaN","","","","","","","","","","","","","",""
"","response","","html-keyboard-response","457","437366","0.0-1.0-662.0-0.0","0","0","29963","","269","","","75","73","","","2","73","training","adjacent","CB","3","2","Q.jpg","R.jpg","1","0","0","",""
"","feedback","","html-keyboard-response","458","438369","0.0-1.0-663.0-0.0","0","0","29963","","null","","","null","73","","","","","","","","","","","","","","","",""
"","time_out","","html-keyboard-response","459","440372","0.0-1.0-665.0-0.0","0","0","29963","","null","","","null","73","","","","","","","","","","","","","","","",""
"","ITI","","html-keyboard-response","460","441373","0.0-1.0-666.0","0","0","29963","","null","","","null","73","","","","","","","","","","","","","","","NaN",""
"","S1","","html-keyboard-response","461","441626","0.0-1.0-668.0","0","0","29963","","null","","","null","74","","","","","","","","","","","","","","","",""
"","ISI","","html-keyboard-response","462","442629","0.0-1.0-669.0","0","0","29963","","null","","","null","74","NaN","","","","","","","","","","","","","","",""
"","S2","","html-keyboard-response","463","442840","0.0-1.0-670.0","0","0","29963","","210","","","68","74","","d","2","74","training","adjacent","AB","1","2","L.jpg","R.jpg","0","1","0","",""
"","feedback","","html-keyboard-response","464","443844","0.0-1.0-672.0-0.0","0","0","29963","","null","","","null","74","","","","","","","","","","","","","","","",""
"","time_out","","html-keyboard-response","465","445848","0.0-1.0-674.0-0.0","0","0","29963","","null","","","null","74","","","","","","","","","","","","","","","",""
"","ITI","","html-keyboard-response","466","446851","0.0-1.0-675.0","0","0","29963","","null","","","null","74","","","","","","","","","","","","","","","NaN",""
"","S1","","html-keyboard-response","467","447104","0.0-1.0-677.0","0","0","29963","","null","","","null","75","","","","","","","","","","","","","","","",""
"","ISI","","html-keyboard-response","468","448106","0.0-1.0-678.0","0","0","29963","","null","","","null","75","NaN","","","","","","","","","","","","","","",""
"","S2","","html-keyboard-response","469","448182","0.0-1.0-679.0","0","0","29963","","74","","","75","75","","k","2","75","training","adjacent","AB","1","2","L.jpg","R.jpg","1","1","1","",""
"","feedback","","html-keyboard-response","470","449184","0.0-1.0-681.0-0.0","0","0","29963","","null","","","null","75","","","","","","","","","","","","","","","",""
"","ITI","","html-keyboard-response","471","450187","0.0-1.0-684.0","0","0","29963","","null","","","null","75","","","","","","","","","","","","","","","NaN",""
"","S1","","html-keyboard-response","472","450441","0.0-1.0-686.0","0","0","29963","","null","","","null","76","","","","","","","","","","","","","","","",""
"","ISI","","html-keyboard-response","473","451443","0.0-1.0-687.0","0","0","29963","","null","","","null","76","NaN","","","","","","","","","","","","","","",""
"","S2","","html-keyboard-response","474","451517","0.0-1.0-688.0","0","0","29963","","72","","","75","76","","k","2","76","training","adjacent","ED","5","4","P.jpg","M.jpg","1","0","0","",""
"","feedback","","html-keyboard-response","475","452519","0.0-1.0-690.0-0.0","0","0","29963","","null","","","null","76","","","","","","","","","","","","","","","",""
"","time_out","","html-keyboard-response","476","454521","0.0-1.0-692.0-0.0","0","0","29963","","null","","","null","76","","","","","","","","","","","","","","","",""
"","ITI","","html-keyboard-response","477","455523","0.0-1.0-693.0","0","0","29963","","null","","","null","76","","","","","","","","","","","","","","","NaN",""
"","S1","","html-keyboard-response","478","455775","0.0-1.0-695.0","0","0","29963","","null","","","null","77","","","","","","","","","","","","","","","",""
"","ISI","","html-keyboard-response","479","456777","0.0-1.0-696.0","0","0","29963","","null","","","null","77","NaN","","","","","","","","","","","","","","",""
"","S2","","html-keyboard-response","480","457029","0.0-1.0-697.0","0","0","29963","","null","","","null","77","","NaN","","","","","","","","","","","","","",""
"","response","","html-keyboard-response","481","457052","0.0-1.0-698.0-0.0","0","0","29963","","21","","","68","77","","","2","77","training","adjacent","BA","2","1","R.jpg","L.jpg","0","0","1","",""
"","feedback","","html-keyboard-response","482","458055","0.0-1.0-699.0-0.0","0","0","29963","","null","","","null","77","","","","","","","","","","","","","","","",""
"","ITI","","html-keyboard-response","483","459058","0.0-1.0-702.0","0","0","29963","","null","","","null","77","","","","","","","","","","","","","","","NaN",""
"","S1","","html-keyboard-response","484","459311","0.0-1.0-704.0","0","0","29963","","null","","","null","78","","","","","","","","","","","","","","","",""
"","ISI","","html-keyboard-response","485","460313","0.0-1.0-705.0","0","0","29963","","null","","","null","78","NaN","","","","","","","","","","","","","","",""
"","S2","","html-keyboard-response","486","460566","0.0-1.0-706.0","0","0","29963","","null","","","null","78","","NaN","","","","","","","","","","","","","",""
"","response","","html-keyboard-response","487","460770","0.0-1.0-707.0-0.0","0","0","29963","","203","","","68","78","","","2","78","training","adjacent","GF","7","6","O.jpg","N.jpg","0","0","1","",""
"","feedback","","html-keyboard-response","488","461774","0.0-1.0-708.0-0.0","0","0","29963","","null","","","null","78","","","","","","","","","","","","","","","",""
"","ITI","","html-keyboard-response","489","462776","0.0-1.0-711.0","0","0","29963","","null","","","null","78","","","","","","","","","","","","","","","NaN",""
"","S1","","html-keyboard-response","490","463029","0.0-1.0-713.0","0","0","29963","","null","","","null","79","","","","","","","","","","","","","","","",""
"","ISI","","html-keyboard-response","491","464033","0.0-1.0-714.0","0","0","29963","","null","","","null","79","NaN","","","","","","","","","","","","","","",""
"","S2","","html-keyboard-response","492","464285","0.0-1.0-715.0","0","0","29963","","null","","","null","79","","NaN","","","","","","","","","","","","","",""
"","response","","html-keyboard-response","493","464526","0.0-1.0-716.0-0.0","0","0","29963","","239","","","68","79","","","2","79","training","adjacent","DE","4","5","M.jpg","P.jpg","0","1","0","",""
"","feedback","","html-keyboard-response","494","465528","0.0-1.0-717.0-0.0","0","0","29963","","null","","","null","79","","","","","","","","","","","","","","","",""
"","time_out","","html-keyboard-response","495","467530","0.0-1.0-719.0-0.0","0","0","29963","","null","","","null","79","","","","","","","","","","","","","","","",""
"","ITI","","html-keyboard-response","496","468532","0.0-1.0-720.0","0","0","29963","","null","","","null","79","","","","","","","","","","","","","","","NaN",""
"","S1","","html-keyboard-response","497","468784","0.0-1.0-722.0","0","0","29963","","null","","","null","80","","","","","","","","","","","","","","","",""
"","ISI","","html-keyboard-response","498","469786","0.0-1.0-723.0","0","0","29963","","null","","","null","80","NaN","","","","","","","","","","","","","","",""
"","S2","","html-keyboard-response","499","470038","0.0-1.0-724.0","0","0","29963","","null","","","null","80","","NaN","","","","","","","","","","","","","",""
"","response","","html-keyboard-response","500","470213","0.0-1.0-725.0-0.0","0","0","29963","","174","","","68","80","","","2","80","training","adjacent","BC","2","3","R.jpg","Q.jpg","0","1","0","",""
"","feedback","","html-keyboard-response","501","471216","0.0-1.0-726.0-0.0","0","0","29963","","null","","","null","80","","","","","","","","","","","","","","","",""
"","time_out","","html-keyboard-response","502","473218","0.0-1.0-728.0-0.0","0","0","29963","","null","","","null","80","","","","","","","","","","","","","","","",""
"","ITI","","html-keyboard-response","503","474229","0.0-1.0-729.0","0","0","29963","","null","","","null","80","","","","","","","","","","","","","","","NaN",""
"","S1","","html-keyboard-response","504","474491","0.0-1.0-731.0","0","0","29963","","null","","","null","81","","","","","","","","","","","","","","","",""
"","ISI","","html-keyboard-response","505","475493","0.0-1.0-732.0","0","0","29963","","null","","","null","81","NaN","","","","","","","","","","","","","","",""
"","S2","","html-keyboard-response","506","475737","0.0-1.0-733.0","0","0","29963","","243","","","75","81","","k","2","81","training","adjacent","EF","5","6","P.jpg","N.jpg","1","1","1","",""
"","feedback","","html-keyboard-response","507","476739","0.0-1.0-735.0-0.0","0","0","29963","","null","","","null","81","","","","","","","","","","","","","","","",""
"","ITI","","html-keyboard-response","508","477750","0.0-1.0-738.0","0","0","29963","","null","","","null","81","","","","","","","","","","","","","","","NaN",""
"","S1","","html-keyboard-response","509","478004","0.0-1.0-740.0","0","0","29963","","null","","","null","82","","","","","","","","","","","","","","","",""
"","ISI","","html-keyboard-response","510","479005","0.0-1.0-741.0","0","0","29963","","null","","","null","82","NaN","","","","","","","","","","","","","","",""
"","S2","","html-keyboard-response","511","479258","0.0-1.0-742.0","0","0","29963","","null","","","null","82","","NaN","","","","","","","","","","","","","",""
"","response","","html-keyboard-response","512","479450","0.0-1.0-743.0-0.0","0","0","29963","","191","","","75","82","","","2","82","training","adjacent","EF","5","6","P.jpg","N.jpg","1","1","1","",""
"","feedback","","html-keyboard-response","513","480453","0.0-1.0-744.0-0.0","0","0","29963","","null","","","null","82","","","","","","","","","","","","","","","",""
"","ITI","","html-keyboard-response","514","481456","0.0-1.0-747.0","0","0","29963","","null","","","null","82","","","","","","","","","","","","","","","NaN",""
"","S1","","html-keyboard-response","515","481708","0.0-1.0-749.0","0","0","29963","","null","","","null","83","","","","","","","","","","","","","","","",""
"","ISI","","html-keyboard-response","516","482710","0.0-1.0-750.0","0","0","29963","","null","","","null","83","NaN","","","","","","","","","","","","","","",""
"","S2","","html-keyboard-response","517","482963","0.0-1.0-751.0","0","0","29963","","null","","","null","83","","NaN","","","","","","","","","","","","","",""
"","response","","html-keyboard-response","518","483126","0.0-1.0-752.0-0.0","0","0","29963","","161","","","68","83","","","2","83","training","adjacent","FG","6","7","N.jpg","O.jpg","0","1","0","",""
"","feedback","","html-keyboard-response","519","484129","0.0-1.0-753.0-0.0","0","0","29963","","null","","","null","83","","","","","","","","","","","","","","","",""
"","time_out","","html-keyboard-response","520","486131","0.0-1.0-755.0-0.0","0","0","29963","","null","","","null","83","","","","","","","","","","","","","","","",""
"","ITI","","html-keyboard-response","521","487133","0.0-1.0-756.0","0","0","29963","","null","","","null","83","","","","","","","","","","","","","","","NaN",""
"","S1","","html-keyboard-response","522","487385","0.0-1.0-758.0","0","0","29963","","null","","","null","84","","","","","","","","","","","","","","","",""
"","ISI","","html-keyboard-response","523","488391","0.0-1.0-759.0","0","0","29963","","null","","","null","84","NaN","","","","","","","","","","","","","","",""
"","S2","","html-keyboard-response","524","488642","0.0-1.0-760.0","0","0","29963","","249","","","75","84","","k","2","84","training","adjacent","GF","7","6","O.jpg","N.jpg","1","0","0","",""
"","feedback","","html-keyboard-response","525","489645","0.0-1.0-762.0-0.0","0","0","29963","","null","","","null","84","","","","","","","","","","","","","","","",""
"","time_out","","html-keyboard-response","526","491648","0.0-1.0-764.0-0.0","0","0","29963","","null","","","null","84","","","","","","","","","","","","","","","",""
"","ITI","","html-keyboard-response","527","492651","0.0-1.0-765.0","0","0","29963","","null","","","null","84","","","","","","","","","","","","","","","NaN",""
"","S1","","html-keyboard-response","528","492903","0.0-1.0-767.0","0","0","29963","","null","","","null","85","","","","","","","","","","","","","","","",""
"","ISI","","html-keyboard-response","529","493905","0.0-1.0-768.0","0","0","29963","","null","","","null","85","NaN","","","","","","","","","","","","","","",""
"","S2","","html-keyboard-response","530","493908","0.0-1.0-769.0","0","0","29963","","1","","","68","85","","d","2","85","training","adjacent","DC","4","3","M.jpg","Q.jpg","0","0","1","",""
"","feedback","","html-keyboard-response","531","494910","0.0-1.0-771.0-0.0","0","0","29963","","null","","","null","85","","","","","","","","","","","","","","","",""
"","ITI","","html-keyboard-response","532","495912","0.0-1.0-774.0","0","0","29963","","null","","","null","85","","","","","","","","","","","","","","","NaN",""
"","S1","","html-keyboard-response","533","496165","0.0-1.0-776.0","0","0","29963","","null","","","null","86","","","","","","","","","","","","","","","",""
"","ISI","","html-keyboard-response","534","497166","0.0-1.0-777.0","0","0","29963","","null","","","null","86","NaN","","","","","","","","","","","","","","",""
"","S2","","html-keyboard-response","535","497373","0.0-1.0-778.0","0","0","29963","","205","","","75","86","","k","2","86","training","adjacent","FG","6","7","N.jpg","O.jpg","1","1","1","",""
"","feedback","","html-keyboard-response","536","498376","0.0-1.0-780.0-0.0","0","0","29963","","null","","","null","86","","","","","","","","","","","","","","","",""
"","ITI","","html-keyboard-response","537","499379","0.0-1.0-783.0","0","0","29963","","null","","","null","86","","","","","","","","","","","","","","","NaN",""
"","S1","","html-keyboard-response","538","499632","0.0-1.0-785.0","0","0","29963","","null","","","null","87","","","","","","","","","","","","","","","",""
"","ISI","","html-keyboard-response","539","500634","0.0-1.0-786.0","0","0","29963","","null","","","null","87","NaN","","","","","","","","","","","","","","",""
"","S2","","html-keyboard-response","540","500886","0.0-1.0-787.0","0","0","29963","","null","","","null","87","","NaN","","","","","","","","","","","","","",""
"","response","","html-keyboard-response","541","501051","0.0-1.0-788.0-0.0","0","0","29963","","163","","","75","87","","","2","87","training","adjacent","EF","5","6","P.jpg","N.jpg","1","1","1","",""
"","feedback","","html-keyboard-response","542","502055","0.0-1.0-789.0-0.0","0","0","29963","","null","","","null","87","","","","","","","","","","","","","","","",""
"","ITI","","html-keyboard-response","543","503057","0.0-1.0-792.0","0","0","29963","","null","","","null","87","","","","","","","","","","","","","","","NaN",""
"","S1","","html-keyboard-response","544","503309","0.0-1.0-794.0","0","0","29963","","null","","","null","88","","","","","","","","","","","","","","","",""
"","ISI","","html-keyboard-response","545","504312","0.0-1.0-795.0","0","0","29963","","null","","","null","88","NaN","","","","","","","","","","","","","","",""
"","S2","","html-keyboard-response","546","504449","0.0-1.0-796.0","0","0","29963","","135","","","75","88","","k","2","88","training","adjacent","DC","4","3","M.jpg","Q.jpg","1","0","0","",""
"","feedback","","html-keyboard-response","547","505454","0.0-1.0-798.0-0.0","0","0","29963","","null","","","null","88","","","","","","","","","","","","","","","",""
"","time_out","","html-keyboard-response","548","507457","0.0-1.0-800.0-0.0","0","0","29963","","null","","","null","88","","","","","","","","","","","","","","","",""
"","ITI","","html-keyboard-response","549","508461","0.0-1.0-801.0","0","0","29963","","null","","","null","88","","","","","","","","","","","","","","","NaN",""
"","S1","","html-keyboard-response","550","508714","0.0-1.0-803.0","0","0","29963","","null","","","null","89","","","","","","","","","","","","","","","",""
"","ISI","","html-keyboard-response","551","509716","0.0-1.0-804.0","0","0","29963","","null","","","null","89","NaN","","","","","","","","","","","","","","",""
"","S2","","html-keyboard-response","552","509849","0.0-1.0-805.0","0","0","29963","","132","","","68","89","","d","2","89","training","adjacent","GF","7","6","O.jpg","N.jpg","0","0","1","",""
"","feedback","","html-keyboard-response","553","510852","0.0-1.0-807.0-0.0","0","0","29963","","null","","","null","89","","","","","","","","","","","","","","","",""
"","ITI","","html-keyboard-response","554","511855","0.0-1.0-810.0","0","0","29963","","null","","","null","89","","","","","","","","","","","","","","","NaN",""
"","S1","","html-keyboard-response","555","512107","0.0-1.0-812.0","0","0","29963","","null","","","null","90","","","","","","","","","","","","","","","",""
"","ISI","","html-keyboard-response","556","513109","0.0-1.0-813.0","0","0","29963","","null","","","null","90","NaN","","","","","","","","","","","","","","",""
"","S2","","html-keyboard-response","557","513264","0.0-1.0-814.0","0","0","29963","","153","","","68","90","","d","2","90","training","adjacent","AB","1","2","L.jpg","R.jpg","0","1","0","",""
"","feedback","","html-keyboard-response","558","514266","0.0-1.0-816.0-0.0","0","0","29963","","null","","","null","90","","","","","","","","","","","","","","","",""
"","time_out","","html-keyboard-response","559","516269","0.0-1.0-818.0-0.0","0","0","29963","","null","","","null","90","","","","","","","","","","","","","","","",""
"","ITI","","html-keyboard-response","560","517286","0.0-1.0-819.0","0","0","29963","","null","","","null","90","","","","","","","","","","","","","","","NaN",""
"","S1","","html-keyboard-response","561","517538","0.0-1.0-821.0","0","0","29963","","null","","","null","91","","","","","","","","","","","","","","","",""
"","ISI","","html-keyboard-response","562","518541","0.0-1.0-822.0","0","0","29963","","null","","","null","91","NaN","","","","","","","","","","","","","","",""
"","S2","","html-keyboard-response","563","518750","0.0-1.0-823.0","0","0","29963","","207","","","75","91","","k","2","91","training","adjacent","CD","3","4","Q.jpg","M.jpg","1","1","1","",""
"","feedback","","html-keyboard-response","564","519763","0.0-1.0-825.0-0.0","0","0","29963","","null","","","null","91","","","","","","","","","","","","","","","",""
"","ITI","","html-keyboard-response","565","520766","0.0-1.0-828.0","0","0","29963","","null","","","null","91","","","","","","","","","","","","","","","NaN",""
"","S1","","html-keyboard-response","566","521018","0.0-1.0-830.0","0","0","29963","","null","","","null","92","","","","","","","","","","","","","","","",""
"","ISI","","html-keyboard-response","567","522021","0.0-1.0-831.0","0","0","29963","","null","","","null","92","NaN","","","","","","","","","","","","","","",""
"","S2","","html-keyboard-response","568","522235","0.0-1.0-832.0","0","0","29963","","212","","","68","92","","d","2","92","training","adjacent","DC","4","3","M.jpg","Q.jpg","0","0","1","",""
"","feedback","","html-keyboard-response","569","523238","0.0-1.0-834.0-0.0","0","0","29963","","null","","","null","92","","","","","","","","","","","","","","","",""
"","ITI","","html-keyboard-response","570","524240","0.0-1.0-837.0","0","0","29963","","null","","","null","92","","","","","","","","","","","","","","","NaN",""
"","S1","","html-keyboard-response","571","524493","0.0-1.0-839.0","0","0","29963","","null","","","null","93","","","","","","","","","","","","","","","",""
"","ISI","","html-keyboard-response","572","525495","0.0-1.0-840.0","0","0","29963","","null","","","null","93","NaN","","","","","","","","","","","","","","",""
"","S2","","html-keyboard-response","573","525606","0.0-1.0-841.0","0","0","29963","","109","","","75","93","","k","2","93","training","adjacent","CB","3","2","Q.jpg","R.jpg","1","0","0","",""
"","feedback","","html-keyboard-response","574","526608","0.0-1.0-843.0-0.0","0","0","29963","","null","","","null","93","","","","","","","","","","","","","","","",""
"","time_out","","html-keyboard-response","575","528609","0.0-1.0-845.0-0.0","0","0","29963","","null","","","null","93","","","","","","","","","","","","","","","",""
"","ITI","","html-keyboard-response","576","529612","0.0-1.0-846.0","0","0","29963","","null","","","null","93","","","","","","","","","","","","","","","NaN",""
"","S1","","html-keyboard-response","577","529866","0.0-1.0-848.0","0","0","29963","","null","","","null","94","","","","","","","","","","","","","","","",""
"","ISI","","html-keyboard-response","578","530868","0.0-1.0-849.0","0","0","29963","","null","","","null","94","NaN","","","","","","","","","","","","","","",""
"","S2","","html-keyboard-response","579","531093","0.0-1.0-850.0","0","0","29963","","224","","","75","94","","k","2","94","training","adjacent","BA","2","1","R.jpg","L.jpg","1","0","0","",""
"","feedback","","html-keyboard-response","580","532097","0.0-1.0-852.0-0.0","0","0","29963","","null","","","null","94","","","","","","","","","","","","","","","",""
"","time_out","","html-keyboard-response","581","534101","0.0-1.0-854.0-0.0","0","0","29963","","null","","","null","94","","","","","","","","","","","","","","","",""
