"success","ttype","start_time","trial_type","trial_index","time_elapsed","internal_node_id","warning","missed_checkup","PID","view_history","rt","responses","repeat_instructions","key_press","index","keypress_isi","keypress_S2","block","trial_num","phase","group_type","pair_type","S1_stim","S2_stim","S1_img","S2_img","S1_chosen","S1_higher","accuracy","keypress_iti","total_bonus_tally"
"true","full_screen","d08042022hr2014","fullscreen","0","22889","0.0-0.0","0","0","29380","","","","","","","","","","","","","","","","","","","","","",""
"","instructions","","instructions","1","107892","0.0-1.0-0.0-0.0","0","0","29380","[{""page_index"":0,""viewing_time"":9687},{""page_index"":1,""viewing_time"":51841},{""page_index"":2,""viewing_time"":20184},{""page_index"":3,""viewing_time"":3288}]","85001","","","","","","","","","","","","","","","","","","","",""
"","comprehension_check","","survey-multi-choice","2","153000","0.0-1.0-0.0-1.0","0","0","29380","","45104","{""Q0"":""True"",""Q1"":""D"",""Q2"":""Only when the screen 'MAKE A CHOICE' is shown"",""Q3"":""Green mark"",""Q4"":""either D or K""}","1","","","","","","","","","","","","","","","","","",""
"","missed_instruction_checkup","","html-keyboard-response","3","155950","0.0-1.0-0.0-2.0-0.0","0","1","29380","","2946","","","32","","","","","","","","","","","","","","","","",""
"","instructions","","instructions","4","186401","0.0-1.0-0.1-0.1","0","0","29380","[{""page_index"":0,""viewing_time"":6558},{""page_index"":1,""viewing_time"":20379},{""page_index"":2,""viewing_time"":2355},{""page_index"":3,""viewing_time"":1156}]","30448","","","","","","","","","","","","","","","","","","","",""
"","comprehension_check","","survey-multi-choice","5","205239","0.0-1.0-0.1-1.1","0","0","29380","","18834","{""Q0"":""True"",""Q1"":""D"",""Q2"":""Once the second image appears and while the screen 'MAKE A CHOICE' is shown"",""Q3"":""Green mark"",""Q4"":""either D or K""}","0","","","","","","","","","","","","","","","","","",""
"","start_exp","","html-keyboard-response","6","207693","0.0-1.0-1.0","0","0","29380","","2451","","","32","","","","","","","","","","","","","","","","",""
"","S1","","html-keyboard-response","7","207947","0.0-1.0-2.0","0","0","29380","","null","","","null","0","","","","","","","","","","","","","","","",""
"","ISI","","html-keyboard-response","8","209949","0.0-1.0-3.0","0","0","29380","","697","","","68","0","d","","","","","","","","","","","","","","",""
"","S2","","html-keyboard-response","9","210206","0.0-1.0-4.0","0","0","29380","","null","","","null","0","","NaN","","","","","","","","","","","","","",""
"","response","","html-keyboard-response","10","210683","0.0-1.0-5.0-0.0","0","0","29380","","475","","","75","0","","","1","0","training","adjacent","ED","5","4","L.jpg","P.jpg","0","0","1","",""
"","feedback","","html-keyboard-response","11","211686","0.0-1.0-6.0-0.0","0","0","29380","","null","","","null","0","","","","","","","","","","","","","","","",""
"","ITI","","html-keyboard-response","12","212693","0.0-1.0-9.0","0","0","29380","","null","","","null","0","","","","","","","","","","","","","","","NaN",""
"","S1","","html-keyboard-response","13","212945","0.0-1.0-11.0","0","0","29380","","null","","","null","1","","","","","","","","","","","","","","","",""
"","ISI","","html-keyboard-response","14","214948","0.0-1.0-12.0","0","0","29380","","null","","","null","1","NaN","","","","","","","","","","","","","","",""
"","S2","","html-keyboard-response","15","215022","0.0-1.0-13.0","0","0","29380","","72","","","68","1","","d","1","1","training","adjacent","EF","5","6","L.jpg","R.jpg","1","1","1","",""
"","feedback","","html-keyboard-response","16","216025","0.0-1.0-15.0-0.0","0","0","29380","","null","","","null","1","","","","","","","","","","","","","","","",""
"","ITI","","html-keyboard-response","17","217029","0.0-1.0-18.0","0","0","29380","","null","","","null","1","","","","","","","","","","","","","","","NaN",""
"","S1","","html-keyboard-response","18","217284","0.0-1.0-20.0","0","0","29380","","null","","","null","2","","","","","","","","","","","","","","","",""
"","ISI","","html-keyboard-response","19","219295","0.0-1.0-21.0","0","0","29380","","null","","","null","2","NaN","","","","","","","","","","","","","","",""
"","S2","","html-keyboard-response","20","219562","0.0-1.0-22.0","0","0","29380","","null","","","null","2","","NaN","","","","","","","","","","","","","",""
"","response","","html-keyboard-response","21","219892","0.0-1.0-23.0-0.0","0","0","29380","","329","","","75","2","","","1","2","training","adjacent","AB","1","2","Q.jpg","O.jpg","0","1","0","",""
"","feedback","","html-keyboard-response","22","220899","0.0-1.0-24.0-0.0","0","0","29380","","null","","","null","2","","","","","","","","","","","","","","","",""
"","time_out","","html-keyboard-response","23","222901","0.0-1.0-26.0-0.0","0","0","29380","","null","","","null","2","","","","","","","","","","","","","","","",""
"","ITI","","html-keyboard-response","24","223904","0.0-1.0-27.0","0","0","29380","","null","","","null","2","","","","","","","","","","","","","","","NaN",""
"","S1","","html-keyboard-response","25","224169","0.0-1.0-29.0","0","0","29380","","null","","","null","3","","","","","","","","","","","","","","","",""
"","ISI","","html-keyboard-response","26","226172","0.0-1.0-30.0","0","0","29380","","null","","","null","3","NaN","","","","","","","","","","","","","","",""
"","S2","","html-keyboard-response","27","226427","0.0-1.0-31.0","0","0","29380","","null","","","null","3","","NaN","","","","","","","","","","","","","",""
"","response","","html-keyboard-response","28","226800","0.0-1.0-32.0-0.0","0","0","29380","","373","","","68","3","","","1","3","training","adjacent","FG","6","7","R.jpg","M.jpg","1","1","1","",""
"","feedback","","html-keyboard-response","29","227816","0.0-1.0-33.0-0.0","0","0","29380","","null","","","null","3","","","","","","","","","","","","","","","",""
"","ITI","","html-keyboard-response","30","228819","0.0-1.0-36.0","0","0","29380","","null","","","null","3","","","","","","","","","","","","","","","NaN",""
"","S1","","html-keyboard-response","31","229073","0.0-1.0-38.0","0","0","29380","","null","","","null","4","","","","","","","","","","","","","","","",""
"","ISI","","html-keyboard-response","32","231077","0.0-1.0-39.0","0","0","29380","","null","","","null","4","NaN","","","","","","","","","","","","","","",""
"","S2","","html-keyboard-response","33","231343","0.0-1.0-40.0","0","0","29380","","null","","","null","4","","NaN","","","","","","","","","","","","","",""
"","response","","html-keyboard-response","34","231849","0.0-1.0-41.0-0.0","0","0","29380","","504","","","68","4","","","1","4","training","adjacent","CB","3","2","N.jpg","O.jpg","1","0","0","",""
"","feedback","","html-keyboard-response","35","232859","0.0-1.0-42.0-0.0","0","0","29380","","null","","","null","4","","","","","","","","","","","","","","","",""
"","time_out","","html-keyboard-response","36","234865","0.0-1.0-44.0-0.0","0","0","29380","","null","","","null","4","","","","","","","","","","","","","","","",""
"","ITI","","html-keyboard-response","37","235877","0.0-1.0-45.0","0","0","29380","","null","","","null","4","","","","","","","","","","","","","","","NaN",""
"","S1","","html-keyboard-response","38","236131","0.0-1.0-47.0","0","0","29380","","null","","","null","5","","","","","","","","","","","","","","","",""
"","ISI","","html-keyboard-response","39","238136","0.0-1.0-48.0","0","0","29380","","null","","","null","5","NaN","","","","","","","","","","","","","","",""
"","S2","","html-keyboard-response","40","238388","0.0-1.0-49.0","0","0","29380","","null","","","null","5","","NaN","","","","","","","","","","","","","",""
"","response","","html-keyboard-response","41","238690","0.0-1.0-50.0-0.0","0","0","29380","","301","","","68","5","","","1","5","training","adjacent","EF","5","6","L.jpg","R.jpg","1","1","1","",""
"","feedback","","html-keyboard-response","42","239703","0.0-1.0-51.0-0.0","0","0","29380","","null","","","null","5","","","","","","","","","","","","","","","",""
"","ITI","","html-keyboard-response","43","240712","0.0-1.0-54.0","0","0","29380","","null","","","null","5","","","","","","","","","","","","","","","NaN",""
"","S1","","html-keyboard-response","44","240978","0.0-1.0-56.0","0","0","29380","","null","","","null","6","","","","","","","","","","","","","","","",""
"","ISI","","html-keyboard-response","45","242990","0.0-1.0-57.0","0","0","29380","","null","","","null","6","NaN","","","","","","","","","","","","","","",""
"","S2","","html-keyboard-response","46","243245","0.0-1.0-58.0","0","0","29380","","null","","","null","6","","NaN","","","","","","","","","","","","","",""
"","response","","html-keyboard-response","47","243539","0.0-1.0-59.0-0.0","0","0","29380","","293","","","75","6","","","1","6","training","adjacent","FE","6","5","R.jpg","L.jpg","0","0","1","",""
"","feedback","","html-keyboard-response","48","244545","0.0-1.0-60.0-0.0","0","0","29380","","null","","","null","6","","","","","","","","","","","","","","","",""
"","ITI","","html-keyboard-response","49","245562","0.0-1.0-63.0","0","0","29380","","null","","","null","6","","","","","","","","","","","","","","","NaN",""
"","S1","","html-keyboard-response","50","245818","0.0-1.0-65.0","0","0","29380","","null","","","null","7","","","","","","","","","","","","","","","",""
"","ISI","","html-keyboard-response","51","247827","0.0-1.0-66.0","0","0","29380","","null","","","null","7","NaN","","","","","","","","","","","","","","",""
"","S2","","html-keyboard-response","52","248079","0.0-1.0-67.0","0","0","29380","","null","","","null","7","","NaN","","","","","","","","","","","","","",""
"","response","","html-keyboard-response","53","248410","0.0-1.0-68.0-0.0","0","0","29380","","330","","","75","7","","","1","7","training","adjacent","BC","2","3","O.jpg","N.jpg","0","1","0","",""
"","feedback","","html-keyboard-response","54","249425","0.0-1.0-69.0-0.0","0","0","29380","","null","","","null","7","","","","","","","","","","","","","","","",""
"","time_out","","html-keyboard-response","55","251435","0.0-1.0-71.0-0.0","0","0","29380","","null","","","null","7","","","","","","","","","","","","","","","",""
"","ITI","","html-keyboard-response","56","252448","0.0-1.0-72.0","0","0","29380","","null","","","null","7","","","","","","","","","","","","","","","NaN",""
"","S1","","html-keyboard-response","57","252712","0.0-1.0-74.0","0","0","29380","","null","","","null","8","","","","","","","","","","","","","","","",""
"","ISI","","html-keyboard-response","58","254715","0.0-1.0-75.0","0","0","29380","","null","","","null","8","NaN","","","","","","","","","","","","","","",""
"","S2","","html-keyboard-response","59","254968","0.0-1.0-76.0","0","0","29380","","null","","","null","8","","NaN","","","","","","","","","","","","","",""
"","response","","html-keyboard-response","60","255362","0.0-1.0-77.0-0.0","0","0","29380","","393","","","68","8","","","1","8","training","adjacent","BC","2","3","O.jpg","N.jpg","1","1","1","",""
"","feedback","","html-keyboard-response","61","256373","0.0-1.0-78.0-0.0","0","0","29380","","null","","","null","8","","","","","","","","","","","","","","","",""
"","ITI","","html-keyboard-response","62","257380","0.0-1.0-81.0","0","0","29380","","null","","","null","8","","","","","","","","","","","","","","","NaN",""
"","S1","","html-keyboard-response","63","257635","0.0-1.0-83.0","0","0","29380","","null","","","null","9","","","","","","","","","","","","","","","",""
"","ISI","","html-keyboard-response","64","259640","0.0-1.0-84.0","0","0","29380","","null","","","null","9","NaN","","","","","","","","","","","","","","",""
"","S2","","html-keyboard-response","65","259892","0.0-1.0-85.0","0","0","29380","","null","","","null","9","","NaN","","","","","","","","","","","","","",""
"","response","","html-keyboard-response","66","260300","0.0-1.0-86.0-0.0","0","0","29380","","405","","","75","9","","","1","9","training","adjacent","FG","6","7","R.jpg","M.jpg","0","1","0","",""
"","feedback","","html-keyboard-response","67","261314","0.0-1.0-87.0-0.0","0","0","29380","","null","","","null","9","","","","","","","","","","","","","","","",""
"","time_out","","html-keyboard-response","68","263331","0.0-1.0-89.0-0.0","0","0","29380","","null","","","null","9","","","","","","","","","","","","","","","",""
"","ITI","","html-keyboard-response","69","264342","0.0-1.0-90.0","0","0","29380","","null","","","null","9","","","","","","","","","","","","","","","NaN",""
"","S1","","html-keyboard-response","70","264609","0.0-1.0-92.0","0","0","29380","","null","","","null","10","","","","","","","","","","","","","","","",""
"","ISI","","html-keyboard-response","71","266617","0.0-1.0-93.0","0","0","29380","","null","","","null","10","NaN","","","","","","","","","","","","","","",""
"","S2","","html-keyboard-response","72","266869","0.0-1.0-94.0","0","0","29380","","null","","","null","10","","NaN","","","","","","","","","","","","","",""
"","response","","html-keyboard-response","73","267185","0.0-1.0-95.0-0.0","0","0","29380","","316","","","75","10","","","1","10","training","adjacent","AB","1","2","Q.jpg","O.jpg","0","1","0","",""
"","feedback","","html-keyboard-response","74","268198","0.0-1.0-96.0-0.0","0","0","29380","","null","","","null","10","","","","","","","","","","","","","","","",""
"","time_out","","html-keyboard-response","75","270200","0.0-1.0-98.0-0.0","0","0","29380","","null","","","null","10","","","","","","","","","","","","","","","",""
"","ITI","","html-keyboard-response","76","271215","0.0-1.0-99.0","0","0","29380","","null","","","null","10","","","","","","","","","","","","","","","NaN",""
"","S1","","html-keyboard-response","77","271479","0.0-1.0-101.0","0","0","29380","","null","","","null","11","","","","","","","","","","","","","","","",""
"","ISI","","html-keyboard-response","78","273482","0.0-1.0-102.0","0","0","29380","","null","","","null","11","NaN","","","","","","","","","","","","","","",""
"","S2","","html-keyboard-response","79","273737","0.0-1.0-103.0","0","0","29380","","null","","","null","11","","NaN","","","","","","","","","","","","","",""
"","response","","html-keyboard-response","80","274093","0.0-1.0-104.0-0.0","0","0","29380","","355","","","68","11","","","1","11","training","adjacent","DE","4","5","P.jpg","L.jpg","1","1","1","",""
"","feedback","","html-keyboard-response","81","275109","0.0-1.0-105.0-0.0","0","0","29380","","null","","","null","11","","","","","","","","","","","","","","","",""
"","ITI","","html-keyboard-response","82","276117","0.0-1.0-108.0","0","0","29380","","null","","","null","11","","","","","","","","","","","","","","","NaN",""
"","S1","","html-keyboard-response","83","276383","0.0-1.0-110.0","0","0","29380","","null","","","null","12","","","","","","","","","","","","","","","",""
"","ISI","","html-keyboard-response","84","278396","0.0-1.0-111.0","0","0","29380","","null","","","null","12","NaN","","","","","","","","","","","","","","",""
"","S2","","html-keyboard-response","85","278663","0.0-1.0-112.0","0","0","29380","","null","","","null","12","","NaN","","","","","","","","","","","","","",""
"","response","","html-keyboard-response","86","279009","0.0-1.0-113.0-0.0","0","0","29380","","345","","","68","12","","","1","12","training","adjacent","ED","5","4","L.jpg","P.jpg","1","0","0","",""
"","feedback","","html-keyboard-response","87","280021","0.0-1.0-114.0-0.0","0","0","29380","","null","","","null","12","","","","","","","","","","","","","","","",""
"","time_out","","html-keyboard-response","88","282026","0.0-1.0-116.0-0.0","0","0","29380","","null","","","null","12","","","","","","","","","","","","","","","",""
"","ITI","","html-keyboard-response","89","283036","0.0-1.0-117.0","0","0","29380","","null","","","null","12","","","","","","","","","","","","","","","NaN",""
"","S1","","html-keyboard-response","90","283291","0.0-1.0-119.0","0","0","29380","","null","","","null","13","","","","","","","","","","","","","","","",""
"","ISI","","html-keyboard-response","91","285308","0.0-1.0-120.0","0","0","29380","","null","","","null","13","NaN","","","","","","","","","","","","","","",""
"","S2","","html-keyboard-response","92","285561","0.0-1.0-121.0","0","0","29380","","null","","","null","13","","NaN","","","","","","","","","","","","","",""
"","response","","html-keyboard-response","93","285651","0.0-1.0-122.0-0.0","0","0","29380","","89","","","75","13","","","1","13","training","adjacent","BC","2","3","O.jpg","N.jpg","0","1","0","",""
"","feedback","","html-keyboard-response","94","286666","0.0-1.0-123.0-0.0","0","0","29380","","null","","","null","13","","","","","","","","","","","","","","","",""
"","time_out","","html-keyboard-response","95","288676","0.0-1.0-125.0-0.0","0","0","29380","","null","","","null","13","","","","","","","","","","","","","","","",""
"","ITI","","html-keyboard-response","96","289687","0.0-1.0-126.0","0","0","29380","","null","","","null","13","","","","","","","","","","","","","","","NaN",""
"","S1","","html-keyboard-response","97","289942","0.0-1.0-128.0","0","0","29380","","null","","","null","14","","","","","","","","","","","","","","","",""
"","ISI","","html-keyboard-response","98","291956","0.0-1.0-129.0","0","0","29380","","null","","","null","14","NaN","","","","","","","","","","","","","","",""
"","S2","","html-keyboard-response","99","292220","0.0-1.0-130.0","0","0","29380","","null","","","null","14","","NaN","","","","","","","","","","","","","",""
"","response","","html-keyboard-response","100","292471","0.0-1.0-131.0-0.0","0","0","29380","","249","","","68","14","","","1","14","training","adjacent","GF","7","6","M.jpg","R.jpg","1","0","0","",""
"","feedback","","html-keyboard-response","101","293483","0.0-1.0-132.0-0.0","0","0","29380","","null","","","null","14","","","","","","","","","","","","","","","",""
"","time_out","","html-keyboard-response","102","295486","0.0-1.0-134.0-0.0","0","0","29380","","null","","","null","14","","","","","","","","","","","","","","","",""
"","ITI","","html-keyboard-response","103","296503","0.0-1.0-135.0","0","0","29380","","null","","","null","14","","","","","","","","","","","","","","","NaN",""
"","S1","","html-keyboard-response","104","296757","0.0-1.0-137.0","0","0","29380","","null","","","null","15","","","","","","","","","","","","","","","",""
"","ISI","","html-keyboard-response","105","298771","0.0-1.0-138.0","0","0","29380","","null","","","null","15","NaN","","","","","","","","","","","","","","",""
"","S2","","html-keyboard-response","106","299023","0.0-1.0-139.0","0","0","29380","","null","","","null","15","","NaN","","","","","","","","","","","","","",""
"","response","","html-keyboard-response","107","299112","0.0-1.0-140.0-0.0","0","0","29380","","88","","","75","15","","","1","15","training","adjacent","FG","6","7","R.jpg","M.jpg","0","1","0","",""
"","feedback","","html-keyboard-response","108","300120","0.0-1.0-141.0-0.0","0","0","29380","","null","","","null","15","","","","","","","","","","","","","","","",""
"","time_out","","html-keyboard-response","109","302126","0.0-1.0-143.0-0.0","0","0","29380","","null","","","null","15","","","","","","","","","","","","","","","",""
"","ITI","","html-keyboard-response","110","303138","0.0-1.0-144.0","0","0","29380","","null","","","null","15","","","","","","","","","","","","","","","NaN",""
"","S1","","html-keyboard-response","111","303390","0.0-1.0-146.0","0","0","29380","","null","","","null","16","","","","","","","","","","","","","","","",""
"","ISI","","html-keyboard-response","112","305396","0.0-1.0-147.0","0","0","29380","","null","","","null","16","NaN","","","","","","","","","","","","","","",""
"","S2","","html-keyboard-response","113","305661","0.0-1.0-148.0","0","0","29380","","null","","","null","16","","NaN","","","","","","","","","","","","","",""
"","response","","html-keyboard-response","114","306021","0.0-1.0-149.0-0.0","0","0","29380","","359","","","68","16","","","1","16","training","adjacent","CB","3","2","N.jpg","O.jpg","1","0","0","",""
"","feedback","","html-keyboard-response","115","307035","0.0-1.0-150.0-0.0","0","0","29380","","null","","","null","16","","","","","","","","","","","","","","","",""
"","time_out","","html-keyboard-response","116","309039","0.0-1.0-152.0-0.0","0","0","29380","","null","","","null","16","","","","","","","","","","","","","","","",""
"","ITI","","html-keyboard-response","117","310051","0.0-1.0-153.0","0","0","29380","","null","","","null","16","","","","","","","","","","","","","","","NaN",""
"","S1","","html-keyboard-response","118","310306","0.0-1.0-155.0","0","0","29380","","null","","","null","17","","","","","","","","","","","","","","","",""
"","ISI","","html-keyboard-response","119","312319","0.0-1.0-156.0","0","0","29380","","null","","","null","17","NaN","","","","","","","","","","","","","","",""
"","S2","","html-keyboard-response","120","312574","0.0-1.0-157.0","0","0","29380","","null","","","null","17","","NaN","","","","","","","","","","","","","",""
"","response","","html-keyboard-response","121","312752","0.0-1.0-158.0-0.0","0","0","29380","","175","","","68","17","","","1","17","training","adjacent","CD","3","4","N.jpg","P.jpg","1","1","1","",""
"","feedback","","html-keyboard-response","122","313759","0.0-1.0-159.0-0.0","0","0","29380","","null","","","null","17","","","","","","","","","","","","","","","",""
"","ITI","","html-keyboard-response","123","314775","0.0-1.0-162.0","0","0","29380","","null","","","null","17","","","","","","","","","","","","","","","NaN",""
"","S1","","html-keyboard-response","124","315029","0.0-1.0-164.0","0","0","29380","","null","","","null","18","","","","","","","","","","","","","","","",""
"","ISI","","html-keyboard-response","125","317044","0.0-1.0-165.0","0","0","29380","","null","","","null","18","NaN","","","","","","","","","","","","","","",""
"","S2","","html-keyboard-response","126","317296","0.0-1.0-166.0","0","0","29380","","null","","","null","18","","NaN","","","","","","","","","","","","","",""
"","response","","html-keyboard-response","127","317379","0.0-1.0-167.0-0.0","0","0","29380","","82","","","75","18","","","1","18","training","adjacent","BA","2","1","O.jpg","Q.jpg","0","0","1","",""
"","feedback","","html-keyboard-response","128","318392","0.0-1.0-168.0-0.0","0","0","29380","","null","","","null","18","","","","","","","","","","","","","","","",""
"","ITI","","html-keyboard-response","129","319400","0.0-1.0-171.0","0","0","29380","","null","","","null","18","","","","","","","","","","","","","","","NaN",""
"","S1","","html-keyboard-response","130","319666","0.0-1.0-173.0","0","0","29380","","null","","","null","19","","","","","","","","","","","","","","","",""
"","ISI","","html-keyboard-response","131","321670","0.0-1.0-174.0","0","0","29380","","null","","","null","19","NaN","","","","","","","","","","","","","","",""
"","S2","","html-keyboard-response","132","321925","0.0-1.0-175.0","0","0","29380","","null","","","null","19","","NaN","","","","","","","","","","","","","",""
"","response","","html-keyboard-response","133","322051","0.0-1.0-176.0-0.0","0","0","29380","","124","","","68","19","","","1","19","training","adjacent","FE","6","5","R.jpg","L.jpg","1","0","0","",""
"","feedback","","html-keyboard-response","134","323053","0.0-1.0-177.0-0.0","0","0","29380","","null","","","null","19","","","","","","","","","","","","","","","",""
"","time_out","","html-keyboard-response","135","325056","0.0-1.0-179.0-0.0","0","0","29380","","null","","","null","19","","","","","","","","","","","","","","","",""
"","ITI","","html-keyboard-response","136","326069","0.0-1.0-180.0","0","0","29380","","null","","","null","19","","","","","","","","","","","","","","","NaN",""
"","S1","","html-keyboard-response","137","326322","0.0-1.0-182.0","0","0","29380","","null","","","null","20","","","","","","","","","","","","","","","",""
"","ISI","","html-keyboard-response","138","328335","0.0-1.0-183.0","0","0","29380","","null","","","null","20","NaN","","","","","","","","","","","","","","",""
"","S2","","html-keyboard-response","139","328589","0.0-1.0-184.0","0","0","29380","","null","","","null","20","","NaN","","","","","","","","","","","","","",""
"","response","","html-keyboard-response","140","328737","0.0-1.0-185.0-0.0","0","0","29380","","146","","","68","20","","","1","20","training","adjacent","EF","5","6","L.jpg","R.jpg","1","1","1","",""
"","feedback","","html-keyboard-response","141","329746","0.0-1.0-186.0-0.0","0","0","29380","","null","","","null","20","","","","","","","","","","","","","","","",""
"","ITI","","html-keyboard-response","142","330758","0.0-1.0-189.0","0","0","29380","","null","","","null","20","","","","","","","","","","","","","","","NaN",""
"","S1","","html-keyboard-response","143","331010","0.0-1.0-191.0","0","0","29380","","null","","","null","21","","","","","","","","","","","","","","","",""
"","ISI","","html-keyboard-response","144","333023","0.0-1.0-192.0","0","0","29380","","null","","","null","21","NaN","","","","","","","","","","","","","","",""
"","S2","","html-keyboard-response","145","333275","0.0-1.0-193.0","0","0","29380","","null","","","null","21","","NaN","","","","","","","","","","","","","",""
"","response","","html-keyboard-response","146","333277","0.0-1.0-194.0-0.0","0","0","29380","","0","","","75","21","","","1","21","training","adjacent","CD","3","4","N.jpg","P.jpg","0","1","0","",""
"","feedback","","html-keyboard-response","147","334284","0.0-1.0-195.0-0.0","0","0","29380","","null","","","null","21","","","","","","","","","","","","","","","",""
"","time_out","","html-keyboard-response","148","336289","0.0-1.0-197.0-0.0","0","0","29380","","null","","","null","21","","","","","","","","","","","","","","","",""
"","ITI","","html-keyboard-response","149","337304","0.0-1.0-198.0","0","0","29380","","null","","","null","21","","","","","","","","","","","","","","","NaN",""
"","S1","","html-keyboard-response","150","337555","0.0-1.0-200.0","0","0","29380","","null","","","null","22","","","","","","","","","","","","","","","",""
"","ISI","","html-keyboard-response","151","339569","0.0-1.0-201.0","0","0","29380","","null","","","null","22","NaN","","","","","","","","","","","","","","",""
"","S2","","html-keyboard-response","152","339821","0.0-1.0-202.0","0","0","29380","","null","","","null","22","","NaN","","","","","","","","","","","","","",""
"","response","","html-keyboard-response","153","340029","0.0-1.0-203.0-0.0","0","0","29380","","207","","","68","22","","","1","22","training","adjacent","GF","7","6","M.jpg","R.jpg","1","0","0","",""
"","feedback","","html-keyboard-response","154","341037","0.0-1.0-204.0-0.0","0","0","29380","","null","","","null","22","","","","","","","","","","","","","","","",""
"","time_out","","html-keyboard-response","155","343049","0.0-1.0-206.0-0.0","0","0","29380","","null","","","null","22","","","","","","","","","","","","","","","",""
"","ITI","","html-keyboard-response","156","344062","0.0-1.0-207.0","0","0","29380","","null","","","null","22","","","","","","","","","","","","","","","NaN",""
"","S1","","html-keyboard-response","157","344316","0.0-1.0-209.0","0","0","29380","","null","","","null","23","","","","","","","","","","","","","","","",""
"","ISI","","html-keyboard-response","158","346332","0.0-1.0-210.0","0","0","29380","","null","","","null","23","NaN","","","","","","","","","","","","","","",""
"","S2","","html-keyboard-response","159","346585","0.0-1.0-211.0","0","0","29380","","null","","","null","23","","NaN","","","","","","","","","","","","","",""
"","response","","html-keyboard-response","160","346693","0.0-1.0-212.0-0.0","0","0","29380","","106","","","68","23","","","1","23","training","adjacent","DC","4","3","P.jpg","N.jpg","1","0","0","",""
"","feedback","","html-keyboard-response","161","347708","0.0-1.0-213.0-0.0","0","0","29380","","null","","","null","23","","","","","","","","","","","","","","","",""
"","time_out","","html-keyboard-response","162","349724","0.0-1.0-215.0-0.0","0","0","29380","","null","","","null","23","","","","","","","","","","","","","","","",""
"","ITI","","html-keyboard-response","163","350727","0.0-1.0-216.0","0","0","29380","","null","","","null","23","","","","","","","","","","","","","","","NaN",""
"","S1","","html-keyboard-response","164","350981","0.0-1.0-218.0","0","0","29380","","null","","","null","24","","","","","","","","","","","","","","","",""
"","ISI","","html-keyboard-response","165","352989","0.0-1.0-219.0","0","0","29380","","null","","","null","24","NaN","","","","","","","","","","","","","","",""
"","S2","","html-keyboard-response","166","353242","0.0-1.0-220.0","0","0","29380","","null","","","null","24","","NaN","","","","","","","","","","","","","",""
"","response","","html-keyboard-response","167","353313","0.0-1.0-221.0-0.0","0","0","29380","","70","","","75","24","","","1","24","training","adjacent","CD","3","4","N.jpg","P.jpg","0","1","0","",""
"","feedback","","html-keyboard-response","168","354329","0.0-1.0-222.0-0.0","0","0","29380","","null","","","null","24","","","","","","","","","","","","","","","",""
"","time_out","","html-keyboard-response","169","356331","0.0-1.0-224.0-0.0","0","0","29380","","null","","","null","24","","","","","","","","","","","","","","","",""
"","ITI","","html-keyboard-response","170","357348","0.0-1.0-225.0","0","0","29380","","null","","","null","24","","","","","","","","","","","","","","","NaN",""
"","S1","","html-keyboard-response","171","357602","0.0-1.0-227.0","0","0","29380","","null","","","null","25","","","","","","","","","","","","","","","",""
"","ISI","","html-keyboard-response","172","359610","0.0-1.0-228.0","0","0","29380","","null","","","null","25","NaN","","","","","","","","","","","","","","",""
"","S2","","html-keyboard-response","173","359865","0.0-1.0-229.0","0","0","29380","","null","","","null","25","","NaN","","","","","","","","","","","","","",""
"","response","","html-keyboard-response","174","360112","0.0-1.0-230.0-0.0","0","0","29380","","246","","","75","25","","","1","25","training","adjacent","ED","5","4","L.jpg","P.jpg","0","0","1","",""
"","feedback","","html-keyboard-response","175","361124","0.0-1.0-231.0-0.0","0","0","29380","","null","","","null","25","","","","","","","","","","","","","","","",""
"","ITI","","html-keyboard-response","176","362138","0.0-1.0-234.0","0","0","29380","","null","","","null","25","","","","","","","","","","","","","","","NaN",""
"","S1","","html-keyboard-response","177","362391","0.0-1.0-236.0","0","0","29380","","null","","","null","26","","","","","","","","","","","","","","","",""
"","ISI","","html-keyboard-response","178","364393","0.0-1.0-237.0","0","0","29380","","null","","","null","26","NaN","","","","","","","","","","","","","","",""
"","S2","","html-keyboard-response","179","364647","0.0-1.0-238.0","0","0","29380","","null","","","null","26","","NaN","","","","","","","","","","","","","",""
"","response","","html-keyboard-response","180","364650","0.0-1.0-239.0-0.0","0","0","29380","","2","","","75","26","","","1","26","training","adjacent","CB","3","2","N.jpg","O.jpg","0","0","1","",""
"","feedback","","html-keyboard-response","181","365662","0.0-1.0-240.0-0.0","0","0","29380","","null","","","null","26","","","","","","","","","","","","","","","",""
"","ITI","","html-keyboard-response","182","366677","0.0-1.0-243.0","0","0","29380","","null","","","null","26","","","","","","","","","","","","","","","NaN",""
"","S1","","html-keyboard-response","183","366943","0.0-1.0-245.0","0","0","29380","","null","","","null","27","","","","","","","","","","","","","","","",""
"","ISI","","html-keyboard-response","184","368950","0.0-1.0-246.0","0","0","29380","","null","","","null","27","NaN","","","","","","","","","","","","","","",""
"","S2","","html-keyboard-response","185","369203","0.0-1.0-247.0","0","0","29380","","null","","","null","27","","NaN","","","","","","","","","","","","","",""
"","response","","html-keyboard-response","186","369233","0.0-1.0-248.0-0.0","0","0","29380","","28","","","75","27","","","1","27","training","adjacent","EF","5","6","L.jpg","R.jpg","0","1","0","",""
"","feedback","","html-keyboard-response","187","370245","0.0-1.0-249.0-0.0","0","0","29380","","null","","","null","27","","","","","","","","","","","","","","","",""
"","time_out","","html-keyboard-response","188","372247","0.0-1.0-251.0-0.0","0","0","29380","","null","","","null","27","","","","","","","","","","","","","","","",""
"","ITI","","html-keyboard-response","189","373262","0.0-1.0-252.0","0","0","29380","","null","","","null","27","","","","","","","","","","","","","","","NaN",""
"","S1","","html-keyboard-response","190","373516","0.0-1.0-254.0","0","0","29380","","null","","","null","28","","","","","","","","","","","","","","","",""
"","ISI","","html-keyboard-response","191","375521","0.0-1.0-255.0","0","0","29380","","null","","","null","28","NaN","","","","","","","","","","","","","","",""
"","S2","","html-keyboard-response","192","375764","0.0-1.0-256.0","0","0","29380","","242","","","75","28","","k","1","28","training","adjacent","GF","7","6","M.jpg","R.jpg","0","0","1","",""
"","feedback","","html-keyboard-response","193","376774","0.0-1.0-258.0-0.0","0","0","29380","","null","","","null","28","","","","","","","","","","","","","","","",""
"","ITI","","html-keyboard-response","194","377777","0.0-1.0-261.0","0","0","29380","","null","","","null","28","","","","","","","","","","","","","","","NaN",""
"","S1","","html-keyboard-response","195","378029","0.0-1.0-263.0","0","0","29380","","null","","","null","29","","","","","","","","","","","","","","","",""
"","ISI","","html-keyboard-response","196","380040","0.0-1.0-264.0","0","0","29380","","null","","","null","29","NaN","","","","","","","","","","","","","","",""
"","S2","","html-keyboard-response","197","380293","0.0-1.0-265.0","0","0","29380","","null","","","null","29","","NaN","","","","","","","","","","","","","",""
"","response","","html-keyboard-response","198","380304","0.0-1.0-266.0-0.0","0","0","29380","","9","","","68","29","","","1","29","training","adjacent","DC","4","3","P.jpg","N.jpg","1","0","0","",""
"","feedback","","html-keyboard-response","199","381314","0.0-1.0-267.0-0.0","0","0","29380","","null","","","null","29","","","","","","","","","","","","","","","",""
"","time_out","","html-keyboard-response","200","383321","0.0-1.0-269.0-0.0","0","0","29380","","null","","","null","29","","","","","","","","","","","","","","","",""
"","ITI","","html-keyboard-response","201","384327","0.0-1.0-270.0","0","0","29380","","null","","","null","29","","","","","","","","","","","","","","","NaN",""
"","S1","","html-keyboard-response","202","384579","0.0-1.0-272.0","0","0","29380","","null","","","null","30","","","","","","","","","","","","","","","",""
"","ISI","","html-keyboard-response","203","386592","0.0-1.0-273.0","0","0","29380","","null","","","null","30","NaN","","","","","","","","","","","","","","",""
"","S2","","html-keyboard-response","204","386848","0.0-1.0-274.0","0","0","29380","","null","","","null","30","","NaN","","","","","","","","","","","","","",""
"","response","","html-keyboard-response","205","386880","0.0-1.0-275.0-0.0","0","0","29380","","31","","","75","30","","","1","30","training","adjacent","DC","4","3","P.jpg","N.jpg","0","0","1","",""
"","feedback","","html-keyboard-response","206","387893","0.0-1.0-276.0-0.0","0","0","29380","","null","","","null","30","","","","","","","","","","","","","","","",""
"","ITI","","html-keyboard-response","207","388908","0.0-1.0-279.0","0","0","29380","","null","","","null","30","","","","","","","","","","","","","","","NaN",""
"","S1","","html-keyboard-response","208","389164","0.0-1.0-281.0","0","0","29380","","null","","","null","31","","","","","","","","","","","","","","","",""
"","ISI","","html-keyboard-response","209","391171","0.0-1.0-282.0","0","0","29380","","null","","","null","31","NaN","","","","","","","","","","","","","","",""
"","S2","","html-keyboard-response","210","391438","0.0-1.0-283.0","0","0","29380","","null","","","null","31","","NaN","","","","","","","","","","","","","",""
"","response","","html-keyboard-response","211","391462","0.0-1.0-284.0-0.0","0","0","29380","","24","","","75","31","","","1","31","training","adjacent","CD","3","4","N.jpg","P.jpg","0","1","0","",""
"","feedback","","html-keyboard-response","212","392477","0.0-1.0-285.0-0.0","0","0","29380","","null","","","null","31","","","","","","","","","","","","","","","",""
"","time_out","","html-keyboard-response","213","394492","0.0-1.0-287.0-0.0","0","0","29380","","null","","","null","31","","","","","","","","","","","","","","","",""
"","ITI","","html-keyboard-response","214","395507","0.0-1.0-288.0","0","0","29380","","null","","","null","31","","","","","","","","","","","","","","","NaN",""
"","S1","","html-keyboard-response","215","395773","0.0-1.0-290.0","0","0","29380","","null","","","null","32","","","","","","","","","","","","","","","",""
"","ISI","","html-keyboard-response","216","397775","0.0-1.0-291.0","0","0","29380","","null","","","null","32","NaN","","","","","","","","","","","","","","",""
"","S2","","html-keyboard-response","217","398029","0.0-1.0-292.0","0","0","29380","","null","","","null","32","","NaN","","","","","","","","","","","","","",""
"","response","","html-keyboard-response","218","398062","0.0-1.0-293.0-0.0","0","0","29380","","30","","","75","32","","","1","32","training","adjacent","DE","4","5","P.jpg","L.jpg","0","1","0","",""
"","feedback","","html-keyboard-response","219","399074","0.0-1.0-294.0-0.0","0","0","29380","","null","","","null","32","","","","","","","","","","","","","","","",""
"","time_out","","html-keyboard-response","220","401082","0.0-1.0-296.0-0.0","0","0","29380","","null","","","null","32","","","","","","","","","","","","","","","",""
"","ITI","","html-keyboard-response","221","402096","0.0-1.0-297.0","0","0","29380","","null","","","null","32","","","","","","","","","","","","","","","NaN",""
"","S1","","html-keyboard-response","222","402350","0.0-1.0-299.0","0","0","29380","","null","","","null","33","","","","","","","","","","","","","","","",""
"","ISI","","html-keyboard-response","223","404357","0.0-1.0-300.0","0","0","29380","","null","","","null","33","NaN","","","","","","","","","","","","","","",""
"","S2","","html-keyboard-response","224","404609","0.0-1.0-301.0","0","0","29380","","null","","","null","33","","NaN","","","","","","","","","","","","","",""
"","response","","html-keyboard-response","225","404637","0.0-1.0-302.0-0.0","0","0","29380","","26","","","75","33","","","1","33","training","adjacent","FE","6","5","R.jpg","L.jpg","0","0","1","",""
"","feedback","","html-keyboard-response","226","405653","0.0-1.0-303.0-0.0","0","0","29380","","null","","","null","33","","","","","","","","","","","","","","","",""
"","ITI","","html-keyboard-response","227","406669","0.0-1.0-306.0","0","0","29380","","null","","","null","33","","","","","","","","","","","","","","","NaN",""
"","S1","","html-keyboard-response","228","406935","0.0-1.0-308.0","0","0","29380","","null","","","null","34","","","","","","","","","","","","","","","",""
"","ISI","","html-keyboard-response","229","408940","0.0-1.0-309.0","0","0","29380","","null","","","null","34","NaN","","","","","","","","","","","","","","",""
"","S2","","html-keyboard-response","230","409194","0.0-1.0-310.0","0","0","29380","","null","","","null","34","","NaN","","","","","","","","","","","","","",""
"","response","","html-keyboard-response","231","409220","0.0-1.0-311.0-0.0","0","0","29380","","25","","","68","34","","","1","34","training","adjacent","DC","4","3","P.jpg","N.jpg","1","0","0","",""
"","feedback","","html-keyboard-response","232","410230","0.0-1.0-312.0-0.0","0","0","29380","","null","","","null","34","","","","","","","","","","","","","","","",""
"","time_out","","html-keyboard-response","233","412245","0.0-1.0-314.0-0.0","0","0","29380","","null","","","null","34","","","","","","","","","","","","","","","",""
"","ITI","","html-keyboard-response","234","413261","0.0-1.0-315.0","0","0","29380","","null","","","null","34","","","","","","","","","","","","","","","NaN",""
"","S1","","html-keyboard-response","235","413514","0.0-1.0-317.0","0","0","29380","","null","","","null","35","","","","","","","","","","","","","","","",""
"","ISI","","html-keyboard-response","236","415529","0.0-1.0-318.0","0","0","29380","","null","","","null","35","NaN","","","","","","","","","","","","","","",""
"","S2","","html-keyboard-response","237","415781","0.0-1.0-319.0","0","0","29380","","null","","","null","35","","NaN","","","","","","","","","","","","","",""
"","response","","html-keyboard-response","238","415795","0.0-1.0-320.0-0.0","0","0","29380","","12","","","75","35","","","1","35","training","adjacent","CB","3","2","N.jpg","O.jpg","0","0","1","",""
"","feedback","","html-keyboard-response","239","416808","0.0-1.0-321.0-0.0","0","0","29380","","null","","","null","35","","","","","","","","","","","","","","","",""
"","ITI","","html-keyboard-response","240","417823","0.0-1.0-324.0","0","0","29380","","null","","","null","35","","","","","","","","","","","","","","","NaN",""
"","S1","","html-keyboard-response","241","418078","0.0-1.0-326.0","0","0","29380","","null","","","null","36","","","","","","","","","","","","","","","",""
"","ISI","","html-keyboard-response","242","420095","0.0-1.0-327.0","0","0","29380","","null","","","null","36","NaN","","","","","","","","","","","","","","",""
"","S2","","html-keyboard-response","243","420361","0.0-1.0-328.0","0","0","29380","","null","","","null","36","","NaN","","","","","","","","","","","","","",""
"","response","","html-keyboard-response","244","420402","0.0-1.0-329.0-0.0","0","0","29380","","39","","","68","36","","","1","36","training","adjacent","BA","2","1","O.jpg","Q.jpg","1","0","0","",""
"","feedback","","html-keyboard-response","245","421412","0.0-1.0-330.0-0.0","0","0","29380","","null","","","null","36","","","","","","","","","","","","","","","",""
"","time_out","","html-keyboard-response","246","423419","0.0-1.0-332.0-0.0","0","0","29380","","null","","","null","36","","","","","","","","","","","","","","","",""
"","ITI","","html-keyboard-response","247","424423","0.0-1.0-333.0","0","0","29380","","null","","","null","36","","","","","","","","","","","","","","","NaN",""
"","S1","","html-keyboard-response","248","424677","0.0-1.0-335.0","0","0","29380","","null","","","null","37","","","","","","","","","","","","","","","",""
"","ISI","","html-keyboard-response","249","426685","0.0-1.0-336.0","0","0","29380","","null","","","null","37","NaN","","","","","","","","","","","","","","",""
"","S2","","html-keyboard-response","250","426951","0.0-1.0-337.0","0","0","29380","","null","","","null","37","","NaN","","","","","","","","","","","","","",""
"","response","","html-keyboard-response","251","426954","0.0-1.0-338.0-0.0","0","0","29380","","2","","","68","37","","","1","37","training","adjacent","GF","7","6","M.jpg","R.jpg","1","0","0","",""
"","feedback","","html-keyboard-response","252","427962","0.0-1.0-339.0-0.0","0","0","29380","","null","","","null","37","","","","","","","","","","","","","","","",""
"","time_out","","html-keyboard-response","253","429975","0.0-1.0-341.0-0.0","0","0","29380","","null","","","null","37","","","","","","","","","","","","","","","",""
"","ITI","","html-keyboard-response","254","430985","0.0-1.0-342.0","0","0","29380","","null","","","null","37","","","","","","","","","","","","","","","NaN",""
"","S1","","html-keyboard-response","255","431238","0.0-1.0-344.0","0","0","29380","","null","","","null","38","","","","","","","","","","","","","","","",""
"","ISI","","html-keyboard-response","256","433250","0.0-1.0-345.0","0","0","29380","","null","","","null","38","NaN","","","","","","","","","","","","","","",""
"","S2","","html-keyboard-response","257","433503","0.0-1.0-346.0","0","0","29380","","null","","","null","38","","NaN","","","","","","","","","","","","","",""
"","response","","html-keyboard-response","258","433530","0.0-1.0-347.0-0.0","0","0","29380","","26","","","68","38","","","1","38","training","adjacent","BC","2","3","O.jpg","N.jpg","1","1","1","",""
"","feedback","","html-keyboard-response","259","434536","0.0-1.0-348.0-0.0","0","0","29380","","null","","","null","38","","","","","","","","","","","","","","","",""
"","ITI","","html-keyboard-response","260","435540","0.0-1.0-351.0","0","0","29380","","null","","","null","38","","","","","","","","","","","","","","","NaN",""
"","S1","","html-keyboard-response","261","435794","0.0-1.0-353.0","0","0","29380","","null","","","null","39","","","","","","","","","","","","","","","",""
"","ISI","","html-keyboard-response","262","437805","0.0-1.0-354.0","0","0","29380","","null","","","null","39","NaN","","","","","","","","","","","","","","",""
"","S2","","html-keyboard-response","263","438057","0.0-1.0-355.0","0","0","29380","","null","","","null","39","","NaN","","","","","","","","","","","","","",""
"","response","","html-keyboard-response","264","438069","0.0-1.0-356.0-0.0","0","0","29380","","11","","","75","39","","","1","39","training","adjacent","DE","4","5","P.jpg","L.jpg","0","1","0","",""
"","feedback","","html-keyboard-response","265","439085","0.0-1.0-357.0-0.0","0","0","29380","","null","","","null","39","","","","","","","","","","","","","","","",""
"","time_out","","html-keyboard-response","266","441100","0.0-1.0-359.0-0.0","0","0","29380","","null","","","null","39","","","","","","","","","","","","","","","",""
"","ITI","","html-keyboard-response","267","442107","0.0-1.0-360.0","0","0","29380","","null","","","null","39","","","","","","","","","","","","","","","NaN",""
"","S1","","html-keyboard-response","268","442362","0.0-1.0-362.0","0","0","29380","","null","","","null","40","","","","","","","","","","","","","","","",""
"","ISI","","html-keyboard-response","269","444371","0.0-1.0-363.0","0","0","29380","","134","","","68","40","d","","","","","","","","","","","","","","",""
"","S2","","html-keyboard-response","270","444638","0.0-1.0-364.0","0","0","29380","","null","","","null","40","","NaN","","","","","","","","","","","","","",""
"","response","","html-keyboard-response","271","444667","0.0-1.0-365.0-0.0","0","0","29380","","28","","","75","40","","","1","40","training","adjacent","AB","1","2","Q.jpg","O.jpg","0","1","0","",""
"","feedback","","html-keyboard-response","272","445674","0.0-1.0-366.0-0.0","0","0","29380","","null","","","null","40","","","","","","","","","","","","","","","",""
"","time_out","","html-keyboard-response","273","447679","0.0-1.0-368.0-0.0","0","0","29380","","null","","","null","40","","","","","","","","","","","","","","","",""
"","ITI","","html-keyboard-response","274","448694","0.0-1.0-369.0","0","0","29380","","null","","","null","40","","","","","","","","","","","","","","","NaN",""
"","S1","","html-keyboard-response","275","448951","0.0-1.0-371.0","0","0","29380","","null","","","null","41","","","","","","","","","","","","","","","",""
"","ISI","","html-keyboard-response","276","450961","0.0-1.0-372.0","0","0","29380","","null","","","null","41","NaN","","","","","","","","","","","","","","",""
"","S2","","html-keyboard-response","277","451216","0.0-1.0-373.0","0","0","29380","","null","","","null","41","","NaN","","","","","","","","","","","","","",""
"","response","","html-keyboard-response","278","451309","0.0-1.0-374.0-0.0","0","0","29380","","92","","","75","41","","","1","41","training","adjacent","BA","2","1","O.jpg","Q.jpg","0","0","1","",""
"","feedback","","html-keyboard-response","279","452317","0.0-1.0-375.0-0.0","0","0","29380","","null","","","null","41","","","","","","","","","","","","","","","",""
"","ITI","","html-keyboard-response","280","453320","0.0-1.0-378.0","0","0","29380","","null","","","null","41","","","","","","","","","","","","","","","NaN",""
"","S1","","html-keyboard-response","281","453572","0.0-1.0-380.0","0","0","29380","","null","","","null","42","","","","","","","","","","","","","","","",""
"","ISI","","html-keyboard-response","282","455583","0.0-1.0-381.0","0","0","29380","","1500","","","75","42","k","","","","","","","","","","","","","","",""
"","S2","","html-keyboard-response","283","455760","0.0-1.0-382.0","0","0","29380","","174","","","75","42","","k","1","42","training","adjacent","DE","4","5","P.jpg","L.jpg","0","1","0","",""
"","feedback","","html-keyboard-response","284","456766","0.0-1.0-384.0-0.0","0","0","29380","","null","","","null","42","","","","","","","","","","","","","","","",""
"","time_out","","html-keyboard-response","285","458775","0.0-1.0-386.0-0.0","0","0","29380","","null","","","null","42","","","","","","","","","","","","","","","",""
"","ITI","","html-keyboard-response","286","459780","0.0-1.0-387.0","0","0","29380","","null","","","null","42","","","","","","","","","","","","","","","NaN",""
"","S1","","html-keyboard-response","287","460032","0.0-1.0-389.0","0","0","29380","","null","","","null","43","","","","","","","","","","","","","","","",""
"","ISI","","html-keyboard-response","288","462040","0.0-1.0-390.0","0","0","29380","","242","","","68","43","d","","","","","","","","","","","","","","",""
"","S2","","html-keyboard-response","289","462307","0.0-1.0-391.0","0","0","29380","","null","","","null","43","","NaN","","","","","","","","","","","","","",""
"","response","","html-keyboard-response","290","462336","0.0-1.0-392.0-0.0","0","0","29380","","27","","","68","43","","","1","43","training","adjacent","BA","2","1","O.jpg","Q.jpg","1","0","0","",""
"","feedback","","html-keyboard-response","291","463339","0.0-1.0-393.0-0.0","0","0","29380","","null","","","null","43","","","","","","","","","","","","","","","",""
"","time_out","","html-keyboard-response","292","465341","0.0-1.0-395.0-0.0","0","0","29380","","null","","","null","43","","","","","","","","","","","","","","","",""
"","ITI","","html-keyboard-response","293","466348","0.0-1.0-396.0","0","0","29380","","null","","","null","43","","","","","","","","","","","","","","","NaN",""
"","S1","","html-keyboard-response","294","466602","0.0-1.0-398.0","0","0","29380","","null","","","null","44","","","","","","","","","","","","","","","",""
"","ISI","","html-keyboard-response","295","468617","0.0-1.0-399.0","0","0","29380","","null","","","null","44","NaN","","","","","","","","","","","","","","",""
"","S2","","html-keyboard-response","296","468870","0.0-1.0-400.0","0","0","29380","","null","","","null","44","","NaN","","","","","","","","","","","","","",""
"","response","","html-keyboard-response","297","469931","0.0-1.0-401.0-0.0","0","0","29380","","1059","","","75","44","","","1","44","training","adjacent","AB","1","2","Q.jpg","O.jpg","0","1","0","",""
"","feedback","","html-keyboard-response","298","470938","0.0-1.0-402.0-0.0","0","0","29380","","null","","","null","44","","","","","","","","","","","","","","","",""
"","time_out","","html-keyboard-response","299","472942","0.0-1.0-404.0-0.0","0","0","29380","","null","","","null","44","","","","","","","","","","","","","","","",""
"","ITI","","html-keyboard-response","300","473949","0.0-1.0-405.0","0","0","29380","","null","","","null","44","","","","","","","","","","","","","","","NaN",""
"","S1","","html-keyboard-response","301","474214","0.0-1.0-407.0","0","0","29380","","null","","","null","45","","","","","","","","","","","","","","","",""
"","ISI","","html-keyboard-response","302","476223","0.0-1.0-408.0","0","0","29380","","null","","","null","45","NaN","","","","","","","","","","","","","","",""
"","S2","","html-keyboard-response","303","476478","0.0-1.0-409.0","0","0","29380","","null","","","null","45","","NaN","","","","","","","","","","","","","",""
"","response","","html-keyboard-response","304","478241","0.0-1.0-410.0-0.0","0","0","29380","","null","","","null","45","","","1","45","training","adjacent","FE","6","5","R.jpg","L.jpg","NaN","0","0","",""
"","too_slow_prompt","","html-keyboard-response","305","479253","0.0-1.0-412.0-0.0","1","0","29380","","null","","","null","","","","","","","","","","","","","","","","",""
"","time_out","","html-keyboard-response","306","481257","0.0-1.0-413.0-0.0","0","0","29380","","null","","","null","45","","","","","","","","","","","","","","","",""
"","ITI","","html-keyboard-response","307","482267","0.0-1.0-414.0","0","0","29380","","null","","","null","45","","","","","","","","","","","","","","","NaN",""
"","S1","","html-keyboard-response","308","482532","0.0-1.0-416.0","0","0","29380","","null","","","null","46","","","","","","","","","","","","","","","",""
"","ISI","","html-keyboard-response","309","484539","0.0-1.0-417.0","0","0","29380","","526","","","68","46","d","","","","","","","","","","","","","","",""
"","S2","","html-keyboard-response","310","484631","0.0-1.0-418.0","0","0","29380","","90","","","68","46","","d","1","46","training","adjacent","FG","6","7","R.jpg","M.jpg","1","1","1","",""
"","feedback","","html-keyboard-response","311","485637","0.0-1.0-420.0-0.0","0","0","29380","","null","","","null","46","","","","","","","","","","","","","","","",""
"","ITI","","html-keyboard-response","312","486651","0.0-1.0-423.0","0","0","29380","","null","","","null","46","","","","","","","","","","","","","","","NaN",""
"","S1","","html-keyboard-response","313","486917","0.0-1.0-425.0","0","0","29380","","null","","","null","47","","","","","","","","","","","","","","","",""
"","ISI","","html-keyboard-response","314","488921","0.0-1.0-426.0","0","0","29380","","1455","","","75","47","k","","","","","","","","","","","","","","",""
"","S2","","html-keyboard-response","315","489187","0.0-1.0-427.0","0","0","29380","","null","","","null","47","","NaN","","","","","","","","","","","","","",""
"","response","","html-keyboard-response","316","489549","0.0-1.0-428.0-0.0","0","0","29380","","358","","","75","47","","","1","47","training","adjacent","ED","5","4","L.jpg","P.jpg","0","0","1","",""
"","feedback","","html-keyboard-response","317","490551","0.0-1.0-429.0-0.0","0","0","29380","","null","","","null","47","","","","","","","","","","","","","","","",""
"","ITI","","html-keyboard-response","318","491557","0.0-1.0-432.0","0","0","29380","","null","","","null","47","","","","","","","","","","","","","","","NaN",""
"","block_over","","html-keyboard-response","319","521631","0.0-1.0-433.0-0.0","0","0","29380","","30070","","","32","47","","","","","","","","","","","","","","","",""
"","S1","","html-keyboard-response","320","521892","0.0-1.0-434.0","0","0","29380","","null","","","null","48","","","","","","","","","","","","","","","",""
"","ISI","","html-keyboard-response","321","523901","0.0-1.0-435.0","0","0","29380","","null","","","null","48","NaN","","","","","","","","","","","","","","",""
"","S2","","html-keyboard-response","322","524168","0.0-1.0-436.0","0","0","29380","","null","","","null","48","","NaN","","","","","","","","","","","","","",""
"","response","","html-keyboard-response","323","524597","0.0-1.0-437.0-0.0","0","0","29380","","427","","","75","48","","","2","48","training","adjacent","FE","6","5","R.jpg","L.jpg","0","0","1","",""
"","feedback","","html-keyboard-response","324","525606","0.0-1.0-438.0-0.0","0","0","29380","","null","","","null","48","","","","","","","","","","","","","","","",""
"","ITI","","html-keyboard-response","325","526615","0.0-1.0-441.0","0","0","29380","","null","","","null","48","","","","","","","","","","","","","","","NaN",""
"","S1","","html-keyboard-response","326","526870","0.0-1.0-443.0","0","0","29380","","null","","","null","49","","","","","","","","","","","","","","","",""
"","ISI","","html-keyboard-response","327","528873","0.0-1.0-444.0","0","0","29380","","null","","","null","49","NaN","","","","","","","","","","","","","","",""
"","S2","","html-keyboard-response","328","529129","0.0-1.0-445.0","0","0","29380","","null","","","null","49","","NaN","","","","","","","","","","","","","",""
"","response","","html-keyboard-response","329","529601","0.0-1.0-446.0-0.0","0","0","29380","","469","","","75","49","","","2","49","training","adjacent","CD","3","4","N.jpg","P.jpg","0","1","0","",""
"","feedback","","html-keyboard-response","330","530606","0.0-1.0-447.0-0.0","0","0","29380","","null","","","null","49","","","","","","","","","","","","","","","",""
"","time_out","","html-keyboard-response","331","532617","0.0-1.0-449.0-0.0","0","0","29380","","null","","","null","49","","","","","","","","","","","","","","","",""
"","ITI","","html-keyboard-response","332","533630","0.0-1.0-450.0","0","0","29380","","null","","","null","49","","","","","","","","","","","","","","","NaN",""
"","S1","","html-keyboard-response","333","533883","0.0-1.0-452.0","0","0","29380","","null","","","null","50","","","","","","","","","","","","","","","",""
"","ISI","","html-keyboard-response","334","535886","0.0-1.0-453.0","0","0","29380","","null","","","null","50","NaN","","","","","","","","","","","","","","",""
"","S2","","html-keyboard-response","335","536141","0.0-1.0-454.0","0","0","29380","","null","","","null","50","","NaN","","","","","","","","","","","","","",""
"","response","","html-keyboard-response","336","536464","0.0-1.0-455.0-0.0","0","0","29380","","322","","","75","50","","","2","50","training","adjacent","DC","4","3","P.jpg","N.jpg","0","0","1","",""
"","feedback","","html-keyboard-response","337","537469","0.0-1.0-456.0-0.0","0","0","29380","","null","","","null","50","","","","","","","","","","","","","","","",""
"","ITI","","html-keyboard-response","338","538483","0.0-1.0-459.0","0","0","29380","","null","","","null","50","","","","","","","","","","","","","","","NaN",""
"","S1","","html-keyboard-response","339","538738","0.0-1.0-461.0","0","0","29380","","null","","","null","51","","","","","","","","","","","","","","","",""
"","ISI","","html-keyboard-response","340","540743","0.0-1.0-462.0","0","0","29380","","1444","","","75","51","k","","","","","","","","","","","","","","",""
"","S2","","html-keyboard-response","341","540996","0.0-1.0-463.0","0","0","29380","","null","","","null","51","","NaN","","","","","","","","","","","","","",""
"","response","","html-keyboard-response","342","541006","0.0-1.0-464.0-0.0","0","0","29380","","8","","","75","51","","","2","51","training","adjacent","BA","2","1","O.jpg","Q.jpg","0","0","1","",""
"","feedback","","html-keyboard-response","343","542024","0.0-1.0-465.0-0.0","0","0","29380","","null","","","null","51","","","","","","","","","","","","","","","",""
"","ITI","","html-keyboard-response","344","543036","0.0-1.0-468.0","0","0","29380","","null","","","null","51","","","","","","","","","","","","","","","NaN",""
"","S1","","html-keyboard-response","345","543288","0.0-1.0-470.0","0","0","29380","","null","","","null","52","","","","","","","","","","","","","","","",""
"","ISI","","html-keyboard-response","346","545298","0.0-1.0-471.0","0","0","29380","","null","","","null","52","NaN","","","","","","","","","","","","","","",""
"","S2","","html-keyboard-response","347","545566","0.0-1.0-472.0","0","0","29380","","null","","","null","52","","NaN","","","","","","","","","","","","","",""
"","response","","html-keyboard-response","348","547320","0.0-1.0-473.0-0.0","0","0","29380","","null","","","null","52","","","2","52","training","adjacent","FE","6","5","R.jpg","L.jpg","NaN","0","0","",""
"","too_slow_prompt","","html-keyboard-response","349","548328","0.0-1.0-475.0-0.0","1","0","29380","","null","","","null","","","","","","","","","","","","","","","","",""
"","time_out","","html-keyboard-response","350","550336","0.0-1.0-476.0-0.0","0","0","29380","","null","","","null","52","","","","","","","","","","","","","","","",""
"","ITI","","html-keyboard-response","351","551337","0.0-1.0-477.0","0","0","29380","","null","","","null","52","","","","","","","","","","","","","","","NaN",""
"","S1","","html-keyboard-response","352","551593","0.0-1.0-479.0","0","0","29380","","null","","","null","53","","","","","","","","","","","","","","","",""
"","ISI","","html-keyboard-response","353","553600","0.0-1.0-480.0","0","0","29380","","1984","","","68","53","d","","","","","","","","","","","","","","",""
"","S2","","html-keyboard-response","354","553851","0.0-1.0-481.0","0","0","29380","","null","","","null","53","","NaN","","","","","","","","","","","","","",""
"","response","","html-keyboard-response","355","553889","0.0-1.0-482.0-0.0","0","0","29380","","34","","","68","53","","","2","53","training","adjacent","FG","6","7","R.jpg","M.jpg","1","1","1","",""
"","feedback","","html-keyboard-response","356","554902","0.0-1.0-483.0-0.0","0","0","29380","","null","","","null","53","","","","","","","","","","","","","","","",""
"","ITI","","html-keyboard-response","357","555912","0.0-1.0-486.0","0","0","29380","","null","","","null","53","","","","","","","","","","","","","","","NaN",""
"","S1","","html-keyboard-response","358","556164","0.0-1.0-488.0","0","0","29380","","null","","","null","54","","","","","","","","","","","","","","","",""
"","ISI","","html-keyboard-response","359","558176","0.0-1.0-489.0","0","0","29380","","null","","","null","54","NaN","","","","","","","","","","","","","","",""
"","S2","","html-keyboard-response","360","558432","0.0-1.0-490.0","0","0","29380","","null","","","null","54","","NaN","","","","","","","","","","","","","",""
"","response","","html-keyboard-response","361","558494","0.0-1.0-491.0-0.0","0","0","29380","","61","","","75","54","","","2","54","training","adjacent","DE","4","5","P.jpg","L.jpg","0","1","0","",""
"","feedback","","html-keyboard-response","362","559508","0.0-1.0-492.0-0.0","0","0","29380","","null","","","null","54","","","","","","","","","","","","","","","",""
"","time_out","","html-keyboard-response","363","561522","0.0-1.0-494.0-0.0","0","0","29380","","null","","","null","54","","","","","","","","","","","","","","","",""
"","ITI","","html-keyboard-response","364","562530","0.0-1.0-495.0","0","0","29380","","null","","","null","54","","","","","","","","","","","","","","","NaN",""
"","S1","","html-keyboard-response","365","562786","0.0-1.0-497.0","0","0","29380","","null","","","null","55","","","","","","","","","","","","","","","",""
"","ISI","","html-keyboard-response","366","564802","0.0-1.0-498.0","0","0","29380","","null","","","null","55","NaN","","","","","","","","","","","","","","",""
"","S2","","html-keyboard-response","367","565048","0.0-1.0-499.0","0","0","29380","","245","","","68","55","","d","2","55","training","adjacent","BC","2","3","O.jpg","N.jpg","1","1","1","",""
"","feedback","","html-keyboard-response","368","566052","0.0-1.0-501.0-0.0","0","0","29380","","null","","","null","55","","","","","","","","","","","","","","","",""
"","ITI","","html-keyboard-response","369","567053","0.0-1.0-504.0","0","0","29380","","null","","","null","55","","","","","","","","","","","","","","","NaN",""
"","S1","","html-keyboard-response","370","567306","0.0-1.0-506.0","0","0","29380","","null","","","null","56","","","","","","","","","","","","","","","",""
"","ISI","","html-keyboard-response","371","569309","0.0-1.0-507.0","0","0","29380","","null","","","null","56","NaN","","","","","","","","","","","","","","",""
"","S2","","html-keyboard-response","372","569563","0.0-1.0-508.0","0","0","29380","","null","","","null","56","","NaN","","","","","","","","","","","","","",""
"","response","","html-keyboard-response","373","569587","0.0-1.0-509.0-0.0","0","0","29380","","22","","","75","56","","","2","56","training","adjacent","AB","1","2","Q.jpg","O.jpg","0","1","0","",""
"","feedback","","html-keyboard-response","374","570588","0.0-1.0-510.0-0.0","0","0","29380","","null","","","null","56","","","","","","","","","","","","","","","",""
"","time_out","","html-keyboard-response","375","572597","0.0-1.0-512.0-0.0","0","0","29380","","null","","","null","56","","","","","","","","","","","","","","","",""
"","ITI","","html-keyboard-response","376","573607","0.0-1.0-513.0","0","0","29380","","null","","","null","56","","","","","","","","","","","","","","","NaN",""
"","S1","","html-keyboard-response","377","573876","0.0-1.0-515.0","0","0","29380","","null","","","null","57","","","","","","","","","","","","","","","",""
"","ISI","","html-keyboard-response","378","575877","0.0-1.0-516.0","0","0","29380","","null","","","null","57","NaN","","","","","","","","","","","","","","",""
"","S2","","html-keyboard-response","379","576130","0.0-1.0-517.0","0","0","29380","","null","","","null","57","","NaN","","","","","","","","","","","","","",""
"","response","","html-keyboard-response","380","576163","0.0-1.0-518.0-0.0","0","0","29380","","31","","","75","57","","","2","57","training","adjacent","DC","4","3","P.jpg","N.jpg","0","0","1","",""
"","feedback","","html-keyboard-response","381","577180","0.0-1.0-519.0-0.0","0","0","29380","","null","","","null","57","","","","","","","","","","","","","","","",""
"","ITI","","html-keyboard-response","382","578191","0.0-1.0-522.0","0","0","29380","","null","","","null","57","","","","","","","","","","","","","","","NaN",""
"","S1","","html-keyboard-response","383","578457","0.0-1.0-524.0","0","0","29380","","null","","","null","58","","","","","","","","","","","","","","","",""
"","ISI","","html-keyboard-response","384","580470","0.0-1.0-525.0","0","0","29380","","null","","","null","58","NaN","","","","","","","","","","","","","","",""
"","S2","","html-keyboard-response","385","580724","0.0-1.0-526.0","0","0","29380","","null","","","null","58","","NaN","","","","","","","","","","","","","",""
"","response","","html-keyboard-response","386","581389","0.0-1.0-527.0-0.0","0","0","29380","","662","","","75","58","","","2","58","training","adjacent","CD","3","4","N.jpg","P.jpg","0","1","0","",""
"","feedback","","html-keyboard-response","387","582400","0.0-1.0-528.0-0.0","0","0","29380","","null","","","null","58","","","","","","","","","","","","","","","",""
"","time_out","","html-keyboard-response","388","584406","0.0-1.0-530.0-0.0","0","0","29380","","null","","","null","58","","","","","","","","","","","","","","","",""
"","ITI","","html-keyboard-response","389","585418","0.0-1.0-531.0","0","0","29380","","null","","","null","58","","","","","","","","","","","","","","","NaN",""
"","S1","","html-keyboard-response","390","585673","0.0-1.0-533.0","0","0","29380","","null","","","null","59","","","","","","","","","","","","","","","",""
"","ISI","","html-keyboard-response","391","587677","0.0-1.0-534.0","0","0","29380","","null","","","null","59","NaN","","","","","","","","","","","","","","",""
"","S2","","html-keyboard-response","392","587931","0.0-1.0-535.0","0","0","29380","","null","","","null","59","","NaN","","","","","","","","","","","","","",""
"","response","","html-keyboard-response","393","588075","0.0-1.0-536.0-0.0","0","0","29380","","144","","","75","59","","","2","59","training","adjacent","BA","2","1","O.jpg","Q.jpg","0","0","1","",""
"","feedback","","html-keyboard-response","394","589086","0.0-1.0-537.0-0.0","0","0","29380","","null","","","null","59","","","","","","","","","","","","","","","",""
"","ITI","","html-keyboard-response","395","590099","0.0-1.0-540.0","0","0","29380","","null","","","null","59","","","","","","","","","","","","","","","NaN",""
"","S1","","html-keyboard-response","396","590353","0.0-1.0-542.0","0","0","29380","","null","","","null","60","","","","","","","","","","","","","","","",""
"","ISI","","html-keyboard-response","397","592362","0.0-1.0-543.0","0","0","29380","","null","","","null","60","NaN","","","","","","","","","","","","","","",""
"","S2","","html-keyboard-response","398","592624","0.0-1.0-544.0","0","0","29380","","null","","","null","60","","NaN","","","","","","","","","","","","","",""
"","response","","html-keyboard-response","399","592680","0.0-1.0-545.0-0.0","0","0","29380","","54","","","75","60","","","2","60","training","adjacent","EF","5","6","L.jpg","R.jpg","0","1","0","",""
"","feedback","","html-keyboard-response","400","593691","0.0-1.0-546.0-0.0","0","0","29380","","null","","","null","60","","","","","","","","","","","","","","","",""
"","time_out","","html-keyboard-response","401","595695","0.0-1.0-548.0-0.0","0","0","29380","","null","","","null","60","","","","","","","","","","","","","","","",""
"","ITI","","html-keyboard-response","402","596699","0.0-1.0-549.0","0","0","29380","","null","","","null","60","","","","","","","","","","","","","","","NaN",""
"","S1","","html-keyboard-response","403","596951","0.0-1.0-551.0","0","0","29380","","null","","","null","61","","","","","","","","","","","","","","","",""
"","ISI","","html-keyboard-response","404","598964","0.0-1.0-552.0","0","0","29380","","null","","","null","61","NaN","","","","","","","","","","","","","","",""
"","S2","","html-keyboard-response","405","599218","0.0-1.0-553.0","0","0","29380","","null","","","null","61","","NaN","","","","","","","","","","","","","",""
"","response","","html-keyboard-response","406","599875","0.0-1.0-554.0-0.0","0","0","29380","","656","","","68","61","","","2","61","training","adjacent","GF","7","6","M.jpg","R.jpg","1","0","0","",""
"","feedback","","html-keyboard-response","407","600880","0.0-1.0-555.0-0.0","0","0","29380","","null","","","null","61","","","","","","","","","","","","","","","",""
"","time_out","","html-keyboard-response","408","602891","0.0-1.0-557.0-0.0","0","0","29380","","null","","","null","61","","","","","","","","","","","","","","","",""
"","ITI","","html-keyboard-response","409","603900","0.0-1.0-558.0","0","0","29380","","null","","","null","61","","","","","","","","","","","","","","","NaN",""
"","S1","","html-keyboard-response","410","604153","0.0-1.0-560.0","0","0","29380","","null","","","null","62","","","","","","","","","","","","","","","",""
"","ISI","","html-keyboard-response","411","606160","0.0-1.0-561.0","0","0","29380","","null","","","null","62","NaN","","","","","","","","","","","","","","",""
"","S2","","html-keyboard-response","412","606415","0.0-1.0-562.0","0","0","29380","","null","","","null","62","","NaN","","","","","","","","","","","","","",""
"","response","","html-keyboard-response","413","606783","0.0-1.0-563.0-0.0","0","0","29380","","367","","","75","62","","","2","62","training","adjacent","GF","7","6","M.jpg","R.jpg","0","0","1","",""
"","feedback","","html-keyboard-response","414","607793","0.0-1.0-564.0-0.0","0","0","29380","","null","","","null","62","","","","","","","","","","","","","","","",""
"","ITI","","html-keyboard-response","415","608809","0.0-1.0-567.0","0","0","29380","","null","","","null","62","","","","","","","","","","","","","","","NaN",""
"","S1","","html-keyboard-response","416","609075","0.0-1.0-569.0","0","0","29380","","null","","","null","63","","","","","","","","","","","","","","","",""
"","ISI","","html-keyboard-response","417","611083","0.0-1.0-570.0","0","0","29380","","null","","","null","63","NaN","","","","","","","","","","","","","","",""
"","S2","","html-keyboard-response","418","611338","0.0-1.0-571.0","0","0","29380","","null","","","null","63","","NaN","","","","","","","","","","","","","",""
"","response","","html-keyboard-response","419","611699","0.0-1.0-572.0-0.0","0","0","29380","","360","","","68","63","","","2","63","training","adjacent","FG","6","7","R.jpg","M.jpg","1","1","1","",""
"","feedback","","html-keyboard-response","420","612716","0.0-1.0-573.0-0.0","0","0","29380","","null","","","null","63","","","","","","","","","","","","","","","",""
"","ITI","","html-keyboard-response","421","613731","0.0-1.0-576.0","0","0","29380","","null","","","null","63","","","","","","","","","","","","","","","NaN",""
"","S1","","html-keyboard-response","422","613997","0.0-1.0-578.0","0","0","29380","","null","","","null","64","","","","","","","","","","","","","","","",""
"","ISI","","html-keyboard-response","423","616009","0.0-1.0-579.0","0","0","29380","","null","","","null","64","NaN","","","","","","","","","","","","","","",""
"","S2","","html-keyboard-response","424","616264","0.0-1.0-580.0","0","0","29380","","null","","","null","64","","NaN","","","","","","","","","","","","","",""
"","response","","html-keyboard-response","425","616681","0.0-1.0-581.0-0.0","0","0","29380","","415","","","68","64","","","2","64","training","adjacent","CB","3","2","N.jpg","O.jpg","1","0","0","",""
"","feedback","","html-keyboard-response","426","617686","0.0-1.0-582.0-0.0","0","0","29380","","null","","","null","64","","","","","","","","","","","","","","","",""
"","time_out","","html-keyboard-response","427","619691","0.0-1.0-584.0-0.0","0","0","29380","","null","","","null","64","","","","","","","","","","","","","","","",""
"","ITI","","html-keyboard-response","428","620706","0.0-1.0-585.0","0","0","29380","","null","","","null","64","","","","","","","","","","","","","","","NaN",""
"","S1","","html-keyboard-response","429","620958","0.0-1.0-587.0","0","0","29380","","null","","","null","65","","","","","","","","","","","","","","","",""
"","ISI","","html-keyboard-response","430","622972","0.0-1.0-588.0","0","0","29380","","null","","","null","65","NaN","","","","","","","","","","","","","","",""
"","S2","","html-keyboard-response","431","623225","0.0-1.0-589.0","0","0","29380","","null","","","null","65","","NaN","","","","","","","","","","","","","",""
"","response","","html-keyboard-response","432","623700","0.0-1.0-590.0-0.0","0","0","29380","","474","","","75","65","","","2","65","training","adjacent","CD","3","4","N.jpg","P.jpg","0","1","0","",""
"","feedback","","html-keyboard-response","433","624707","0.0-1.0-591.0-0.0","0","0","29380","","null","","","null","65","","","","","","","","","","","","","","","",""
"","time_out","","html-keyboard-response","434","626715","0.0-1.0-593.0-0.0","0","0","29380","","null","","","null","65","","","","","","","","","","","","","","","",""
"","ITI","","html-keyboard-response","435","627725","0.0-1.0-594.0","0","0","29380","","null","","","null","65","","","","","","","","","","","","","","","NaN",""
"","S1","","html-keyboard-response","436","627977","0.0-1.0-596.0","0","0","29380","","null","","","null","66","","","","","","","","","","","","","","","",""
"","ISI","","html-keyboard-response","437","629988","0.0-1.0-597.0","0","0","29380","","null","","","null","66","NaN","","","","","","","","","","","","","","",""
"","S2","","html-keyboard-response","438","630244","0.0-1.0-598.0","0","0","29380","","null","","","null","66","","NaN","","","","","","","","","","","","","",""
"","response","","html-keyboard-response","439","630740","0.0-1.0-599.0-0.0","0","0","29380","","494","","","75","66","","","2","66","training","adjacent","DE","4","5","P.jpg","L.jpg","0","1","0","",""
"","feedback","","html-keyboard-response","440","631753","0.0-1.0-600.0-0.0","0","0","29380","","null","","","null","66","","","","","","","","","","","","","","","",""
"","time_out","","html-keyboard-response","441","633767","0.0-1.0-602.0-0.0","0","0","29380","","null","","","null","66","","","","","","","","","","","","","","","",""
"","ITI","","html-keyboard-response","442","634782","0.0-1.0-603.0","0","0","29380","","null","","","null","66","","","","","","","","","","","","","","","NaN",""
"","S1","","html-keyboard-response","443","635036","0.0-1.0-605.0","0","0","29380","","null","","","null","67","","","","","","","","","","","","","","","",""
"","ISI","","html-keyboard-response","444","637049","0.0-1.0-606.0","0","0","29380","","null","","","null","67","NaN","","","","","","","","","","","","","","",""
"","S2","","html-keyboard-response","445","637303","0.0-1.0-607.0","0","0","29380","","null","","","null","67","","NaN","","","","","","","","","","","","","",""
"","response","","html-keyboard-response","446","637648","0.0-1.0-608.0-0.0","0","0","29380","","344","","","68","67","","","2","67","training","adjacent","ED","5","4","L.jpg","P.jpg","1","0","0","",""
"","feedback","","html-keyboard-response","447","638658","0.0-1.0-609.0-0.0","0","0","29380","","null","","","null","67","","","","","","","","","","","","","","","",""
"","time_out","","html-keyboard-response","448","640667","0.0-1.0-611.0-0.0","0","0","29380","","null","","","null","67","","","","","","","","","","","","","","","",""
"","ITI","","html-keyboard-response","449","641683","0.0-1.0-612.0","0","0","29380","","null","","","null","67","","","","","","","","","","","","","","","NaN",""
"","S1","","html-keyboard-response","450","641936","0.0-1.0-614.0","0","0","29380","","null","","","null","68","","","","","","","","","","","","","","","",""
"","ISI","","html-keyboard-response","451","643945","0.0-1.0-615.0","0","0","29380","","null","","","null","68","NaN","","","","","","","","","","","","","","",""
"","S2","","html-keyboard-response","452","644200","0.0-1.0-616.0","0","0","29380","","null","","","null","68","","NaN","","","","","","","","","","","","","",""
"","response","","html-keyboard-response","453","644645","0.0-1.0-617.0-0.0","0","0","29380","","443","","","75","68","","","2","68","training","adjacent","ED","5","4","L.jpg","P.jpg","0","0","1","",""
"","feedback","","html-keyboard-response","454","645651","0.0-1.0-618.0-0.0","0","0","29380","","null","","","null","68","","","","","","","","","","","","","","","",""
"","ITI","","html-keyboard-response","455","646663","0.0-1.0-621.0","0","0","29380","","null","","","null","68","","","","","","","","","","","","","","","NaN",""
"","S1","","html-keyboard-response","456","646915","0.0-1.0-623.0","0","0","29380","","null","","","null","69","","","","","","","","","","","","","","","",""
"","ISI","","html-keyboard-response","457","648930","0.0-1.0-624.0","0","0","29380","","null","","","null","69","NaN","","","","","","","","","","","","","","",""
"","S2","","html-keyboard-response","458","649182","0.0-1.0-625.0","0","0","29380","","null","","","null","69","","NaN","","","","","","","","","","","","","",""
"","response","","html-keyboard-response","459","649804","0.0-1.0-626.0-0.0","0","0","29380","","619","","","68","69","","","2","69","training","adjacent","EF","5","6","L.jpg","R.jpg","1","1","1","",""
"","feedback","","html-keyboard-response","460","650811","0.0-1.0-627.0-0.0","0","0","29380","","null","","","null","69","","","","","","","","","","","","","","","",""
"","ITI","","html-keyboard-response","461","651827","0.0-1.0-630.0","0","0","29380","","null","","","null","69","","","","","","","","","","","","","","","NaN",""
"","S1","","html-keyboard-response","462","652080","0.0-1.0-632.0","0","0","29380","","null","","","null","70","","","","","","","","","","","","","","","",""
"","ISI","","html-keyboard-response","463","654091","0.0-1.0-633.0","0","0","29380","","null","","","null","70","NaN","","","","","","","","","","","","","","",""
"","S2","","html-keyboard-response","464","654343","0.0-1.0-634.0","0","0","29380","","null","","","null","70","","NaN","","","","","","","","","","","","","",""
"","response","","html-keyboard-response","465","654873","0.0-1.0-635.0-0.0","0","0","29380","","528","","","75","70","","","2","70","training","adjacent","AB","1","2","Q.jpg","O.jpg","0","1","0","",""
"","feedback","","html-keyboard-response","466","655887","0.0-1.0-636.0-0.0","0","0","29380","","null","","","null","70","","","","","","","","","","","","","","","",""
"","time_out","","html-keyboard-response","467","657899","0.0-1.0-638.0-0.0","0","0","29380","","null","","","null","70","","","","","","","","","","","","","","","",""
"","ITI","","html-keyboard-response","468","658912","0.0-1.0-639.0","0","0","29380","","null","","","null","70","","","","","","","","","","","","","","","NaN",""
"","S1","","html-keyboard-response","469","659163","0.0-1.0-641.0","0","0","29380","","null","","","null","71","","","","","","","","","","","","","","","",""
"","ISI","","html-keyboard-response","470","661180","0.0-1.0-642.0","0","0","29380","","null","","","null","71","NaN","","","","","","","","","","","","","","",""
"","S2","","html-keyboard-response","471","661432","0.0-1.0-643.0","0","0","29380","","null","","","null","71","","NaN","","","","","","","","","","","","","",""
"","response","","html-keyboard-response","472","661981","0.0-1.0-644.0-0.0","0","0","29380","","547","","","75","71","","","2","71","training","adjacent","BC","2","3","O.jpg","N.jpg","0","1","0","",""
"","feedback","","html-keyboard-response","473","662985","0.0-1.0-645.0-0.0","0","0","29380","","null","","","null","71","","","","","","","","","","","","","","","",""
"","time_out","","html-keyboard-response","474","664993","0.0-1.0-647.0-0.0","0","0","29380","","null","","","null","71","","","","","","","","","","","","","","","",""
"","ITI","","html-keyboard-response","475","665997","0.0-1.0-648.0","0","0","29380","","null","","","null","71","","","","","","","","","","","","","","","NaN",""
"","S1","","html-keyboard-response","476","666250","0.0-1.0-650.0","0","0","29380","","null","","","null","72","","","","","","","","","","","","","","","",""
"","ISI","","html-keyboard-response","477","668257","0.0-1.0-651.0","0","0","29380","","null","","","null","72","NaN","","","","","","","","","","","","","","",""
"","S2","","html-keyboard-response","478","668524","0.0-1.0-652.0","0","0","29380","","null","","","null","72","","NaN","","","","","","","","","","","","","",""
"","response","","html-keyboard-response","479","669288","0.0-1.0-653.0-0.0","0","0","29380","","763","","","68","72","","","2","72","training","adjacent","BC","2","3","O.jpg","N.jpg","1","1","1","",""
"","feedback","","html-keyboard-response","480","670292","0.0-1.0-654.0-0.0","0","0","29380","","null","","","null","72","","","","","","","","","","","","","","","",""
"","ITI","","html-keyboard-response","481","671304","0.0-1.0-657.0","0","0","29380","","null","","","null","72","","","","","","","","","","","","","","","NaN",""
"","S1","","html-keyboard-response","482","671561","0.0-1.0-659.0","0","0","29380","","null","","","null","73","","","","","","","","","","","","","","","",""
"","ISI","","html-keyboard-response","483","673566","0.0-1.0-660.0","0","0","29380","","null","","","null","73","NaN","","","","","","","","","","","","","","",""
"","S2","","html-keyboard-response","484","673820","0.0-1.0-661.0","0","0","29380","","null","","","null","73","","NaN","","","","","","","","","","","","","",""
"","response","","html-keyboard-response","485","674193","0.0-1.0-662.0-0.0","0","0","29380","","371","","","68","73","","","2","73","training","adjacent","CB","3","2","N.jpg","O.jpg","1","0","0","",""
"","feedback","","html-keyboard-response","486","675198","0.0-1.0-663.0-0.0","0","0","29380","","null","","","null","73","","","","","","","","","","","","","","","",""
"","time_out","","html-keyboard-response","487","677205","0.0-1.0-665.0-0.0","0","0","29380","","null","","","null","73","","","","","","","","","","","","","","","",""
"","ITI","","html-keyboard-response","488","678213","0.0-1.0-666.0","0","0","29380","","null","","","null","73","","","","","","","","","","","","","","","NaN",""
"","S1","","html-keyboard-response","489","678470","0.0-1.0-668.0","0","0","29380","","null","","","null","74","","","","","","","","","","","","","","","",""
"","ISI","","html-keyboard-response","490","680478","0.0-1.0-669.0","0","0","29380","","null","","","null","74","NaN","","","","","","","","","","","","","","",""
"","S2","","html-keyboard-response","491","680731","0.0-1.0-670.0","0","0","29380","","null","","","null","74","","NaN","","","","","","","","","","","","","",""
"","response","","html-keyboard-response","492","681023","0.0-1.0-671.0-0.0","0","0","29380","","289","","","75","74","","","2","74","training","adjacent","DC","4","3","P.jpg","N.jpg","0","0","1","",""
"","feedback","","html-keyboard-response","493","682037","0.0-1.0-672.0-0.0","0","0","29380","","null","","","null","74","","","","","","","","","","","","","","","",""
"","ITI","","html-keyboard-response","494","683048","0.0-1.0-675.0","0","0","29380","","null","","","null","74","","","","","","","","","","","","","","","NaN",""
"","S1","","html-keyboard-response","495","683300","0.0-1.0-677.0","0","0","29380","","null","","","null","75","","","","","","","","","","","","","","","",""
"","ISI","","html-keyboard-response","496","685314","0.0-1.0-678.0","0","0","29380","","null","","","null","75","NaN","","","","","","","","","","","","","","",""
"","S2","","html-keyboard-response","497","685566","0.0-1.0-679.0","0","0","29380","","null","","","null","75","","NaN","","","","","","","","","","","","","",""
"","response","","html-keyboard-response","498","685960","0.0-1.0-680.0-0.0","0","0","29380","","393","","","75","75","","","2","75","training","adjacent","CB","3","2","N.jpg","O.jpg","0","0","1","",""
"","feedback","","html-keyboard-response","499","686968","0.0-1.0-681.0-0.0","0","0","29380","","null","","","null","75","","","","","","","","","","","","","","","",""
"","ITI","","html-keyboard-response","500","687974","0.0-1.0-684.0","0","0","29380","","null","","","null","75","","","","","","","","","","","","","","","NaN",""
"","S1","","html-keyboard-response","501","688241","0.0-1.0-686.0","0","0","29380","","null","","","null","76","","","","","","","","","","","","","","","",""
"","ISI","","html-keyboard-response","502","690244","0.0-1.0-687.0","0","0","29380","","null","","","null","76","NaN","","","","","","","","","","","","","","",""
"","S2","","html-keyboard-response","503","690499","0.0-1.0-688.0","0","0","29380","","null","","","null","76","","NaN","","","","","","","","","","","","","",""
"","response","","html-keyboard-response","504","690720","0.0-1.0-689.0-0.0","0","0","29380","","220","","","75","76","","","2","76","training","adjacent","CD","3","4","N.jpg","P.jpg","0","1","0","",""
"","feedback","","html-keyboard-response","505","691734","0.0-1.0-690.0-0.0","0","0","29380","","null","","","null","76","","","","","","","","","","","","","","","",""
"","time_out","","html-keyboard-response","506","693745","0.0-1.0-692.0-0.0","0","0","29380","","null","","","null","76","","","","","","","","","","","","","","","",""
"","ITI","","html-keyboard-response","507","694753","0.0-1.0-693.0","0","0","29380","","null","","","null","76","","","","","","","","","","","","","","","NaN",""
"","S1","","html-keyboard-response","508","695006","0.0-1.0-695.0","0","0","29380","","null","","","null","77","","","","","","","","","","","","","","","",""
"","ISI","","html-keyboard-response","509","697010","0.0-1.0-696.0","0","0","29380","","null","","","null","77","NaN","","","","","","","","","","","","","","",""
"","S2","","html-keyboard-response","510","697263","0.0-1.0-697.0","0","0","29380","","null","","","null","77","","NaN","","","","","","","","","","","","","",""
"","response","","html-keyboard-response","511","697562","0.0-1.0-698.0-0.0","0","0","29380","","298","","","68","77","","","2","77","training","adjacent","FE","6","5","R.jpg","L.jpg","1","0","0","",""
"","feedback","","html-keyboard-response","512","698572","0.0-1.0-699.0-0.0","0","0","29380","","null","","","null","77","","","","","","","","","","","","","","","",""
"","time_out","","html-keyboard-response","513","700577","0.0-1.0-701.0-0.0","0","0","29380","","null","","","null","77","","","","","","","","","","","","","","","",""
"","ITI","","html-keyboard-response","514","701586","0.0-1.0-702.0","0","0","29380","","null","","","null","77","","","","","","","","","","","","","","","NaN",""
"","S1","","html-keyboard-response","515","701841","0.0-1.0-704.0","0","0","29380","","null","","","null","78","","","","","","","","","","","","","","","",""
"","ISI","","html-keyboard-response","516","703857","0.0-1.0-705.0","0","0","29380","","null","","","null","78","NaN","","","","","","","","","","","","","","",""
"","S2","","html-keyboard-response","517","704111","0.0-1.0-706.0","0","0","29380","","null","","","null","78","","NaN","","","","","","","","","","","","","",""
"","response","","html-keyboard-response","518","704492","0.0-1.0-707.0-0.0","0","0","29380","","379","","","68","78","","","2","78","training","adjacent","BA","2","1","O.jpg","Q.jpg","1","0","0","",""
"","feedback","","html-keyboard-response","519","705501","0.0-1.0-708.0-0.0","0","0","29380","","null","","","null","78","","","","","","","","","","","","","","","",""
"","time_out","","html-keyboard-response","520","707505","0.0-1.0-710.0-0.0","0","0","29380","","null","","","null","78","","","","","","","","","","","","","","","",""
"","ITI","","html-keyboard-response","521","708518","0.0-1.0-711.0","0","0","29380","","null","","","null","78","","","","","","","","","","","","","","","NaN",""
"","S1","","html-keyboard-response","522","708770","0.0-1.0-713.0","0","0","29380","","null","","","null","79","","","","","","","","","","","","","","","",""
"","ISI","","html-keyboard-response","523","710778","0.0-1.0-714.0","0","0","29380","","null","","","null","79","NaN","","","","","","","","","","","","","","",""
"","S2","","html-keyboard-response","524","711029","0.0-1.0-715.0","0","0","29380","","null","","","null","79","","NaN","","","","","","","","","","","","","",""
"","response","","html-keyboard-response","525","711178","0.0-1.0-716.0-0.0","0","0","29380","","146","","","75","79","","","2","79","training","adjacent","FE","6","5","R.jpg","L.jpg","0","0","1","",""
"","feedback","","html-keyboard-response","526","712180","0.0-1.0-717.0-0.0","0","0","29380","","null","","","null","79","","","","","","","","","","","","","","","",""
"","ITI","","html-keyboard-response","527","713192","0.0-1.0-720.0","0","0","29380","","null","","","null","79","","","","","","","","","","","","","","","NaN",""
"","S1","","html-keyboard-response","528","713456","0.0-1.0-722.0","0","0","29380","","null","","","null","80","","","","","","","","","","","","","","","",""
"","ISI","","html-keyboard-response","529","715466","0.0-1.0-723.0","0","0","29380","","null","","","null","80","NaN","","","","","","","","","","","","","","",""
"","S2","","html-keyboard-response","530","715732","0.0-1.0-724.0","0","0","29380","","null","","","null","80","","NaN","","","","","","","","","","","","","",""
"","response","","html-keyboard-response","531","716072","0.0-1.0-725.0-0.0","0","0","29380","","338","","","75","80","","","2","80","training","adjacent","AB","1","2","Q.jpg","O.jpg","0","1","0","",""
"","feedback","","html-keyboard-response","532","717077","0.0-1.0-726.0-0.0","0","0","29380","","null","","","null","80","","","","","","","","","","","","","","","",""
"","time_out","","html-keyboard-response","533","719094","0.0-1.0-728.0-0.0","0","0","29380","","null","","","null","80","","","","","","","","","","","","","","","",""
"","ITI","","html-keyboard-response","534","720097","0.0-1.0-729.0","0","0","29380","","null","","","null","80","","","","","","","","","","","","","","","NaN",""
"","S1","","html-keyboard-response","535","720352","0.0-1.0-731.0","0","0","29380","","null","","","null","81","","","","","","","","","","","","","","","",""
"","ISI","","html-keyboard-response","536","722357","0.0-1.0-732.0","0","0","29380","","null","","","null","81","NaN","","","","","","","","","","","","","","",""
"","S2","","html-keyboard-response","537","722612","0.0-1.0-733.0","0","0","29380","","null","","","null","81","","NaN","","","","","","","","","","","","","",""
"","response","","html-keyboard-response","538","723068","0.0-1.0-734.0-0.0","0","0","29380","","455","","","75","81","","","2","81","training","adjacent","DE","4","5","P.jpg","L.jpg","0","1","0","",""
"","feedback","","html-keyboard-response","539","724074","0.0-1.0-735.0-0.0","0","0","29380","","null","","","null","81","","","","","","","","","","","","","","","",""
"","time_out","","html-keyboard-response","540","726080","0.0-1.0-737.0-0.0","0","0","29380","","null","","","null","81","","","","","","","","","","","","","","","",""
"","ITI","","html-keyboard-response","541","727085","0.0-1.0-738.0","0","0","29380","","null","","","null","81","","","","","","","","","","","","","","","NaN",""
"","S1","","html-keyboard-response","542","727338","0.0-1.0-740.0","0","0","29380","","null","","","null","82","","","","","","","","","","","","","","","",""
"","ISI","","html-keyboard-response","543","729350","0.0-1.0-741.0","0","0","29380","","578","","","68","82","d","","","","","","","","","","","","","","",""
"","S2","","html-keyboard-response","544","729445","0.0-1.0-742.0","0","0","29380","","92","","","68","82","","d","2","82","training","adjacent","ED","5","4","L.jpg","P.jpg","1","0","0","",""
"","feedback","","html-keyboard-response","545","730457","0.0-1.0-744.0-0.0","0","0","29380","","null","","","null","82","","","","","","","","","","","","","","","",""
"","time_out","","html-keyboard-response","546","732464","0.0-1.0-746.0-0.0","0","0","29380","","null","","","null","82","","","","","","","","","","","","","","","",""
"","ITI","","html-keyboard-response","547","733475","0.0-1.0-747.0","0","0","29380","","null","","","null","82","","","","","","","","","","","","","","","NaN",""
"","S1","","html-keyboard-response","548","733727","0.0-1.0-749.0","0","0","29380","","null","","","null","83","","","","","","","","","","","","","","","",""
"","ISI","","html-keyboard-response","549","735743","0.0-1.0-750.0","0","0","29380","","581","","","68","83","d","","","","","","","","","","","","","","",""
"","S2","","html-keyboard-response","550","735999","0.0-1.0-751.0","0","0","29380","","null","","","null","83","","NaN","","","","","","","","","","","","","",""
"","response","","html-keyboard-response","551","736066","0.0-1.0-752.0-0.0","0","0","29380","","65","","","68","83","","","2","83","training","adjacent","FG","6","7","R.jpg","M.jpg","1","1","1","",""
"","feedback","","html-keyboard-response","552","737073","0.0-1.0-753.0-0.0","0","0","29380","","null","","","null","83","","","","","","","","","","","","","","","",""
"","ITI","","html-keyboard-response","553","738078","0.0-1.0-756.0","0","0","29380","","null","","","null","83","","","","","","","","","","","","","","","NaN",""
"","S1","","html-keyboard-response","554","738333","0.0-1.0-758.0","0","0","29380","","null","","","null","84","","","","","","","","","","","","","","","",""
"","ISI","","html-keyboard-response","555","740344","0.0-1.0-759.0","0","0","29380","","null","","","null","84","NaN","","","","","","","","","","","","","","",""
"","S2","","html-keyboard-response","556","740608","0.0-1.0-760.0","0","0","29380","","null","","","null","84","","NaN","","","","","","","","","","","","","",""
"","response","","html-keyboard-response","557","740892","0.0-1.0-761.0-0.0","0","0","29380","","283","","","75","84","","","2","84","training","adjacent","FG","6","7","R.jpg","M.jpg","0","1","0","",""
"","feedback","","html-keyboard-response","558","741903","0.0-1.0-762.0-0.0","0","0","29380","","null","","","null","84","","","","","","","","","","","","","","","",""
"","time_out","","html-keyboard-response","559","743913","0.0-1.0-764.0-0.0","0","0","29380","","null","","","null","84","","","","","","","","","","","","","","","",""
"","ITI","","html-keyboard-response","560","744915","0.0-1.0-765.0","0","0","29380","","null","","","null","84","","","","","","","","","","","","","","","NaN",""
"","S1","","html-keyboard-response","561","745180","0.0-1.0-767.0","0","0","29380","","null","","","null","85","","","","","","","","","","","","","","","",""
"","ISI","","html-keyboard-response","562","747193","0.0-1.0-768.0","0","0","29380","","338","","","68","85","d","","","","","","","","","","","","","","",""
"","S2","","html-keyboard-response","563","747445","0.0-1.0-769.0","0","0","29380","","null","","","null","85","","NaN","","","","","","","","","","","","","",""
"","response","","html-keyboard-response","564","747511","0.0-1.0-770.0-0.0","0","0","29380","","65","","","68","85","","","2","85","training","adjacent","AB","1","2","Q.jpg","O.jpg","1","1","1","",""
"","feedback","","html-keyboard-response","565","748523","0.0-1.0-771.0-0.0","0","0","29380","","null","","","null","85","","","","","","","","","","","","","","","",""
"","ITI","","html-keyboard-response","566","749537","0.0-1.0-774.0","0","0","29380","","null","","","null","85","","","","","","","","","","","","","","","NaN",""
"","S1","","html-keyboard-response","567","749791","0.0-1.0-776.0","0","0","29380","","null","","","null","86","","","","","","","","","","","","","","","",""
"","ISI","","html-keyboard-response","568","751799","0.0-1.0-777.0","0","0","29380","","null","","","null","86","NaN","","","","","","","","","","","","","","",""
"","S2","","html-keyboard-response","569","752063","0.0-1.0-778.0","0","0","29380","","null","","","null","86","","NaN","","","","","","","","","","","","","",""
"","response","","html-keyboard-response","570","752427","0.0-1.0-779.0-0.0","0","0","29380","","363","","","68","86","","","2","86","training","adjacent","EF","5","6","L.jpg","R.jpg","1","1","1","",""
"","feedback","","html-keyboard-response","571","753439","0.0-1.0-780.0-0.0","0","0","29380","","null","","","null","86","","","","","","","","","","","","","","","",""
"","ITI","","html-keyboard-response","572","754443","0.0-1.0-783.0","0","0","29380","","null","","","null","86","","","","","","","","","","","","","","","NaN",""
"","S1","","html-keyboard-response","573","754696","0.0-1.0-785.0","0","0","29380","","null","","","null","87","","","","","","","","","","","","","","","",""
"","ISI","","html-keyboard-response","574","756698","0.0-1.0-786.0","0","0","29380","","null","","","null","87","NaN","","","","","","","","","","","","","","",""
"","S2","","html-keyboard-response","575","756950","0.0-1.0-787.0","0","0","29380","","null","","","null","87","","NaN","","","","","","","","","","","","","",""
"","response","","html-keyboard-response","576","757342","0.0-1.0-788.0-0.0","0","0","29380","","391","","","68","87","","","2","87","training","adjacent","DC","4","3","P.jpg","N.jpg","1","0","0","",""
"","feedback","","html-keyboard-response","577","758357","0.0-1.0-789.0-0.0","0","0","29380","","null","","","null","87","","","","","","","","","","","","","","","",""
"","time_out","","html-keyboard-response","578","760363","0.0-1.0-791.0-0.0","0","0","29380","","null","","","null","87","","","","","","","","","","","","","","","",""
"","ITI","","html-keyboard-response","579","761365","0.0-1.0-792.0","0","0","29380","","null","","","null","87","","","","","","","","","","","","","","","NaN",""
"","S1","","html-keyboard-response","580","761621","0.0-1.0-794.0","0","0","29380","","null","","","null","88","","","","","","","","","","","","","","","",""
"","ISI","","html-keyboard-response","581","763637","0.0-1.0-795.0","0","0","29380","","null","","","null","88","NaN","","","","","","","","","","","","","","",""
