"success","ttype","start_time","trial_type","trial_index","time_elapsed","internal_node_id","warning","missed_checkup","PID","view_history","rt","responses","repeat_instructions","key_press","index","keypress_isi","keypress_S2","block","trial_num","phase","group_type","pair_type","S1_stim","S2_stim","S1_img","S2_img","S1_chosen","S1_higher","accuracy","keypress_iti","total_bonus_tally"
"true","full_screen","d03072023hr2002","fullscreen","0","19732","0.0-0.0","0","0","85328","","","","","","","","","","","","","","","","","","","","","",""
"","instructions","","instructions","1","58321","0.0-1.0-0.0-0.0","0","0","85328","[{""page_index"":0,""viewing_time"":6250},{""page_index"":1,""viewing_time"":16017},{""page_index"":2,""viewing_time"":13583},{""page_index"":3,""viewing_time"":2733}]","38584","","","","","","","","","","","","","","","","","","","",""
"","comprehension_check","","survey-multi-choice","2","89441","0.0-1.0-0.0-1.0","0","0","85328","","31111","{""Q0"":""True"",""Q1"":""D"",""Q2"":""Once the second image appears and while the screen 'MAKE A CHOICE' is shown"",""Q3"":""Green mark"",""Q4"":""either D or K""}","0","","","","","","","","","","","","","","","","","",""
"","start_exp","","html-keyboard-response","3","91782","0.0-1.0-1.0","0","0","85328","","2334","","","32","","","","","","","","","","","","","","","","",""
"","S1","","html-keyboard-response","4","92041","0.0-1.0-2.0","0","0","85328","","null","","","null","0","","","","","","","","","","","","","","","",""
"","ISI","","html-keyboard-response","5","93050","0.0-1.0-3.0","0","0","85328","","null","","","null","0","NaN","","","","","","","","","","","","","","",""
"","S2","","html-keyboard-response","6","93316","0.0-1.0-4.0","0","0","85328","","null","","","null","0","","NaN","","","","","","","","","","","","","",""
"","response","","html-keyboard-response","7","94600","0.0-1.0-5.0-0.0","0","0","85328","","1279","","","68","0","","","1","0","training","adjacent","AB","1","2","P.jpg","R.jpg","1","1","1","",""
"","feedback","","html-keyboard-response","8","95609","0.0-1.0-6.0-0.0","0","0","85328","","null","","","null","0","","","","","","","","","","","","","","","",""
"","ITI","","html-keyboard-response","9","96617","0.0-1.0-9.0","0","0","85328","","null","","","null","0","","","","","","","","","","","","","","","NaN",""
"","S1","","html-keyboard-response","10","96883","0.0-1.0-11.0","0","0","85328","","null","","","null","1","","","","","","","","","","","","","","","",""
"","ISI","","html-keyboard-response","11","97896","0.0-1.0-12.0","0","0","85328","","null","","","null","1","NaN","","","","","","","","","","","","","","",""
"","S2","","html-keyboard-response","12","98164","0.0-1.0-13.0","0","0","85328","","null","","","null","1","","NaN","","","","","","","","","","","","","",""
"","response","","html-keyboard-response","13","98759","0.0-1.0-14.0-0.0","0","0","85328","","590","","","75","1","","","1","1","training","adjacent","DC","4","3","Q.jpg","O.jpg","0","0","1","",""
"","feedback","","html-keyboard-response","14","99770","0.0-1.0-15.0-0.0","0","0","85328","","null","","","null","1","","","","","","","","","","","","","","","",""
"","ITI","","html-keyboard-response","15","100777","0.0-1.0-18.0","0","0","85328","","null","","","null","1","","","","","","","","","","","","","","","NaN",""
"","S1","","html-keyboard-response","16","101044","0.0-1.0-20.0","0","0","85328","","null","","","null","2","","","","","","","","","","","","","","","",""
"","ISI","","html-keyboard-response","17","102056","0.0-1.0-21.0","0","0","85328","","null","","","null","2","NaN","","","","","","","","","","","","","","",""
"","S2","","html-keyboard-response","18","102323","0.0-1.0-22.0","0","0","85328","","null","","","null","2","","NaN","","","","","","","","","","","","","",""
"","response","","html-keyboard-response","19","102752","0.0-1.0-23.0-0.0","0","0","85328","","423","","","75","2","","","1","2","training","adjacent","GF","7","6","M.jpg","N.jpg","0","0","1","",""
"","feedback","","html-keyboard-response","20","103763","0.0-1.0-24.0-0.0","0","0","85328","","null","","","null","2","","","","","","","","","","","","","","","",""
"","ITI","","html-keyboard-response","21","104777","0.0-1.0-27.0","0","0","85328","","null","","","null","2","","","","","","","","","","","","","","","NaN",""
"","S1","","html-keyboard-response","22","105044","0.0-1.0-29.0","0","0","85328","","null","","","null","3","","","","","","","","","","","","","","","",""
"","ISI","","html-keyboard-response","23","106051","0.0-1.0-30.0","0","0","85328","","null","","","null","3","NaN","","","","","","","","","","","","","","",""
"","S2","","html-keyboard-response","24","106313","0.0-1.0-31.0","0","0","85328","","null","","","null","3","","NaN","","","","","","","","","","","","","",""
"","response","","html-keyboard-response","25","106847","0.0-1.0-32.0-0.0","0","0","85328","","529","","","75","3","","","1","3","training","adjacent","BA","2","1","R.jpg","P.jpg","0","0","1","",""
"","feedback","","html-keyboard-response","26","107859","0.0-1.0-33.0-0.0","0","0","85328","","null","","","null","3","","","","","","","","","","","","","","","",""
"","ITI","","html-keyboard-response","27","108872","0.0-1.0-36.0","0","0","85328","","null","","","null","3","","","","","","","","","","","","","","","NaN",""
"","S1","","html-keyboard-response","28","109139","0.0-1.0-38.0","0","0","85328","","null","","","null","4","","","","","","","","","","","","","","","",""
"","ISI","","html-keyboard-response","29","110153","0.0-1.0-39.0","0","0","85328","","null","","","null","4","NaN","","","","","","","","","","","","","","",""
"","S2","","html-keyboard-response","30","110419","0.0-1.0-40.0","0","0","85328","","null","","","null","4","","NaN","","","","","","","","","","","","","",""
"","response","","html-keyboard-response","31","110885","0.0-1.0-41.0-0.0","0","0","85328","","460","","","75","4","","","1","4","training","adjacent","FG","6","7","N.jpg","M.jpg","0","1","0","",""
"","feedback","","html-keyboard-response","32","111899","0.0-1.0-42.0-0.0","0","0","85328","","null","","","null","4","","","","","","","","","","","","","","","",""
"","time_out","","html-keyboard-response","33","113913","0.0-1.0-44.0-0.0","0","0","85328","","null","","","null","4","","","","","","","","","","","","","","","",""
"","ITI","","html-keyboard-response","34","114921","0.0-1.0-45.0","0","0","85328","","null","","","null","4","","","","","","","","","","","","","","","NaN",""
"","S1","","html-keyboard-response","35","115187","0.0-1.0-47.0","0","0","85328","","null","","","null","5","","","","","","","","","","","","","","","",""
"","ISI","","html-keyboard-response","36","116201","0.0-1.0-48.0","0","0","85328","","null","","","null","5","NaN","","","","","","","","","","","","","","",""
"","S2","","html-keyboard-response","37","116466","0.0-1.0-49.0","0","0","85328","","null","","","null","5","","NaN","","","","","","","","","","","","","",""
"","response","","html-keyboard-response","38","117251","0.0-1.0-50.0-0.0","0","0","85328","","780","","","68","5","","","1","5","training","adjacent","FG","6","7","N.jpg","M.jpg","1","1","1","",""
"","feedback","","html-keyboard-response","39","118264","0.0-1.0-51.0-0.0","0","0","85328","","null","","","null","5","","","","","","","","","","","","","","","",""
"","ITI","","html-keyboard-response","40","119272","0.0-1.0-54.0","0","0","85328","","null","","","null","5","","","","","","","","","","","","","","","NaN",""
"","S1","","html-keyboard-response","41","119539","0.0-1.0-56.0","0","0","85328","","null","","","null","6","","","","","","","","","","","","","","","",""
"","ISI","","html-keyboard-response","42","120552","0.0-1.0-57.0","0","0","85328","","null","","","null","6","NaN","","","","","","","","","","","","","","",""
"","S2","","html-keyboard-response","43","120819","0.0-1.0-58.0","0","0","85328","","null","","","null","6","","NaN","","","","","","","","","","","","","",""
"","response","","html-keyboard-response","44","121314","0.0-1.0-59.0-0.0","0","0","85328","","489","","","68","6","","","1","6","training","adjacent","AB","1","2","P.jpg","R.jpg","1","1","1","",""
"","feedback","","html-keyboard-response","45","122323","0.0-1.0-60.0-0.0","0","0","85328","","null","","","null","6","","","","","","","","","","","","","","","",""
"","ITI","","html-keyboard-response","46","123337","0.0-1.0-63.0","0","0","85328","","null","","","null","6","","","","","","","","","","","","","","","NaN",""
"","S1","","html-keyboard-response","47","123602","0.0-1.0-65.0","0","0","85328","","null","","","null","7","","","","","","","","","","","","","","","",""
"","ISI","","html-keyboard-response","48","124611","0.0-1.0-66.0","0","0","85328","","null","","","null","7","NaN","","","","","","","","","","","","","","",""
"","S2","","html-keyboard-response","49","124873","0.0-1.0-67.0","0","0","85328","","null","","","null","7","","NaN","","","","","","","","","","","","","",""
"","response","","html-keyboard-response","50","125405","0.0-1.0-68.0-0.0","0","0","85328","","527","","","75","7","","","1","7","training","adjacent","DC","4","3","Q.jpg","O.jpg","0","0","1","",""
"","feedback","","html-keyboard-response","51","126419","0.0-1.0-69.0-0.0","0","0","85328","","null","","","null","7","","","","","","","","","","","","","","","",""
"","ITI","","html-keyboard-response","52","127433","0.0-1.0-72.0","0","0","85328","","null","","","null","7","","","","","","","","","","","","","","","NaN",""
"","S1","","html-keyboard-response","53","127699","0.0-1.0-74.0","0","0","85328","","null","","","null","8","","","","","","","","","","","","","","","",""
"","ISI","","html-keyboard-response","54","128712","0.0-1.0-75.0","0","0","85328","","null","","","null","8","NaN","","","","","","","","","","","","","","",""
"","S2","","html-keyboard-response","55","128979","0.0-1.0-76.0","0","0","85328","","null","","","null","8","","NaN","","","","","","","","","","","","","",""
"","response","","html-keyboard-response","56","129616","0.0-1.0-77.0-0.0","0","0","85328","","632","","","68","8","","","1","8","training","adjacent","AB","1","2","P.jpg","R.jpg","1","1","1","",""
"","feedback","","html-keyboard-response","57","130627","0.0-1.0-78.0-0.0","0","0","85328","","null","","","null","8","","","","","","","","","","","","","","","",""
"","ITI","","html-keyboard-response","58","131640","0.0-1.0-81.0","0","0","85328","","null","","","null","8","","","","","","","","","","","","","","","NaN",""
"","S1","","html-keyboard-response","59","131896","0.0-1.0-83.0","0","0","85328","","null","","","null","9","","","","","","","","","","","","","","","",""
"","ISI","","html-keyboard-response","60","132905","0.0-1.0-84.0","0","0","85328","","null","","","null","9","NaN","","","","","","","","","","","","","","",""
"","S2","","html-keyboard-response","61","133171","0.0-1.0-85.0","0","0","85328","","null","","","null","9","","NaN","","","","","","","","","","","","","",""
"","response","","html-keyboard-response","62","133720","0.0-1.0-86.0-0.0","0","0","85328","","544","","","68","9","","","1","9","training","adjacent","ED","5","4","L.jpg","Q.jpg","1","0","0","",""
"","feedback","","html-keyboard-response","63","134728","0.0-1.0-87.0-0.0","0","0","85328","","null","","","null","9","","","","","","","","","","","","","","","",""
"","time_out","","html-keyboard-response","64","136739","0.0-1.0-89.0-0.0","0","0","85328","","null","","","null","9","","","","","","","","","","","","","","","",""
"","ITI","","html-keyboard-response","65","137752","0.0-1.0-90.0","0","0","85328","","null","","","null","9","","","","","","","","","","","","","","","NaN",""
"","S1","","html-keyboard-response","66","138019","0.0-1.0-92.0","0","0","85328","","null","","","null","10","","","","","","","","","","","","","","","",""
"","ISI","","html-keyboard-response","67","139033","0.0-1.0-93.0","0","0","85328","","null","","","null","10","NaN","","","","","","","","","","","","","","",""
"","S2","","html-keyboard-response","68","139299","0.0-1.0-94.0","0","0","85328","","null","","","null","10","","NaN","","","","","","","","","","","","","",""
"","response","","html-keyboard-response","69","139771","0.0-1.0-95.0-0.0","0","0","85328","","468","","","75","10","","","1","10","training","adjacent","CD","3","4","O.jpg","Q.jpg","0","1","0","",""
"","feedback","","html-keyboard-response","70","140785","0.0-1.0-96.0-0.0","0","0","85328","","null","","","null","10","","","","","","","","","","","","","","","",""
"","time_out","","html-keyboard-response","71","142792","0.0-1.0-98.0-0.0","0","0","85328","","null","","","null","10","","","","","","","","","","","","","","","",""
"","ITI","","html-keyboard-response","72","143800","0.0-1.0-99.0","0","0","85328","","null","","","null","10","","","","","","","","","","","","","","","NaN",""
"","S1","","html-keyboard-response","73","144067","0.0-1.0-101.0","0","0","85328","","null","","","null","11","","","","","","","","","","","","","","","",""
"","ISI","","html-keyboard-response","74","145080","0.0-1.0-102.0","0","0","85328","","null","","","null","11","NaN","","","","","","","","","","","","","","",""
"","S2","","html-keyboard-response","75","145347","0.0-1.0-103.0","0","0","85328","","null","","","null","11","","NaN","","","","","","","","","","","","","",""
"","response","","html-keyboard-response","76","145808","0.0-1.0-104.0-0.0","0","0","85328","","456","","","75","11","","","1","11","training","adjacent","FG","6","7","N.jpg","M.jpg","0","1","0","",""
"","feedback","","html-keyboard-response","77","146818","0.0-1.0-105.0-0.0","0","0","85328","","null","","","null","11","","","","","","","","","","","","","","","",""
"","time_out","","html-keyboard-response","78","148825","0.0-1.0-107.0-0.0","0","0","85328","","null","","","null","11","","","","","","","","","","","","","","","",""
"","ITI","","html-keyboard-response","79","149832","0.0-1.0-108.0","0","0","85328","","null","","","null","11","","","","","","","","","","","","","","","NaN",""
"","S1","","html-keyboard-response","80","150099","0.0-1.0-110.0","0","0","85328","","null","","","null","12","","","","","","","","","","","","","","","",""
"","ISI","","html-keyboard-response","81","151112","0.0-1.0-111.0","0","0","85328","","null","","","null","12","NaN","","","","","","","","","","","","","","",""
"","S2","","html-keyboard-response","82","151379","0.0-1.0-112.0","0","0","85328","","null","","","null","12","","NaN","","","","","","","","","","","","","",""
"","response","","html-keyboard-response","83","151943","0.0-1.0-113.0-0.0","0","0","85328","","558","","","75","12","","","1","12","training","adjacent","FE","6","5","N.jpg","L.jpg","0","0","1","",""
"","feedback","","html-keyboard-response","84","152952","0.0-1.0-114.0-0.0","0","0","85328","","null","","","null","12","","","","","","","","","","","","","","","",""
"","ITI","","html-keyboard-response","85","153960","0.0-1.0-117.0","0","0","85328","","null","","","null","12","","","","","","","","","","","","","","","NaN",""
"","S1","","html-keyboard-response","86","154227","0.0-1.0-119.0","0","0","85328","","null","","","null","13","","","","","","","","","","","","","","","",""
"","ISI","","html-keyboard-response","87","155240","0.0-1.0-120.0","0","0","85328","","null","","","null","13","NaN","","","","","","","","","","","","","","",""
"","S2","","html-keyboard-response","88","155507","0.0-1.0-121.0","0","0","85328","","null","","","null","13","","NaN","","","","","","","","","","","","","",""
"","response","","html-keyboard-response","89","155866","0.0-1.0-122.0-0.0","0","0","85328","","354","","","68","13","","","1","13","training","adjacent","EF","5","6","L.jpg","N.jpg","1","1","1","",""
"","feedback","","html-keyboard-response","90","156884","0.0-1.0-123.0-0.0","0","0","85328","","null","","","null","13","","","","","","","","","","","","","","","",""
"","ITI","","html-keyboard-response","91","157896","0.0-1.0-126.0","0","0","85328","","null","","","null","13","","","","","","","","","","","","","","","NaN",""
"","S1","","html-keyboard-response","92","158163","0.0-1.0-128.0","0","0","85328","","null","","","null","14","","","","","","","","","","","","","","","",""
"","ISI","","html-keyboard-response","93","159176","0.0-1.0-129.0","0","0","85328","","null","","","null","14","NaN","","","","","","","","","","","","","","",""
"","S2","","html-keyboard-response","94","159443","0.0-1.0-130.0","0","0","85328","","null","","","null","14","","NaN","","","","","","","","","","","","","",""
"","response","","html-keyboard-response","95","160139","0.0-1.0-131.0-0.0","0","0","85328","","690","","","75","14","","","1","14","training","adjacent","DE","4","5","Q.jpg","L.jpg","0","1","0","",""
"","feedback","","html-keyboard-response","96","161154","0.0-1.0-132.0-0.0","0","0","85328","","null","","","null","14","","","","","","","","","","","","","","","",""
"","time_out","","html-keyboard-response","97","163171","0.0-1.0-134.0-0.0","0","0","85328","","null","","","null","14","","","","","","","","","","","","","","","",""
"","ITI","","html-keyboard-response","98","164184","0.0-1.0-135.0","0","0","85328","","null","","","null","14","","","","","","","","","","","","","","","NaN",""
"","S1","","html-keyboard-response","99","164451","0.0-1.0-137.0","0","0","85328","","null","","","null","15","","","","","","","","","","","","","","","",""
"","ISI","","html-keyboard-response","100","165464","0.0-1.0-138.0","0","0","85328","","null","","","null","15","NaN","","","","","","","","","","","","","","",""
"","S2","","html-keyboard-response","101","165731","0.0-1.0-139.0","0","0","85328","","null","","","null","15","","NaN","","","","","","","","","","","","","",""
"","response","","html-keyboard-response","102","166213","0.0-1.0-140.0-0.0","0","0","85328","","476","","","68","15","","","1","15","training","adjacent","GF","7","6","M.jpg","N.jpg","1","0","0","",""
"","feedback","","html-keyboard-response","103","167224","0.0-1.0-141.0-0.0","0","0","85328","","null","","","null","15","","","","","","","","","","","","","","","",""
"","time_out","","html-keyboard-response","104","169233","0.0-1.0-143.0-0.0","0","0","85328","","null","","","null","15","","","","","","","","","","","","","","","",""
"","ITI","","html-keyboard-response","105","170243","0.0-1.0-144.0","0","0","85328","","null","","","null","15","","","","","","","","","","","","","","","NaN",""
"","S1","","html-keyboard-response","106","170504","0.0-1.0-146.0","0","0","85328","","null","","","null","16","","","","","","","","","","","","","","","",""
"","ISI","","html-keyboard-response","107","171512","0.0-1.0-147.0","0","0","85328","","null","","","null","16","NaN","","","","","","","","","","","","","","",""
"","S2","","html-keyboard-response","108","171778","0.0-1.0-148.0","0","0","85328","","null","","","null","16","","NaN","","","","","","","","","","","","","",""
"","response","","html-keyboard-response","109","172208","0.0-1.0-149.0-0.0","0","0","85328","","424","","","75","16","","","1","16","training","adjacent","CB","3","2","O.jpg","R.jpg","0","0","1","",""
"","feedback","","html-keyboard-response","110","173218","0.0-1.0-150.0-0.0","0","0","85328","","null","","","null","16","","","","","","","","","","","","","","","",""
"","ITI","","html-keyboard-response","111","174234","0.0-1.0-153.0","0","0","85328","","null","","","null","16","","","","","","","","","","","","","","","NaN",""
"","S1","","html-keyboard-response","112","174498","0.0-1.0-155.0","0","0","85328","","null","","","null","17","","","","","","","","","","","","","","","",""
"","ISI","","html-keyboard-response","113","175512","0.0-1.0-156.0","0","0","85328","","null","","","null","17","NaN","","","","","","","","","","","","","","",""
"","S2","","html-keyboard-response","114","175778","0.0-1.0-157.0","0","0","85328","","null","","","null","17","","NaN","","","","","","","","","","","","","",""
"","response","","html-keyboard-response","115","176398","0.0-1.0-158.0-0.0","0","0","85328","","615","","","68","17","","","1","17","training","adjacent","CD","3","4","O.jpg","Q.jpg","1","1","1","",""
"","feedback","","html-keyboard-response","116","177410","0.0-1.0-159.0-0.0","0","0","85328","","null","","","null","17","","","","","","","","","","","","","","","",""
"","ITI","","html-keyboard-response","117","178424","0.0-1.0-162.0","0","0","85328","","null","","","null","17","","","","","","","","","","","","","","","NaN",""
"","S1","","html-keyboard-response","118","178691","0.0-1.0-164.0","0","0","85328","","null","","","null","18","","","","","","","","","","","","","","","",""
"","ISI","","html-keyboard-response","119","179704","0.0-1.0-165.0","0","0","85328","","null","","","null","18","NaN","","","","","","","","","","","","","","",""
"","S2","","html-keyboard-response","120","179970","0.0-1.0-166.0","0","0","85328","","null","","","null","18","","NaN","","","","","","","","","","","","","",""
"","response","","html-keyboard-response","121","180529","0.0-1.0-167.0-0.0","0","0","85328","","553","","","68","18","","","1","18","training","adjacent","DC","4","3","Q.jpg","O.jpg","1","0","0","",""
"","feedback","","html-keyboard-response","122","181538","0.0-1.0-168.0-0.0","0","0","85328","","null","","","null","18","","","","","","","","","","","","","","","",""
"","time_out","","html-keyboard-response","123","183554","0.0-1.0-170.0-0.0","0","0","85328","","null","","","null","18","","","","","","","","","","","","","","","",""
"","ITI","","html-keyboard-response","124","184568","0.0-1.0-171.0","0","0","85328","","null","","","null","18","","","","","","","","","","","","","","","NaN",""
"","S1","","html-keyboard-response","125","184834","0.0-1.0-173.0","0","0","85328","","null","","","null","19","","","","","","","","","","","","","","","",""
"","ISI","","html-keyboard-response","126","185848","0.0-1.0-174.0","0","0","85328","","null","","","null","19","NaN","","","","","","","","","","","","","","",""
"","S2","","html-keyboard-response","127","186114","0.0-1.0-175.0","0","0","85328","","null","","","null","19","","NaN","","","","","","","","","","","","","",""
"","response","","html-keyboard-response","128","186571","0.0-1.0-176.0-0.0","0","0","85328","","452","","","68","19","","","1","19","training","adjacent","CD","3","4","O.jpg","Q.jpg","1","1","1","",""
"","feedback","","html-keyboard-response","129","187586","0.0-1.0-177.0-0.0","0","0","85328","","null","","","null","19","","","","","","","","","","","","","","","",""
"","ITI","","html-keyboard-response","130","188599","0.0-1.0-180.0","0","0","85328","","null","","","null","19","","","","","","","","","","","","","","","NaN",""
"","S1","","html-keyboard-response","131","188856","0.0-1.0-182.0","0","0","85328","","null","","","null","20","","","","","","","","","","","","","","","",""
"","ISI","","html-keyboard-response","132","189863","0.0-1.0-183.0","0","0","85328","","null","","","null","20","NaN","","","","","","","","","","","","","","",""
"","S2","","html-keyboard-response","133","190128","0.0-1.0-184.0","0","0","85328","","null","","","null","20","","NaN","","","","","","","","","","","","","",""
"","response","","html-keyboard-response","134","190632","0.0-1.0-185.0-0.0","0","0","85328","","498","","","68","20","","","1","20","training","adjacent","BC","2","3","R.jpg","O.jpg","1","1","1","",""
"","feedback","","html-keyboard-response","135","191640","0.0-1.0-186.0-0.0","0","0","85328","","null","","","null","20","","","","","","","","","","","","","","","",""
"","ITI","","html-keyboard-response","136","192649","0.0-1.0-189.0","0","0","85328","","null","","","null","20","","","","","","","","","","","","","","","NaN",""
"","S1","","html-keyboard-response","137","192914","0.0-1.0-191.0","0","0","85328","","null","","","null","21","","","","","","","","","","","","","","","",""
"","ISI","","html-keyboard-response","138","193927","0.0-1.0-192.0","0","0","85328","","null","","","null","21","NaN","","","","","","","","","","","","","","",""
"","S2","","html-keyboard-response","139","194194","0.0-1.0-193.0","0","0","85328","","null","","","null","21","","NaN","","","","","","","","","","","","","",""
"","response","","html-keyboard-response","140","195007","0.0-1.0-194.0-0.0","0","0","85328","","809","","","75","21","","","1","21","training","adjacent","ED","5","4","L.jpg","Q.jpg","0","0","1","",""
"","feedback","","html-keyboard-response","141","196018","0.0-1.0-195.0-0.0","0","0","85328","","null","","","null","21","","","","","","","","","","","","","","","",""
"","ITI","","html-keyboard-response","142","197031","0.0-1.0-198.0","0","0","85328","","null","","","null","21","","","","","","","","","","","","","","","NaN",""
"","S1","","html-keyboard-response","143","197298","0.0-1.0-200.0","0","0","85328","","null","","","null","22","","","","","","","","","","","","","","","",""
"","ISI","","html-keyboard-response","144","198311","0.0-1.0-201.0","0","0","85328","","null","","","null","22","NaN","","","","","","","","","","","","","","",""
"","S2","","html-keyboard-response","145","198578","0.0-1.0-202.0","0","0","85328","","null","","","null","22","","NaN","","","","","","","","","","","","","",""
"","response","","html-keyboard-response","146","198995","0.0-1.0-203.0-0.0","0","0","85328","","411","","","68","22","","","1","22","training","adjacent","ED","5","4","L.jpg","Q.jpg","1","0","0","",""
"","feedback","","html-keyboard-response","147","200007","0.0-1.0-204.0-0.0","0","0","85328","","null","","","null","22","","","","","","","","","","","","","","","",""
"","time_out","","html-keyboard-response","148","202017","0.0-1.0-206.0-0.0","0","0","85328","","null","","","null","22","","","","","","","","","","","","","","","",""
"","ITI","","html-keyboard-response","149","203026","0.0-1.0-207.0","0","0","85328","","null","","","null","22","","","","","","","","","","","","","","","NaN",""
"","S1","","html-keyboard-response","150","203287","0.0-1.0-209.0","0","0","85328","","null","","","null","23","","","","","","","","","","","","","","","",""
"","ISI","","html-keyboard-response","151","204297","0.0-1.0-210.0","0","0","85328","","null","","","null","23","NaN","","","","","","","","","","","","","","",""
"","S2","","html-keyboard-response","152","204562","0.0-1.0-211.0","0","0","85328","","null","","","null","23","","NaN","","","","","","","","","","","","","",""
"","response","","html-keyboard-response","153","205077","0.0-1.0-212.0-0.0","0","0","85328","","511","","","68","23","","","1","23","training","adjacent","BC","2","3","R.jpg","O.jpg","1","1","1","",""
"","feedback","","html-keyboard-response","154","206087","0.0-1.0-213.0-0.0","0","0","85328","","null","","","null","23","","","","","","","","","","","","","","","",""
"","ITI","","html-keyboard-response","155","207095","0.0-1.0-216.0","0","0","85328","","null","","","null","23","","","","","","","","","","","","","","","NaN",""
"","S1","","html-keyboard-response","156","207361","0.0-1.0-218.0","0","0","85328","","null","","","null","24","","","","","","","","","","","","","","","",""
"","ISI","","html-keyboard-response","157","208370","0.0-1.0-219.0","0","0","85328","","null","","","null","24","NaN","","","","","","","","","","","","","","",""
"","S2","","html-keyboard-response","158","208631","0.0-1.0-220.0","0","0","85328","","null","","","null","24","","NaN","","","","","","","","","","","","","",""
"","response","","html-keyboard-response","159","209107","0.0-1.0-221.0-0.0","0","0","85328","","471","","","68","24","","","1","24","training","adjacent","BC","2","3","R.jpg","O.jpg","1","1","1","",""
"","feedback","","html-keyboard-response","160","210119","0.0-1.0-222.0-0.0","0","0","85328","","null","","","null","24","","","","","","","","","","","","","","","",""
"","ITI","","html-keyboard-response","161","211127","0.0-1.0-225.0","0","0","85328","","null","","","null","24","","","","","","","","","","","","","","","NaN",""
"","S1","","html-keyboard-response","162","211394","0.0-1.0-227.0","0","0","85328","","null","","","null","25","","","","","","","","","","","","","","","",""
"","ISI","","html-keyboard-response","163","212407","0.0-1.0-228.0","0","0","85328","","null","","","null","25","NaN","","","","","","","","","","","","","","",""
"","S2","","html-keyboard-response","164","212674","0.0-1.0-229.0","0","0","85328","","null","","","null","25","","NaN","","","","","","","","","","","","","",""
"","response","","html-keyboard-response","165","213216","0.0-1.0-230.0-0.0","0","0","85328","","537","","","68","25","","","1","25","training","adjacent","CB","3","2","O.jpg","R.jpg","1","0","0","",""
"","feedback","","html-keyboard-response","166","214226","0.0-1.0-231.0-0.0","0","0","85328","","null","","","null","25","","","","","","","","","","","","","","","",""
"","time_out","","html-keyboard-response","167","216242","0.0-1.0-233.0-0.0","0","0","85328","","null","","","null","25","","","","","","","","","","","","","","","",""
"","ITI","","html-keyboard-response","168","217255","0.0-1.0-234.0","0","0","85328","","null","","","null","25","","","","","","","","","","","","","","","NaN",""
"","S1","","html-keyboard-response","169","217521","0.0-1.0-236.0","0","0","85328","","null","","","null","26","","","","","","","","","","","","","","","",""
"","ISI","","html-keyboard-response","170","218535","0.0-1.0-237.0","0","0","85328","","null","","","null","26","NaN","","","","","","","","","","","","","","",""
"","S2","","html-keyboard-response","171","218802","0.0-1.0-238.0","0","0","85328","","null","","","null","26","","NaN","","","","","","","","","","","","","",""
"","response","","html-keyboard-response","172","219187","0.0-1.0-239.0-0.0","0","0","85328","","380","","","68","26","","","1","26","training","adjacent","DE","4","5","Q.jpg","L.jpg","1","1","1","",""
"","feedback","","html-keyboard-response","173","220199","0.0-1.0-240.0-0.0","0","0","85328","","null","","","null","26","","","","","","","","","","","","","","","",""
"","ITI","","html-keyboard-response","174","221207","0.0-1.0-243.0","0","0","85328","","null","","","null","26","","","","","","","","","","","","","","","NaN",""
"","S1","","html-keyboard-response","175","221474","0.0-1.0-245.0","0","0","85328","","null","","","null","27","","","","","","","","","","","","","","","",""
"","ISI","","html-keyboard-response","176","222487","0.0-1.0-246.0","0","0","85328","","null","","","null","27","NaN","","","","","","","","","","","","","","",""
"","S2","","html-keyboard-response","177","222754","0.0-1.0-247.0","0","0","85328","","null","","","null","27","","NaN","","","","","","","","","","","","","",""
"","response","","html-keyboard-response","178","223273","0.0-1.0-248.0-0.0","0","0","85328","","513","","","75","27","","","1","27","training","adjacent","ED","5","4","L.jpg","Q.jpg","0","0","1","",""
"","feedback","","html-keyboard-response","179","224279","0.0-1.0-249.0-0.0","0","0","85328","","null","","","null","27","","","","","","","","","","","","","","","",""
"","ITI","","html-keyboard-response","180","225287","0.0-1.0-252.0","0","0","85328","","null","","","null","27","","","","","","","","","","","","","","","NaN",""
"","S1","","html-keyboard-response","181","225554","0.0-1.0-254.0","0","0","85328","","null","","","null","28","","","","","","","","","","","","","","","",""
"","ISI","","html-keyboard-response","182","226567","0.0-1.0-255.0","0","0","85328","","null","","","null","28","NaN","","","","","","","","","","","","","","",""
"","S2","","html-keyboard-response","183","226834","0.0-1.0-256.0","0","0","85328","","null","","","null","28","","NaN","","","","","","","","","","","","","",""
"","response","","html-keyboard-response","184","227290","0.0-1.0-257.0-0.0","0","0","85328","","450","","","68","28","","","1","28","training","adjacent","BA","2","1","R.jpg","P.jpg","1","0","0","",""
"","feedback","","html-keyboard-response","185","228306","0.0-1.0-258.0-0.0","0","0","85328","","null","","","null","28","","","","","","","","","","","","","","","",""
"","time_out","","html-keyboard-response","186","230322","0.0-1.0-260.0-0.0","0","0","85328","","null","","","null","28","","","","","","","","","","","","","","","",""
"","ITI","","html-keyboard-response","187","231335","0.0-1.0-261.0","0","0","85328","","null","","","null","28","","","","","","","","","","","","","","","NaN",""
"","S1","","html-keyboard-response","188","231602","0.0-1.0-263.0","0","0","85328","","null","","","null","29","","","","","","","","","","","","","","","",""
"","ISI","","html-keyboard-response","189","232615","0.0-1.0-264.0","0","0","85328","","null","","","null","29","NaN","","","","","","","","","","","","","","",""
"","S2","","html-keyboard-response","190","232883","0.0-1.0-265.0","0","0","85328","","null","","","null","29","","NaN","","","","","","","","","","","","","",""
"","response","","html-keyboard-response","191","233265","0.0-1.0-266.0-0.0","0","0","85328","","377","","","68","29","","","1","29","training","adjacent","AB","1","2","P.jpg","R.jpg","1","1","1","",""
"","feedback","","html-keyboard-response","192","234281","0.0-1.0-267.0-0.0","0","0","85328","","null","","","null","29","","","","","","","","","","","","","","","",""
"","ITI","","html-keyboard-response","193","235297","0.0-1.0-270.0","0","0","85328","","null","","","null","29","","","","","","","","","","","","","","","NaN",""
"","S1","","html-keyboard-response","194","235559","0.0-1.0-272.0","0","0","85328","","null","","","null","30","","","","","","","","","","","","","","","",""
"","ISI","","html-keyboard-response","195","236567","0.0-1.0-273.0","0","0","85328","","null","","","null","30","NaN","","","","","","","","","","","","","","",""
"","S2","","html-keyboard-response","196","236834","0.0-1.0-274.0","0","0","85328","","null","","","null","30","","NaN","","","","","","","","","","","","","",""
"","response","","html-keyboard-response","197","237336","0.0-1.0-275.0-0.0","0","0","85328","","497","","","75","30","","","1","30","training","adjacent","GF","7","6","M.jpg","N.jpg","0","0","1","",""
"","feedback","","html-keyboard-response","198","238343","0.0-1.0-276.0-0.0","0","0","85328","","null","","","null","30","","","","","","","","","","","","","","","",""
"","ITI","","html-keyboard-response","199","239351","0.0-1.0-279.0","0","0","85328","","null","","","null","30","","","","","","","","","","","","","","","NaN",""
"","S1","","html-keyboard-response","200","239618","0.0-1.0-281.0","0","0","85328","","null","","","null","31","","","","","","","","","","","","","","","",""
"","ISI","","html-keyboard-response","201","240631","0.0-1.0-282.0","0","0","85328","","null","","","null","31","NaN","","","","","","","","","","","","","","",""
"","S2","","html-keyboard-response","202","240898","0.0-1.0-283.0","0","0","85328","","null","","","null","31","","NaN","","","","","","","","","","","","","",""
"","response","","html-keyboard-response","203","241327","0.0-1.0-284.0-0.0","0","0","85328","","423","","","68","31","","","1","31","training","adjacent","DE","4","5","Q.jpg","L.jpg","1","1","1","",""
"","feedback","","html-keyboard-response","204","242338","0.0-1.0-285.0-0.0","0","0","85328","","null","","","null","31","","","","","","","","","","","","","","","",""
"","ITI","","html-keyboard-response","205","243351","0.0-1.0-288.0","0","0","85328","","null","","","null","31","","","","","","","","","","","","","","","NaN",""
"","S1","","html-keyboard-response","206","243618","0.0-1.0-290.0","0","0","85328","","null","","","null","32","","","","","","","","","","","","","","","",""
"","ISI","","html-keyboard-response","207","244631","0.0-1.0-291.0","0","0","85328","","null","","","null","32","NaN","","","","","","","","","","","","","","",""
"","S2","","html-keyboard-response","208","244897","0.0-1.0-292.0","0","0","85328","","null","","","null","32","","NaN","","","","","","","","","","","","","",""
"","response","","html-keyboard-response","209","245465","0.0-1.0-293.0-0.0","0","0","85328","","563","","","75","32","","","1","32","training","adjacent","FE","6","5","N.jpg","L.jpg","0","0","1","",""
"","feedback","","html-keyboard-response","210","246482","0.0-1.0-294.0-0.0","0","0","85328","","null","","","null","32","","","","","","","","","","","","","","","",""
"","ITI","","html-keyboard-response","211","247497","0.0-1.0-297.0","0","0","85328","","null","","","null","32","","","","","","","","","","","","","","","NaN",""
"","S1","","html-keyboard-response","212","247762","0.0-1.0-299.0","0","0","85328","","null","","","null","33","","","","","","","","","","","","","","","",""
"","ISI","","html-keyboard-response","213","248775","0.0-1.0-300.0","0","0","85328","","null","","","null","33","NaN","","","","","","","","","","","","","","",""
"","S2","","html-keyboard-response","214","249042","0.0-1.0-301.0","0","0","85328","","null","","","null","33","","NaN","","","","","","","","","","","","","",""
"","response","","html-keyboard-response","215","249685","0.0-1.0-302.0-0.0","0","0","85328","","638","","","75","33","","","1","33","training","adjacent","BA","2","1","R.jpg","P.jpg","0","0","1","",""
"","feedback","","html-keyboard-response","216","250695","0.0-1.0-303.0-0.0","0","0","85328","","null","","","null","33","","","","","","","","","","","","","","","",""
"","ITI","","html-keyboard-response","217","251703","0.0-1.0-306.0","0","0","85328","","null","","","null","33","","","","","","","","","","","","","","","NaN",""
"","S1","","html-keyboard-response","218","251970","0.0-1.0-308.0","0","0","85328","","null","","","null","34","","","","","","","","","","","","","","","",""
"","ISI","","html-keyboard-response","219","252983","0.0-1.0-309.0","0","0","85328","","null","","","null","34","NaN","","","","","","","","","","","","","","",""
"","S2","","html-keyboard-response","220","253250","0.0-1.0-310.0","0","0","85328","","null","","","null","34","","NaN","","","","","","","","","","","","","",""
"","response","","html-keyboard-response","221","253862","0.0-1.0-311.0-0.0","0","0","85328","","607","","","75","34","","","1","34","training","adjacent","BC","2","3","R.jpg","O.jpg","0","1","0","",""
"","feedback","","html-keyboard-response","222","254871","0.0-1.0-312.0-0.0","0","0","85328","","null","","","null","34","","","","","","","","","","","","","","","",""
"","time_out","","html-keyboard-response","223","256882","0.0-1.0-314.0-0.0","0","0","85328","","null","","","null","34","","","","","","","","","","","","","","","",""
"","ITI","","html-keyboard-response","224","257895","0.0-1.0-315.0","0","0","85328","","null","","","null","34","","","","","","","","","","","","","","","NaN",""
"","S1","","html-keyboard-response","225","258162","0.0-1.0-317.0","0","0","85328","","null","","","null","35","","","","","","","","","","","","","","","",""
"","ISI","","html-keyboard-response","226","259175","0.0-1.0-318.0","0","0","85328","","null","","","null","35","NaN","","","","","","","","","","","","","","",""
"","S2","","html-keyboard-response","227","259441","0.0-1.0-319.0","0","0","85328","","null","","","null","35","","NaN","","","","","","","","","","","","","",""
"","response","","html-keyboard-response","228","259961","0.0-1.0-320.0-0.0","0","0","85328","","516","","","75","35","","","1","35","training","adjacent","CB","3","2","O.jpg","R.jpg","0","0","1","",""
"","feedback","","html-keyboard-response","229","260978","0.0-1.0-321.0-0.0","0","0","85328","","null","","","null","35","","","","","","","","","","","","","","","",""
"","ITI","","html-keyboard-response","230","261994","0.0-1.0-324.0","0","0","85328","","null","","","null","35","","","","","","","","","","","","","","","NaN",""
"","S1","","html-keyboard-response","231","262257","0.0-1.0-326.0","0","0","85328","","null","","","null","36","","","","","","","","","","","","","","","",""
"","ISI","","html-keyboard-response","232","263271","0.0-1.0-327.0","0","0","85328","","null","","","null","36","NaN","","","","","","","","","","","","","","",""
"","S2","","html-keyboard-response","233","263538","0.0-1.0-328.0","0","0","85328","","null","","","null","36","","NaN","","","","","","","","","","","","","",""
"","response","","html-keyboard-response","234","264243","0.0-1.0-329.0-0.0","0","0","85328","","700","","","68","36","","","1","36","training","adjacent","FE","6","5","N.jpg","L.jpg","1","0","0","",""
"","feedback","","html-keyboard-response","235","265255","0.0-1.0-330.0-0.0","0","0","85328","","null","","","null","36","","","","","","","","","","","","","","","",""
"","time_out","","html-keyboard-response","236","267265","0.0-1.0-332.0-0.0","0","0","85328","","null","","","null","36","","","","","","","","","","","","","","","",""
"","ITI","","html-keyboard-response","237","268278","0.0-1.0-333.0","0","0","85328","","null","","","null","36","","","","","","","","","","","","","","","NaN",""
"","S1","","html-keyboard-response","238","268535","0.0-1.0-335.0","0","0","85328","","null","","","null","37","","","","","","","","","","","","","","","",""
"","ISI","","html-keyboard-response","239","269542","0.0-1.0-336.0","0","0","85328","","null","","","null","37","NaN","","","","","","","","","","","","","","",""
"","S2","","html-keyboard-response","240","269809","0.0-1.0-337.0","0","0","85328","","null","","","null","37","","NaN","","","","","","","","","","","","","",""
"","response","","html-keyboard-response","241","270179","0.0-1.0-338.0-0.0","0","0","85328","","365","","","68","37","","","1","37","training","adjacent","DE","4","5","Q.jpg","L.jpg","1","1","1","",""
"","feedback","","html-keyboard-response","242","271191","0.0-1.0-339.0-0.0","0","0","85328","","null","","","null","37","","","","","","","","","","","","","","","",""
"","ITI","","html-keyboard-response","243","272198","0.0-1.0-342.0","0","0","85328","","null","","","null","37","","","","","","","","","","","","","","","NaN",""
"","S1","","html-keyboard-response","244","272464","0.0-1.0-344.0","0","0","85328","","null","","","null","38","","","","","","","","","","","","","","","",""
"","ISI","","html-keyboard-response","245","273474","0.0-1.0-345.0","0","0","85328","","null","","","null","38","NaN","","","","","","","","","","","","","","",""
"","S2","","html-keyboard-response","246","273735","0.0-1.0-346.0","0","0","85328","","null","","","null","38","","NaN","","","","","","","","","","","","","",""
"","response","","html-keyboard-response","247","274426","0.0-1.0-347.0-0.0","0","0","85328","","686","","","68","38","","","1","38","training","adjacent","EF","5","6","L.jpg","N.jpg","1","1","1","",""
"","feedback","","html-keyboard-response","248","275441","0.0-1.0-348.0-0.0","0","0","85328","","null","","","null","38","","","","","","","","","","","","","","","",""
"","ITI","","html-keyboard-response","249","276454","0.0-1.0-351.0","0","0","85328","","null","","","null","38","","","","","","","","","","","","","","","NaN",""
"","S1","","html-keyboard-response","250","276721","0.0-1.0-353.0","0","0","85328","","null","","","null","39","","","","","","","","","","","","","","","",""
"","ISI","","html-keyboard-response","251","277734","0.0-1.0-354.0","0","0","85328","","null","","","null","39","NaN","","","","","","","","","","","","","","",""
"","S2","","html-keyboard-response","252","278001","0.0-1.0-355.0","0","0","85328","","null","","","null","39","","NaN","","","","","","","","","","","","","",""
"","response","","html-keyboard-response","253","278774","0.0-1.0-356.0-0.0","0","0","85328","","768","","","68","39","","","1","39","training","adjacent","GF","7","6","M.jpg","N.jpg","1","0","0","",""
"","feedback","","html-keyboard-response","254","279786","0.0-1.0-357.0-0.0","0","0","85328","","null","","","null","39","","","","","","","","","","","","","","","",""
"","time_out","","html-keyboard-response","255","281798","0.0-1.0-359.0-0.0","0","0","85328","","null","","","null","39","","","","","","","","","","","","","","","",""
"","ITI","","html-keyboard-response","256","282806","0.0-1.0-360.0","0","0","85328","","null","","","null","39","","","","","","","","","","","","","","","NaN",""
"","S1","","html-keyboard-response","257","283073","0.0-1.0-362.0","0","0","85328","","null","","","null","40","","","","","","","","","","","","","","","",""
"","ISI","","html-keyboard-response","258","284086","0.0-1.0-363.0","0","0","85328","","null","","","null","40","NaN","","","","","","","","","","","","","","",""
"","S2","","html-keyboard-response","259","284352","0.0-1.0-364.0","0","0","85328","","null","","","null","40","","NaN","","","","","","","","","","","","","",""
"","response","","html-keyboard-response","260","285035","0.0-1.0-365.0-0.0","0","0","85328","","677","","","68","40","","","1","40","training","adjacent","CB","3","2","O.jpg","R.jpg","1","0","0","",""
"","feedback","","html-keyboard-response","261","286049","0.0-1.0-366.0-0.0","0","0","85328","","null","","","null","40","","","","","","","","","","","","","","","",""
"","time_out","","html-keyboard-response","262","288065","0.0-1.0-368.0-0.0","0","0","85328","","null","","","null","40","","","","","","","","","","","","","","","",""
"","ITI","","html-keyboard-response","263","289078","0.0-1.0-369.0","0","0","85328","","null","","","null","40","","","","","","","","","","","","","","","NaN",""
"","S1","","html-keyboard-response","264","289345","0.0-1.0-371.0","0","0","85328","","null","","","null","41","","","","","","","","","","","","","","","",""
"","ISI","","html-keyboard-response","265","290358","0.0-1.0-372.0","0","0","85328","","null","","","null","41","NaN","","","","","","","","","","","","","","",""
"","S2","","html-keyboard-response","266","290625","0.0-1.0-373.0","0","0","85328","","null","","","null","41","","NaN","","","","","","","","","","","","","",""
"","response","","html-keyboard-response","267","291087","0.0-1.0-374.0-0.0","0","0","85328","","457","","","75","41","","","1","41","training","adjacent","BA","2","1","R.jpg","P.jpg","0","0","1","",""
"","feedback","","html-keyboard-response","268","292097","0.0-1.0-375.0-0.0","0","0","85328","","null","","","null","41","","","","","","","","","","","","","","","",""
"","ITI","","html-keyboard-response","269","293110","0.0-1.0-378.0","0","0","85328","","null","","","null","41","","","","","","","","","","","","","","","NaN",""
"","S1","","html-keyboard-response","270","293377","0.0-1.0-380.0","0","0","85328","","null","","","null","42","","","","","","","","","","","","","","","",""
"","ISI","","html-keyboard-response","271","294390","0.0-1.0-381.0","0","0","85328","","null","","","null","42","NaN","","","","","","","","","","","","","","",""
"","S2","","html-keyboard-response","272","294656","0.0-1.0-382.0","0","0","85328","","null","","","null","42","","NaN","","","","","","","","","","","","","",""
"","response","","html-keyboard-response","273","295122","0.0-1.0-383.0-0.0","0","0","85328","","460","","","75","42","","","1","42","training","adjacent","EF","5","6","L.jpg","N.jpg","0","1","0","",""
"","feedback","","html-keyboard-response","274","296135","0.0-1.0-384.0-0.0","0","0","85328","","null","","","null","42","","","","","","","","","","","","","","","",""
"","time_out","","html-keyboard-response","275","298145","0.0-1.0-386.0-0.0","0","0","85328","","null","","","null","42","","","","","","","","","","","","","","","",""
"","ITI","","html-keyboard-response","276","299158","0.0-1.0-387.0","0","0","85328","","null","","","null","42","","","","","","","","","","","","","","","NaN",""
"","S1","","html-keyboard-response","277","299425","0.0-1.0-389.0","0","0","85328","","null","","","null","43","","","","","","","","","","","","","","","",""
"","ISI","","html-keyboard-response","278","300438","0.0-1.0-390.0","0","0","85328","","null","","","null","43","NaN","","","","","","","","","","","","","","",""
"","S2","","html-keyboard-response","279","300705","0.0-1.0-391.0","0","0","85328","","null","","","null","43","","NaN","","","","","","","","","","","","","",""
"","response","","html-keyboard-response","280","301244","0.0-1.0-392.0-0.0","0","0","85328","","534","","","75","43","","","1","43","training","adjacent","EF","5","6","L.jpg","N.jpg","0","1","0","",""
"","feedback","","html-keyboard-response","281","302257","0.0-1.0-393.0-0.0","0","0","85328","","null","","","null","43","","","","","","","","","","","","","","","",""
"","time_out","","html-keyboard-response","282","304273","0.0-1.0-395.0-0.0","0","0","85328","","null","","","null","43","","","","","","","","","","","","","","","",""
"","ITI","","html-keyboard-response","283","305286","0.0-1.0-396.0","0","0","85328","","null","","","null","43","","","","","","","","","","","","","","","NaN",""
"","S1","","html-keyboard-response","284","305553","0.0-1.0-398.0","0","0","85328","","null","","","null","44","","","","","","","","","","","","","","","",""
"","ISI","","html-keyboard-response","285","306566","0.0-1.0-399.0","0","0","85328","","null","","","null","44","NaN","","","","","","","","","","","","","","",""
"","S2","","html-keyboard-response","286","306833","0.0-1.0-400.0","0","0","85328","","null","","","null","44","","NaN","","","","","","","","","","","","","",""
"","response","","html-keyboard-response","287","307471","0.0-1.0-401.0-0.0","0","0","85328","","632","","","68","44","","","1","44","training","adjacent","FG","6","7","N.jpg","M.jpg","1","1","1","",""
"","feedback","","html-keyboard-response","288","308481","0.0-1.0-402.0-0.0","0","0","85328","","null","","","null","44","","","","","","","","","","","","","","","",""
"","ITI","","html-keyboard-response","289","309494","0.0-1.0-405.0","0","0","85328","","null","","","null","44","","","","","","","","","","","","","","","NaN",""
"","S1","","html-keyboard-response","290","309761","0.0-1.0-407.0","0","0","85328","","null","","","null","45","","","","","","","","","","","","","","","",""
"","ISI","","html-keyboard-response","291","310774","0.0-1.0-408.0","0","0","85328","","null","","","null","45","NaN","","","","","","","","","","","","","","",""
"","S2","","html-keyboard-response","292","311041","0.0-1.0-409.0","0","0","85328","","null","","","null","45","","NaN","","","","","","","","","","","","","",""
"","response","","html-keyboard-response","293","311441","0.0-1.0-410.0-0.0","0","0","85328","","395","","","68","45","","","1","45","training","adjacent","DC","4","3","Q.jpg","O.jpg","1","0","0","",""
"","feedback","","html-keyboard-response","294","312454","0.0-1.0-411.0-0.0","0","0","85328","","null","","","null","45","","","","","","","","","","","","","","","",""
"","time_out","","html-keyboard-response","295","314465","0.0-1.0-413.0-0.0","0","0","85328","","null","","","null","45","","","","","","","","","","","","","","","",""
"","ITI","","html-keyboard-response","296","315478","0.0-1.0-414.0","0","0","85328","","null","","","null","45","","","","","","","","","","","","","","","NaN",""
"","S1","","html-keyboard-response","297","315744","0.0-1.0-416.0","0","0","85328","","null","","","null","46","","","","","","","","","","","","","","","",""
"","ISI","","html-keyboard-response","298","316758","0.0-1.0-417.0","0","0","85328","","null","","","null","46","NaN","","","","","","","","","","","","","","",""
"","S2","","html-keyboard-response","299","317025","0.0-1.0-418.0","0","0","85328","","null","","","null","46","","NaN","","","","","","","","","","","","","",""
"","response","","html-keyboard-response","300","317355","0.0-1.0-419.0-0.0","0","0","85328","","325","","","68","46","","","1","46","training","adjacent","CD","3","4","O.jpg","Q.jpg","1","1","1","",""
"","feedback","","html-keyboard-response","301","318369","0.0-1.0-420.0-0.0","0","0","85328","","null","","","null","46","","","","","","","","","","","","","","","",""
"","ITI","","html-keyboard-response","302","319382","0.0-1.0-423.0","0","0","85328","","null","","","null","46","","","","","","","","","","","","","","","NaN",""
"","S1","","html-keyboard-response","303","319649","0.0-1.0-425.0","0","0","85328","","null","","","null","47","","","","","","","","","","","","","","","",""
"","ISI","","html-keyboard-response","304","320662","0.0-1.0-426.0","0","0","85328","","null","","","null","47","NaN","","","","","","","","","","","","","","",""
"","S2","","html-keyboard-response","305","320929","0.0-1.0-427.0","0","0","85328","","null","","","null","47","","NaN","","","","","","","","","","","","","",""
"","response","","html-keyboard-response","306","321533","0.0-1.0-428.0-0.0","0","0","85328","","599","","","75","47","","","1","47","training","adjacent","FE","6","5","N.jpg","L.jpg","0","0","1","",""
"","feedback","","html-keyboard-response","307","322545","0.0-1.0-429.0-0.0","0","0","85328","","null","","","null","47","","","","","","","","","","","","","","","",""
"","ITI","","html-keyboard-response","308","323558","0.0-1.0-432.0","0","0","85328","","null","","","null","47","","","","","","","","","","","","","","","NaN",""
"","block_over","","html-keyboard-response","309","330488","0.0-1.0-433.0-0.0","0","0","85328","","6925","","","32","47","","","","","","","","","","","","","","","",""
"","S1","","html-keyboard-response","310","330752","0.0-1.0-434.0","0","0","85328","","null","","","null","48","","","","","","","","","","","","","","","",""
"","ISI","","html-keyboard-response","311","331766","0.0-1.0-435.0","0","0","85328","","null","","","null","48","NaN","","","","","","","","","","","","","","",""
"","S2","","html-keyboard-response","312","332031","0.0-1.0-436.0","0","0","85328","","null","","","null","48","","NaN","","","","","","","","","","","","","",""
"","response","","html-keyboard-response","313","332591","0.0-1.0-437.0-0.0","0","0","85328","","555","","","75","48","","","2","48","training","adjacent","BA","2","1","R.jpg","P.jpg","0","0","1","",""
"","feedback","","html-keyboard-response","314","333600","0.0-1.0-438.0-0.0","0","0","85328","","null","","","null","48","","","","","","","","","","","","","","","",""
"","ITI","","html-keyboard-response","315","334614","0.0-1.0-441.0","0","0","85328","","null","","","null","48","","","","","","","","","","","","","","","NaN",""
"","S1","","html-keyboard-response","316","334882","0.0-1.0-443.0","0","0","85328","","null","","","null","49","","","","","","","","","","","","","","","",""
"","ISI","","html-keyboard-response","317","335894","0.0-1.0-444.0","0","0","85328","","null","","","null","49","NaN","","","","","","","","","","","","","","",""
"","S2","","html-keyboard-response","318","336161","0.0-1.0-445.0","0","0","85328","","null","","","null","49","","NaN","","","","","","","","","","","","","",""
"","response","","html-keyboard-response","319","336711","0.0-1.0-446.0-0.0","0","0","85328","","545","","","75","49","","","2","49","training","adjacent","CB","3","2","O.jpg","R.jpg","0","0","1","",""
"","feedback","","html-keyboard-response","320","337717","0.0-1.0-447.0-0.0","0","0","85328","","null","","","null","49","","","","","","","","","","","","","","","",""
"","ITI","","html-keyboard-response","321","338725","0.0-1.0-450.0","0","0","85328","","null","","","null","49","","","","","","","","","","","","","","","NaN",""
"","S1","","html-keyboard-response","322","338982","0.0-1.0-452.0","0","0","85328","","null","","","null","50","","","","","","","","","","","","","","","",""
"","ISI","","html-keyboard-response","323","339990","0.0-1.0-453.0","0","0","85328","","null","","","null","50","NaN","","","","","","","","","","","","","","",""
"","S2","","html-keyboard-response","324","340256","0.0-1.0-454.0","0","0","85328","","null","","","null","50","","NaN","","","","","","","","","","","","","",""
"","response","","html-keyboard-response","325","340747","0.0-1.0-455.0-0.0","0","0","85328","","485","","","75","50","","","2","50","training","adjacent","GF","7","6","M.jpg","N.jpg","0","0","1","",""
"","feedback","","html-keyboard-response","326","341760","0.0-1.0-456.0-0.0","0","0","85328","","null","","","null","50","","","","","","","","","","","","","","","",""
"","ITI","","html-keyboard-response","327","342774","0.0-1.0-459.0","0","0","85328","","null","","","null","50","","","","","","","","","","","","","","","NaN",""
"","S1","","html-keyboard-response","328","343040","0.0-1.0-461.0","0","0","85328","","null","","","null","51","","","","","","","","","","","","","","","",""
"","ISI","","html-keyboard-response","329","344054","0.0-1.0-462.0","0","0","85328","","null","","","null","51","NaN","","","","","","","","","","","","","","",""
"","S2","","html-keyboard-response","330","344320","0.0-1.0-463.0","0","0","85328","","null","","","null","51","","NaN","","","","","","","","","","","","","",""
"","response","","html-keyboard-response","331","344700","0.0-1.0-464.0-0.0","0","0","85328","","374","","","75","51","","","2","51","training","adjacent","DC","4","3","Q.jpg","O.jpg","0","0","1","",""
"","feedback","","html-keyboard-response","332","345712","0.0-1.0-465.0-0.0","0","0","85328","","null","","","null","51","","","","","","","","","","","","","","","",""
"","ITI","","html-keyboard-response","333","346725","0.0-1.0-468.0","0","0","85328","","null","","","null","51","","","","","","","","","","","","","","","NaN",""
"","S1","","html-keyboard-response","334","346992","0.0-1.0-470.0","0","0","85328","","null","","","null","52","","","","","","","","","","","","","","","",""
"","ISI","","html-keyboard-response","335","348005","0.0-1.0-471.0","0","0","85328","","null","","","null","52","NaN","","","","","","","","","","","","","","",""
"","S2","","html-keyboard-response","336","348272","0.0-1.0-472.0","0","0","85328","","null","","","null","52","","NaN","","","","","","","","","","","","","",""
"","response","","html-keyboard-response","337","348661","0.0-1.0-473.0-0.0","0","0","85328","","383","","","68","52","","","2","52","training","adjacent","CB","3","2","O.jpg","R.jpg","1","0","0","",""
"","feedback","","html-keyboard-response","338","349670","0.0-1.0-474.0-0.0","0","0","85328","","null","","","null","52","","","","","","","","","","","","","","","",""
"","time_out","","html-keyboard-response","339","351680","0.0-1.0-476.0-0.0","0","0","85328","","null","","","null","52","","","","","","","","","","","","","","","",""
"","ITI","","html-keyboard-response","340","352694","0.0-1.0-477.0","0","0","85328","","null","","","null","52","","","","","","","","","","","","","","","NaN",""
"","S1","","html-keyboard-response","341","352960","0.0-1.0-479.0","0","0","85328","","null","","","null","53","","","","","","","","","","","","","","","",""
"","ISI","","html-keyboard-response","342","353974","0.0-1.0-480.0","0","0","85328","","null","","","null","53","NaN","","","","","","","","","","","","","","",""
"","S2","","html-keyboard-response","343","354241","0.0-1.0-481.0","0","0","85328","","null","","","null","53","","NaN","","","","","","","","","","","","","",""
"","response","","html-keyboard-response","344","354688","0.0-1.0-482.0-0.0","0","0","85328","","443","","","68","53","","","2","53","training","adjacent","FG","6","7","N.jpg","M.jpg","1","1","1","",""
"","feedback","","html-keyboard-response","345","355702","0.0-1.0-483.0-0.0","0","0","85328","","null","","","null","53","","","","","","","","","","","","","","","",""
"","ITI","","html-keyboard-response","346","356709","0.0-1.0-486.0","0","0","85328","","null","","","null","53","","","","","","","","","","","","","","","NaN",""
"","S1","","html-keyboard-response","347","356976","0.0-1.0-488.0","0","0","85328","","null","","","null","54","","","","","","","","","","","","","","","",""
"","ISI","","html-keyboard-response","348","357989","0.0-1.0-489.0","0","0","85328","","null","","","null","54","NaN","","","","","","","","","","","","","","",""
"","S2","","html-keyboard-response","349","358247","0.0-1.0-490.0","0","0","85328","","null","","","null","54","","NaN","","","","","","","","","","","","","",""
"","response","","html-keyboard-response","350","358574","0.0-1.0-491.0-0.0","0","0","85328","","321","","","75","54","","","2","54","training","adjacent","BA","2","1","R.jpg","P.jpg","0","0","1","",""
"","feedback","","html-keyboard-response","351","359584","0.0-1.0-492.0-0.0","0","0","85328","","null","","","null","54","","","","","","","","","","","","","","","",""
"","ITI","","html-keyboard-response","352","360598","0.0-1.0-495.0","0","0","85328","","null","","","null","54","","","","","","","","","","","","","","","NaN",""
"","S1","","html-keyboard-response","353","360864","0.0-1.0-497.0","0","0","85328","","null","","","null","55","","","","","","","","","","","","","","","",""
"","ISI","","html-keyboard-response","354","361879","0.0-1.0-498.0","0","0","85328","","null","","","null","55","NaN","","","","","","","","","","","","","","",""
"","S2","","html-keyboard-response","355","362144","0.0-1.0-499.0","0","0","85328","","null","","","null","55","","NaN","","","","","","","","","","","","","",""
"","response","","html-keyboard-response","356","362681","0.0-1.0-500.0-0.0","0","0","85328","","532","","","75","55","","","2","55","training","adjacent","CD","3","4","O.jpg","Q.jpg","0","1","0","",""
"","feedback","","html-keyboard-response","357","363696","0.0-1.0-501.0-0.0","0","0","85328","","null","","","null","55","","","","","","","","","","","","","","","",""
"","time_out","","html-keyboard-response","358","365712","0.0-1.0-503.0-0.0","0","0","85328","","null","","","null","55","","","","","","","","","","","","","","","",""
"","ITI","","html-keyboard-response","359","366726","0.0-1.0-504.0","0","0","85328","","null","","","null","55","","","","","","","","","","","","","","","NaN",""
"","S1","","html-keyboard-response","360","366992","0.0-1.0-506.0","0","0","85328","","null","","","null","56","","","","","","","","","","","","","","","",""
"","ISI","","html-keyboard-response","361","368005","0.0-1.0-507.0","0","0","85328","","null","","","null","56","NaN","","","","","","","","","","","","","","",""
"","S2","","html-keyboard-response","362","368272","0.0-1.0-508.0","0","0","85328","","null","","","null","56","","NaN","","","","","","","","","","","","","",""
"","response","","html-keyboard-response","363","368717","0.0-1.0-509.0-0.0","0","0","85328","","440","","","75","56","","","2","56","training","adjacent","BC","2","3","R.jpg","O.jpg","0","1","0","",""
"","feedback","","html-keyboard-response","364","369728","0.0-1.0-510.0-0.0","0","0","85328","","null","","","null","56","","","","","","","","","","","","","","","",""
"","time_out","","html-keyboard-response","365","371744","0.0-1.0-512.0-0.0","0","0","85328","","null","","","null","56","","","","","","","","","","","","","","","",""
"","ITI","","html-keyboard-response","366","372757","0.0-1.0-513.0","0","0","85328","","null","","","null","56","","","","","","","","","","","","","","","NaN",""
"","S1","","html-keyboard-response","367","373024","0.0-1.0-515.0","0","0","85328","","null","","","null","57","","","","","","","","","","","","","","","",""
"","ISI","","html-keyboard-response","368","374037","0.0-1.0-516.0","0","0","85328","","null","","","null","57","NaN","","","","","","","","","","","","","","",""
"","S2","","html-keyboard-response","369","374306","0.0-1.0-517.0","0","0","85328","","null","","","null","57","","NaN","","","","","","","","","","","","","",""
"","response","","html-keyboard-response","370","374741","0.0-1.0-518.0-0.0","0","0","85328","","430","","","75","57","","","2","57","training","adjacent","ED","5","4","L.jpg","Q.jpg","0","0","1","",""
"","feedback","","html-keyboard-response","371","375749","0.0-1.0-519.0-0.0","0","0","85328","","null","","","null","57","","","","","","","","","","","","","","","",""
"","ITI","","html-keyboard-response","372","376757","0.0-1.0-522.0","0","0","85328","","null","","","null","57","","","","","","","","","","","","","","","NaN",""
"","S1","","html-keyboard-response","373","377024","0.0-1.0-524.0","0","0","85328","","null","","","null","58","","","","","","","","","","","","","","","",""
"","ISI","","html-keyboard-response","374","378037","0.0-1.0-525.0","0","0","85328","","null","","","null","58","NaN","","","","","","","","","","","","","","",""
"","S2","","html-keyboard-response","375","378304","0.0-1.0-526.0","0","0","85328","","null","","","null","58","","NaN","","","","","","","","","","","","","",""
"","response","","html-keyboard-response","376","378730","0.0-1.0-527.0-0.0","0","0","85328","","421","","","75","58","","","2","58","training","adjacent","ED","5","4","L.jpg","Q.jpg","0","0","1","",""
"","feedback","","html-keyboard-response","377","379744","0.0-1.0-528.0-0.0","0","0","85328","","null","","","null","58","","","","","","","","","","","","","","","",""
"","ITI","","html-keyboard-response","378","380756","0.0-1.0-531.0","0","0","85328","","null","","","null","58","","","","","","","","","","","","","","","NaN",""
"","S1","","html-keyboard-response","379","381013","0.0-1.0-533.0","0","0","85328","","null","","","null","59","","","","","","","","","","","","","","","",""
"","ISI","","html-keyboard-response","380","382021","0.0-1.0-534.0","0","0","85328","","null","","","null","59","NaN","","","","","","","","","","","","","","",""
"","S2","","html-keyboard-response","381","382288","0.0-1.0-535.0","0","0","85328","","null","","","null","59","","NaN","","","","","","","","","","","","","",""
"","response","","html-keyboard-response","382","382842","0.0-1.0-536.0-0.0","0","0","85328","","549","","","68","59","","","2","59","training","adjacent","AB","1","2","P.jpg","R.jpg","1","1","1","",""
"","feedback","","html-keyboard-response","383","383853","0.0-1.0-537.0-0.0","0","0","85328","","null","","","null","59","","","","","","","","","","","","","","","",""
"","ITI","","html-keyboard-response","384","384862","0.0-1.0-540.0","0","0","85328","","null","","","null","59","","","","","","","","","","","","","","","NaN",""
"","S1","","html-keyboard-response","385","385125","0.0-1.0-542.0","0","0","85328","","null","","","null","60","","","","","","","","","","","","","","","",""
"","ISI","","html-keyboard-response","386","386133","0.0-1.0-543.0","0","0","85328","","null","","","null","60","NaN","","","","","","","","","","","","","","",""
"","S2","","html-keyboard-response","387","386389","0.0-1.0-544.0","0","0","85328","","null","","","null","60","","NaN","","","","","","","","","","","","","",""
"","response","","html-keyboard-response","388","387133","0.0-1.0-545.0-0.0","0","0","85328","","740","","","68","60","","","2","60","training","adjacent","EF","5","6","L.jpg","N.jpg","1","1","1","",""
"","feedback","","html-keyboard-response","389","388144","0.0-1.0-546.0-0.0","0","0","85328","","null","","","null","60","","","","","","","","","","","","","","","",""
"","ITI","","html-keyboard-response","390","389157","0.0-1.0-549.0","0","0","85328","","null","","","null","60","","","","","","","","","","","","","","","NaN",""
"","S1","","html-keyboard-response","391","389424","0.0-1.0-551.0","0","0","85328","","null","","","null","61","","","","","","","","","","","","","","","",""
"","ISI","","html-keyboard-response","392","390437","0.0-1.0-552.0","0","0","85328","","null","","","null","61","NaN","","","","","","","","","","","","","","",""
"","S2","","html-keyboard-response","393","390704","0.0-1.0-553.0","0","0","85328","","null","","","null","61","","NaN","","","","","","","","","","","","","",""
"","response","","html-keyboard-response","394","391183","0.0-1.0-554.0-0.0","0","0","85328","","474","","","68","61","","","2","61","training","adjacent","DC","4","3","Q.jpg","O.jpg","1","0","0","",""
"","feedback","","html-keyboard-response","395","392197","0.0-1.0-555.0-0.0","0","0","85328","","null","","","null","61","","","","","","","","","","","","","","","",""
"","time_out","","html-keyboard-response","396","394208","0.0-1.0-557.0-0.0","0","0","85328","","null","","","null","61","","","","","","","","","","","","","","","",""
"","ITI","","html-keyboard-response","397","395221","0.0-1.0-558.0","0","0","85328","","null","","","null","61","","","","","","","","","","","","","","","NaN",""
"","S1","","html-keyboard-response","398","395488","0.0-1.0-560.0","0","0","85328","","null","","","null","62","","","","","","","","","","","","","","","",""
"","ISI","","html-keyboard-response","399","396501","0.0-1.0-561.0","0","0","85328","","null","","","null","62","NaN","","","","","","","","","","","","","","",""
"","S2","","html-keyboard-response","400","396757","0.0-1.0-562.0","0","0","85328","","null","","","null","62","","NaN","","","","","","","","","","","","","",""
"","response","","html-keyboard-response","401","397595","0.0-1.0-563.0-0.0","0","0","85328","","832","","","68","62","","","2","62","training","adjacent","EF","5","6","L.jpg","N.jpg","1","1","1","",""
"","feedback","","html-keyboard-response","402","398608","0.0-1.0-564.0-0.0","0","0","85328","","null","","","null","62","","","","","","","","","","","","","","","",""
"","ITI","","html-keyboard-response","403","399622","0.0-1.0-567.0","0","0","85328","","null","","","null","62","","","","","","","","","","","","","","","NaN",""
"","S1","","html-keyboard-response","404","399887","0.0-1.0-569.0","0","0","85328","","null","","","null","63","","","","","","","","","","","","","","","",""
"","ISI","","html-keyboard-response","405","400901","0.0-1.0-570.0","0","0","85328","","null","","","null","63","NaN","","","","","","","","","","","","","","",""
"","S2","","html-keyboard-response","406","401168","0.0-1.0-571.0","0","0","85328","","null","","","null","63","","NaN","","","","","","","","","","","","","",""
"","response","","html-keyboard-response","407","401755","0.0-1.0-572.0-0.0","0","0","85328","","583","","","68","63","","","2","63","training","adjacent","CD","3","4","O.jpg","Q.jpg","1","1","1","",""
"","feedback","","html-keyboard-response","408","402768","0.0-1.0-573.0-0.0","0","0","85328","","null","","","null","63","","","","","","","","","","","","","","","",""
"","ITI","","html-keyboard-response","409","403782","0.0-1.0-576.0","0","0","85328","","null","","","null","63","","","","","","","","","","","","","","","NaN",""
"","S1","","html-keyboard-response","410","404048","0.0-1.0-578.0","0","0","85328","","null","","","null","64","","","","","","","","","","","","","","","",""
"","ISI","","html-keyboard-response","411","405061","0.0-1.0-579.0","0","0","85328","","null","","","null","64","NaN","","","","","","","","","","","","","","",""
"","S2","","html-keyboard-response","412","405328","0.0-1.0-580.0","0","0","85328","","null","","","null","64","","NaN","","","","","","","","","","","","","",""
"","response","","html-keyboard-response","413","405898","0.0-1.0-581.0-0.0","0","0","85328","","565","","","68","64","","","2","64","training","adjacent","BC","2","3","R.jpg","O.jpg","1","1","1","",""
"","feedback","","html-keyboard-response","414","406912","0.0-1.0-582.0-0.0","0","0","85328","","null","","","null","64","","","","","","","","","","","","","","","",""
"","ITI","","html-keyboard-response","415","407925","0.0-1.0-585.0","0","0","85328","","null","","","null","64","","","","","","","","","","","","","","","NaN",""
"","S1","","html-keyboard-response","416","408192","0.0-1.0-587.0","0","0","85328","","null","","","null","65","","","","","","","","","","","","","","","",""
"","ISI","","html-keyboard-response","417","409205","0.0-1.0-588.0","0","0","85328","","null","","","null","65","NaN","","","","","","","","","","","","","","",""
"","S2","","html-keyboard-response","418","409472","0.0-1.0-589.0","0","0","85328","","null","","","null","65","","NaN","","","","","","","","","","","","","",""
"","response","","html-keyboard-response","419","409878","0.0-1.0-590.0-0.0","0","0","85328","","401","","","68","65","","","2","65","training","adjacent","AB","1","2","P.jpg","R.jpg","1","1","1","",""
"","feedback","","html-keyboard-response","420","410884","0.0-1.0-591.0-0.0","0","0","85328","","null","","","null","65","","","","","","","","","","","","","","","",""
"","ITI","","html-keyboard-response","421","411895","0.0-1.0-594.0","0","0","85328","","null","","","null","65","","","","","","","","","","","","","","","NaN",""
"","S1","","html-keyboard-response","422","412158","0.0-1.0-596.0","0","0","85328","","null","","","null","66","","","","","","","","","","","","","","","",""
"","ISI","","html-keyboard-response","423","413167","0.0-1.0-597.0","0","0","85328","","null","","","null","66","NaN","","","","","","","","","","","","","","",""
"","S2","","html-keyboard-response","424","413428","0.0-1.0-598.0","0","0","85328","","null","","","null","66","","NaN","","","","","","","","","","","","","",""
"","response","","html-keyboard-response","425","413982","0.0-1.0-599.0-0.0","0","0","85328","","549","","","75","66","","","2","66","training","adjacent","GF","7","6","M.jpg","N.jpg","0","0","1","",""
"","feedback","","html-keyboard-response","426","414991","0.0-1.0-600.0-0.0","0","0","85328","","null","","","null","66","","","","","","","","","","","","","","","",""
"","ITI","","html-keyboard-response","427","416005","0.0-1.0-603.0","0","0","85328","","null","","","null","66","","","","","","","","","","","","","","","NaN",""
"","S1","","html-keyboard-response","428","416271","0.0-1.0-605.0","0","0","85328","","null","","","null","67","","","","","","","","","","","","","","","",""
"","ISI","","html-keyboard-response","429","417285","0.0-1.0-606.0","0","0","85328","","null","","","null","67","NaN","","","","","","","","","","","","","","",""
"","S2","","html-keyboard-response","430","417551","0.0-1.0-607.0","0","0","85328","","null","","","null","67","","NaN","","","","","","","","","","","","","",""
"","response","","html-keyboard-response","431","418000","0.0-1.0-608.0-0.0","0","0","85328","","444","","","75","67","","","2","67","training","adjacent","BA","2","1","R.jpg","P.jpg","0","0","1","",""
"","feedback","","html-keyboard-response","432","419013","0.0-1.0-609.0-0.0","0","0","85328","","null","","","null","67","","","","","","","","","","","","","","","",""
"","ITI","","html-keyboard-response","433","420022","0.0-1.0-612.0","0","0","85328","","null","","","null","67","","","","","","","","","","","","","","","NaN",""
"","S1","","html-keyboard-response","434","420287","0.0-1.0-614.0","0","0","85328","","null","","","null","68","","","","","","","","","","","","","","","",""
"","ISI","","html-keyboard-response","435","421301","0.0-1.0-615.0","0","0","85328","","null","","","null","68","NaN","","","","","","","","","","","","","","",""
"","S2","","html-keyboard-response","436","421567","0.0-1.0-616.0","0","0","85328","","null","","","null","68","","NaN","","","","","","","","","","","","","",""
"","response","","html-keyboard-response","437","421978","0.0-1.0-617.0-0.0","0","0","85328","","405","","","68","68","","","2","68","training","adjacent","FE","6","5","N.jpg","L.jpg","1","0","0","",""
"","feedback","","html-keyboard-response","438","422990","0.0-1.0-618.0-0.0","0","0","85328","","null","","","null","68","","","","","","","","","","","","","","","",""
"","time_out","","html-keyboard-response","439","425007","0.0-1.0-620.0-0.0","0","0","85328","","null","","","null","68","","","","","","","","","","","","","","","",""
"","ITI","","html-keyboard-response","440","426022","0.0-1.0-621.0","0","0","85328","","null","","","null","68","","","","","","","","","","","","","","","NaN",""
"","S1","","html-keyboard-response","441","426287","0.0-1.0-623.0","0","0","85328","","null","","","null","69","","","","","","","","","","","","","","","",""
"","ISI","","html-keyboard-response","442","427300","0.0-1.0-624.0","0","0","85328","","null","","","null","69","NaN","","","","","","","","","","","","","","",""
"","S2","","html-keyboard-response","443","427556","0.0-1.0-625.0","0","0","85328","","null","","","null","69","","NaN","","","","","","","","","","","","","",""
"","response","","html-keyboard-response","444","427885","0.0-1.0-626.0-0.0","0","0","85328","","323","","","75","69","","","2","69","training","adjacent","GF","7","6","M.jpg","N.jpg","0","0","1","",""
"","feedback","","html-keyboard-response","445","428895","0.0-1.0-627.0-0.0","0","0","85328","","null","","","null","69","","","","","","","","","","","","","","","",""
"","ITI","","html-keyboard-response","446","429909","0.0-1.0-630.0","0","0","85328","","null","","","null","69","","","","","","","","","","","","","","","NaN",""
"","S1","","html-keyboard-response","447","430175","0.0-1.0-632.0","0","0","85328","","null","","","null","70","","","","","","","","","","","","","","","",""
"","ISI","","html-keyboard-response","448","431188","0.0-1.0-633.0","0","0","85328","","null","","","null","70","NaN","","","","","","","","","","","","","","",""
"","S2","","html-keyboard-response","449","431455","0.0-1.0-634.0","0","0","85328","","null","","","null","70","","NaN","","","","","","","","","","","","","",""
"","response","","html-keyboard-response","450","431987","0.0-1.0-635.0-0.0","0","0","85328","","526","","","68","70","","","2","70","training","adjacent","DE","4","5","Q.jpg","L.jpg","1","1","1","",""
"","feedback","","html-keyboard-response","451","432997","0.0-1.0-636.0-0.0","0","0","85328","","null","","","null","70","","","","","","","","","","","","","","","",""
"","ITI","","html-keyboard-response","452","434005","0.0-1.0-639.0","0","0","85328","","null","","","null","70","","","","","","","","","","","","","","","NaN",""
"","S1","","html-keyboard-response","453","434271","0.0-1.0-641.0","0","0","85328","","null","","","null","71","","","","","","","","","","","","","","","",""
"","ISI","","html-keyboard-response","454","435285","0.0-1.0-642.0","0","0","85328","","null","","","null","71","NaN","","","","","","","","","","","","","","",""
"","S2","","html-keyboard-response","455","435551","0.0-1.0-643.0","0","0","85328","","null","","","null","71","","NaN","","","","","","","","","","","","","",""
"","response","","html-keyboard-response","456","435943","0.0-1.0-644.0-0.0","0","0","85328","","386","","","68","71","","","2","71","training","adjacent","DE","4","5","Q.jpg","L.jpg","1","1","1","",""
"","feedback","","html-keyboard-response","457","436959","0.0-1.0-645.0-0.0","0","0","85328","","null","","","null","71","","","","","","","","","","","","","","","",""
"","ITI","","html-keyboard-response","458","437973","0.0-1.0-648.0","0","0","85328","","null","","","null","71","","","","","","","","","","","","","","","NaN",""
"","S1","","html-keyboard-response","459","438239","0.0-1.0-650.0","0","0","85328","","null","","","null","72","","","","","","","","","","","","","","","",""
"","ISI","","html-keyboard-response","460","439251","0.0-1.0-651.0","0","0","85328","","null","","","null","72","NaN","","","","","","","","","","","","","","",""
"","S2","","html-keyboard-response","461","439508","0.0-1.0-652.0","0","0","85328","","null","","","null","72","","NaN","","","","","","","","","","","","","",""
"","response","","html-keyboard-response","462","439879","0.0-1.0-653.0-0.0","0","0","85328","","366","","","68","72","","","2","72","training","adjacent","FE","6","5","N.jpg","L.jpg","1","0","0","",""
"","feedback","","html-keyboard-response","463","440895","0.0-1.0-654.0-0.0","0","0","85328","","null","","","null","72","","","","","","","","","","","","","","","",""
"","time_out","","html-keyboard-response","464","442911","0.0-1.0-656.0-0.0","0","0","85328","","null","","","null","72","","","","","","","","","","","","","","","",""
"","ITI","","html-keyboard-response","465","443924","0.0-1.0-657.0","0","0","85328","","null","","","null","72","","","","","","","","","","","","","","","NaN",""
"","S1","","html-keyboard-response","466","444191","0.0-1.0-659.0","0","0","85328","","null","","","null","73","","","","","","","","","","","","","","","",""
"","ISI","","html-keyboard-response","467","445204","0.0-1.0-660.0","0","0","85328","","null","","","null","73","NaN","","","","","","","","","","","","","","",""
"","S2","","html-keyboard-response","468","445472","0.0-1.0-661.0","0","0","85328","","null","","","null","73","","NaN","","","","","","","","","","","","","",""
"","response","","html-keyboard-response","469","445871","0.0-1.0-662.0-0.0","0","0","85328","","394","","","75","73","","","2","73","training","adjacent","FE","6","5","N.jpg","L.jpg","0","0","1","",""
"","feedback","","html-keyboard-response","470","446885","0.0-1.0-663.0-0.0","0","0","85328","","null","","","null","73","","","","","","","","","","","","","","","",""
"","ITI","","html-keyboard-response","471","447894","0.0-1.0-666.0","0","0","85328","","null","","","null","73","","","","","","","","","","","","","","","NaN",""
"","S1","","html-keyboard-response","472","448159","0.0-1.0-668.0","0","0","85328","","null","","","null","74","","","","","","","","","","","","","","","",""
"","ISI","","html-keyboard-response","473","449172","0.0-1.0-669.0","0","0","85328","","null","","","null","74","NaN","","","","","","","","","","","","","","",""
"","S2","","html-keyboard-response","474","449439","0.0-1.0-670.0","0","0","85328","","null","","","null","74","","NaN","","","","","","","","","","","","","",""
"","response","","html-keyboard-response","475","450024","0.0-1.0-671.0-0.0","0","0","85328","","580","","","75","74","","","2","74","training","adjacent","BC","2","3","R.jpg","O.jpg","0","1","0","",""
"","feedback","","html-keyboard-response","476","451039","0.0-1.0-672.0-0.0","0","0","85328","","null","","","null","74","","","","","","","","","","","","","","","",""
"","time_out","","html-keyboard-response","477","453055","0.0-1.0-674.0-0.0","0","0","85328","","null","","","null","74","","","","","","","","","","","","","","","",""
"","ITI","","html-keyboard-response","478","454068","0.0-1.0-675.0","0","0","85328","","null","","","null","74","","","","","","","","","","","","","","","NaN",""
"","S1","","html-keyboard-response","479","454335","0.0-1.0-677.0","0","0","85328","","null","","","null","75","","","","","","","","","","","","","","","",""
"","ISI","","html-keyboard-response","480","455348","0.0-1.0-678.0","0","0","85328","","null","","","null","75","NaN","","","","","","","","","","","","","","",""
"","S2","","html-keyboard-response","481","455615","0.0-1.0-679.0","0","0","85328","","null","","","null","75","","NaN","","","","","","","","","","","","","",""
"","response","","html-keyboard-response","482","456475","0.0-1.0-680.0-0.0","0","0","85328","","854","","","68","75","","","2","75","training","adjacent","CD","3","4","O.jpg","Q.jpg","1","1","1","",""
"","feedback","","html-keyboard-response","483","457487","0.0-1.0-681.0-0.0","0","0","85328","","null","","","null","75","","","","","","","","","","","","","","","",""
"","ITI","","html-keyboard-response","484","458500","0.0-1.0-684.0","0","0","85328","","null","","","null","75","","","","","","","","","","","","","","","NaN",""
"","S1","","html-keyboard-response","485","458767","0.0-1.0-686.0","0","0","85328","","null","","","null","76","","","","","","","","","","","","","","","",""
"","ISI","","html-keyboard-response","486","459780","0.0-1.0-687.0","0","0","85328","","null","","","null","76","NaN","","","","","","","","","","","","","","",""
"","S2","","html-keyboard-response","487","460036","0.0-1.0-688.0","0","0","85328","","null","","","null","76","","NaN","","","","","","","","","","","","","",""
"","response","","html-keyboard-response","488","460419","0.0-1.0-689.0-0.0","0","0","85328","","377","","","68","76","","","2","76","training","adjacent","FG","6","7","N.jpg","M.jpg","1","1","1","",""
"","feedback","","html-keyboard-response","489","461428","0.0-1.0-690.0-0.0","0","0","85328","","null","","","null","76","","","","","","","","","","","","","","","",""
"","ITI","","html-keyboard-response","490","462436","0.0-1.0-693.0","0","0","85328","","null","","","null","76","","","","","","","","","","","","","","","NaN",""
"","S1","","html-keyboard-response","491","462703","0.0-1.0-695.0","0","0","85328","","null","","","null","77","","","","","","","","","","","","","","","",""
"","ISI","","html-keyboard-response","492","463716","0.0-1.0-696.0","0","0","85328","","null","","","null","77","NaN","","","","","","","","","","","","","","",""
"","S2","","html-keyboard-response","493","463983","0.0-1.0-697.0","0","0","85328","","null","","","null","77","","NaN","","","","","","","","","","","","","",""
"","response","","html-keyboard-response","494","464512","0.0-1.0-698.0-0.0","0","0","85328","","523","","","75","77","","","2","77","training","adjacent","AB","1","2","P.jpg","R.jpg","0","1","0","",""
"","feedback","","html-keyboard-response","495","465524","0.0-1.0-699.0-0.0","0","0","85328","","null","","","null","77","","","","","","","","","","","","","","","",""
"","time_out","","html-keyboard-response","496","467535","0.0-1.0-701.0-0.0","0","0","85328","","null","","","null","77","","","","","","","","","","","","","","","",""
"","ITI","","html-keyboard-response","497","468548","0.0-1.0-702.0","0","0","85328","","null","","","null","77","","","","","","","","","","","","","","","NaN",""
"","S1","","html-keyboard-response","498","468815","0.0-1.0-704.0","0","0","85328","","null","","","null","78","","","","","","","","","","","","","","","",""
"","ISI","","html-keyboard-response","499","469828","0.0-1.0-705.0","0","0","85328","","null","","","null","78","NaN","","","","","","","","","","","","","","",""
"","S2","","html-keyboard-response","500","470095","0.0-1.0-706.0","0","0","85328","","null","","","null","78","","NaN","","","","","","","","","","","","","",""
"","response","","html-keyboard-response","501","470647","0.0-1.0-707.0-0.0","0","0","85328","","546","","","75","78","","","2","78","training","adjacent","ED","5","4","L.jpg","Q.jpg","0","0","1","",""
"","feedback","","html-keyboard-response","502","471663","0.0-1.0-708.0-0.0","0","0","85328","","null","","","null","78","","","","","","","","","","","","","","","",""
"","ITI","","html-keyboard-response","503","472676","0.0-1.0-711.0","0","0","85328","","null","","","null","78","","","","","","","","","","","","","","","NaN",""
"","S1","","html-keyboard-response","504","472943","0.0-1.0-713.0","0","0","85328","","null","","","null","79","","","","","","","","","","","","","","","",""
"","ISI","","html-keyboard-response","505","473956","0.0-1.0-714.0","0","0","85328","","null","","","null","79","NaN","","","","","","","","","","","","","","",""
"","S2","","html-keyboard-response","506","474223","0.0-1.0-715.0","0","0","85328","","null","","","null","79","","NaN","","","","","","","","","","","","","",""
"","response","","html-keyboard-response","507","474758","0.0-1.0-716.0-0.0","0","0","85328","","530","","","68","79","","","2","79","training","adjacent","AB","1","2","P.jpg","R.jpg","1","1","1","",""
"","feedback","","html-keyboard-response","508","475775","0.0-1.0-717.0-0.0","0","0","85328","","null","","","null","79","","","","","","","","","","","","","","","",""
"","ITI","","html-keyboard-response","509","476788","0.0-1.0-720.0","0","0","85328","","null","","","null","79","","","","","","","","","","","","","","","NaN",""
"","S1","","html-keyboard-response","510","477055","0.0-1.0-722.0","0","0","85328","","null","","","null","80","","","","","","","","","","","","","","","",""
"","ISI","","html-keyboard-response","511","478068","0.0-1.0-723.0","0","0","85328","","null","","","null","80","NaN","","","","","","","","","","","","","","",""
"","S2","","html-keyboard-response","512","478335","0.0-1.0-724.0","0","0","85328","","null","","","null","80","","NaN","","","","","","","","","","","","","",""
"","response","","html-keyboard-response","513","478681","0.0-1.0-725.0-0.0","0","0","85328","","341","","","75","80","","","2","80","training","adjacent","GF","7","6","M.jpg","N.jpg","0","0","1","",""
"","feedback","","html-keyboard-response","514","479695","0.0-1.0-726.0-0.0","0","0","85328","","null","","","null","80","","","","","","","","","","","","","","","",""
"","ITI","","html-keyboard-response","515","480708","0.0-1.0-729.0","0","0","85328","","null","","","null","80","","","","","","","","","","","","","","","NaN",""
"","S1","","html-keyboard-response","516","480975","0.0-1.0-731.0","0","0","85328","","null","","","null","81","","","","","","","","","","","","","","","",""
"","ISI","","html-keyboard-response","517","481988","0.0-1.0-732.0","0","0","85328","","null","","","null","81","NaN","","","","","","","","","","","","","","",""
"","S2","","html-keyboard-response","518","482255","0.0-1.0-733.0","0","0","85328","","null","","","null","81","","NaN","","","","","","","","","","","","","",""
"","response","","html-keyboard-response","519","482551","0.0-1.0-734.0-0.0","0","0","85328","","291","","","68","81","","","2","81","training","adjacent","FG","6","7","N.jpg","M.jpg","1","1","1","",""
"","feedback","","html-keyboard-response","520","483567","0.0-1.0-735.0-0.0","0","0","85328","","null","","","null","81","","","","","","","","","","","","","","","",""
"","ITI","","html-keyboard-response","521","484580","0.0-1.0-738.0","0","0","85328","","null","","","null","81","","","","","","","","","","","","","","","NaN",""
"","S1","","html-keyboard-response","522","484847","0.0-1.0-740.0","0","0","85328","","null","","","null","82","","","","","","","","","","","","","","","",""
"","ISI","","html-keyboard-response","523","485860","0.0-1.0-741.0","0","0","85328","","null","","","null","82","NaN","","","","","","","","","","","","","","",""
"","S2","","html-keyboard-response","524","486127","0.0-1.0-742.0","0","0","85328","","null","","","null","82","","NaN","","","","","","","","","","","","","",""
"","response","","html-keyboard-response","525","486845","0.0-1.0-743.0-0.0","0","0","85328","","713","","","68","82","","","2","82","training","adjacent","BC","2","3","R.jpg","O.jpg","1","1","1","",""
"","feedback","","html-keyboard-response","526","487855","0.0-1.0-744.0-0.0","0","0","85328","","null","","","null","82","","","","","","","","","","","","","","","",""
"","ITI","","html-keyboard-response","527","488868","0.0-1.0-747.0","0","0","85328","","null","","","null","82","","","","","","","","","","","","","","","NaN",""
"","S1","","html-keyboard-response","528","489135","0.0-1.0-749.0","0","0","85328","","null","","","null","83","","","","","","","","","","","","","","","",""
"","ISI","","html-keyboard-response","529","490147","0.0-1.0-750.0","0","0","85328","","null","","","null","83","NaN","","","","","","","","","","","","","","",""
"","S2","","html-keyboard-response","530","490404","0.0-1.0-751.0","0","0","85328","","null","","","null","83","","NaN","","","","","","","","","","","","","",""
"","response","","html-keyboard-response","531","491043","0.0-1.0-752.0-0.0","0","0","85328","","634","","","75","83","","","2","83","training","adjacent","EF","5","6","L.jpg","N.jpg","0","1","0","",""
"","feedback","","html-keyboard-response","532","492052","0.0-1.0-753.0-0.0","0","0","85328","","null","","","null","83","","","","","","","","","","","","","","","",""
"","time_out","","html-keyboard-response","533","494062","0.0-1.0-755.0-0.0","0","0","85328","","null","","","null","83","","","","","","","","","","","","","","","",""
"","ITI","","html-keyboard-response","534","495076","0.0-1.0-756.0","0","0","85328","","null","","","null","83","","","","","","","","","","","","","","","NaN",""
"","S1","","html-keyboard-response","535","495343","0.0-1.0-758.0","0","0","85328","","null","","","null","84","","","","","","","","","","","","","","","",""
"","ISI","","html-keyboard-response","536","496356","0.0-1.0-759.0","0","0","85328","","null","","","null","84","NaN","","","","","","","","","","","","","","",""
"","S2","","html-keyboard-response","537","496622","0.0-1.0-760.0","0","0","85328","","null","","","null","84","","NaN","","","","","","","","","","","","","",""
"","response","","html-keyboard-response","538","497266","0.0-1.0-761.0-0.0","0","0","85328","","640","","","68","84","","","2","84","training","adjacent","CD","3","4","O.jpg","Q.jpg","1","1","1","",""
"","feedback","","html-keyboard-response","539","498277","0.0-1.0-762.0-0.0","0","0","85328","","null","","","null","84","","","","","","","","","","","","","","","",""
"","ITI","","html-keyboard-response","540","499295","0.0-1.0-765.0","0","0","85328","","null","","","null","84","","","","","","","","","","","","","","","NaN",""
"","S1","","html-keyboard-response","541","499556","0.0-1.0-767.0","0","0","85328","","null","","","null","85","","","","","","","","","","","","","","","",""
"","ISI","","html-keyboard-response","542","500564","0.0-1.0-768.0","0","0","85328","","null","","","null","85","NaN","","","","","","","","","","","","","","",""
"","S2","","html-keyboard-response","543","500831","0.0-1.0-769.0","0","0","85328","","null","","","null","85","","NaN","","","","","","","","","","","","","",""
"","response","","html-keyboard-response","544","501647","0.0-1.0-770.0-0.0","0","0","85328","","812","","","68","85","","","2","85","training","adjacent","DE","4","5","Q.jpg","L.jpg","1","1","1","",""
"","feedback","","html-keyboard-response","545","502659","0.0-1.0-771.0-0.0","0","0","85328","","null","","","null","85","","","","","","","","","","","","","","","",""
"","ITI","","html-keyboard-response","546","503667","0.0-1.0-774.0","0","0","85328","","null","","","null","85","","","","","","","","","","","","","","","NaN",""
"","S1","","html-keyboard-response","547","503934","0.0-1.0-776.0","0","0","85328","","null","","","null","86","","","","","","","","","","","","","","","",""
"","ISI","","html-keyboard-response","548","504948","0.0-1.0-777.0","0","0","85328","","null","","","null","86","NaN","","","","","","","","","","","","","","",""
"","S2","","html-keyboard-response","549","505214","0.0-1.0-778.0","0","0","85328","","null","","","null","86","","NaN","","","","","","","","","","","","","",""
"","response","","html-keyboard-response","550","505921","0.0-1.0-779.0-0.0","0","0","85328","","701","","","68","86","","","2","86","training","adjacent","DC","4","3","Q.jpg","O.jpg","1","0","0","",""
"","feedback","","html-keyboard-response","551","506932","0.0-1.0-780.0-0.0","0","0","85328","","null","","","null","86","","","","","","","","","","","","","","","",""
"","time_out","","html-keyboard-response","552","508942","0.0-1.0-782.0-0.0","0","0","85328","","null","","","null","86","","","","","","","","","","","","","","","",""
"","ITI","","html-keyboard-response","553","509956","0.0-1.0-783.0","0","0","85328","","null","","","null","86","","","","","","","","","","","","","","","NaN",""
"","S1","","html-keyboard-response","554","510222","0.0-1.0-785.0","0","0","85328","","null","","","null","87","","","","","","","","","","","","","","","",""
"","ISI","","html-keyboard-response","555","511236","0.0-1.0-786.0","0","0","85328","","null","","","null","87","NaN","","","","","","","","","","","","","","",""
"","S2","","html-keyboard-response","556","511502","0.0-1.0-787.0","0","0","85328","","null","","","null","87","","NaN","","","","","","","","","","","","","",""
"","response","","html-keyboard-response","557","512060","0.0-1.0-788.0-0.0","0","0","85328","","552","","","75","87","","","2","87","training","adjacent","CB","3","2","O.jpg","R.jpg","0","0","1","",""
"","feedback","","html-keyboard-response","558","513070","0.0-1.0-789.0-0.0","0","0","85328","","null","","","null","87","","","","","","","","","","","","","","","",""
"","ITI","","html-keyboard-response","559","514084","0.0-1.0-792.0","0","0","85328","","null","","","null","87","","","","","","","","","","","","","","","NaN",""
"","S1","","html-keyboard-response","560","514351","0.0-1.0-794.0","0","0","85328","","null","","","null","88","","","","","","","","","","","","","","","",""
"","ISI","","html-keyboard-response","561","515364","0.0-1.0-795.0","0","0","85328","","null","","","null","88","NaN","","","","","","","","","","","","","","",""
"","S2","","html-keyboard-response","562","515630","0.0-1.0-796.0","0","0","85328","","null","","","null","88","","NaN","","","","","","","","","","","","","",""
"","response","","html-keyboard-response","563","516330","0.0-1.0-797.0-0.0","0","0","85328","","694","","","68","88","","","2","88","training","adjacent","BA","2","1","R.jpg","P.jpg","1","0","0","",""
"","feedback","","html-keyboard-response","564","517342","0.0-1.0-798.0-0.0","0","0","85328","","null","","","null","88","","","","","","","","","","","","","","","",""
"","time_out","","html-keyboard-response","565","519357","0.0-1.0-800.0-0.0","0","0","85328","","null","","","null","88","","","","","","","","","","","","","","","",""
"","ITI","","html-keyboard-response","566","520365","0.0-1.0-801.0","0","0","85328","","null","","","null","88","","","","","","","","","","","","","","","NaN",""
"","S1","","html-keyboard-response","567","520627","0.0-1.0-803.0","0","0","85328","","null","","","null","89","","","","","","","","","","","","","","","",""
"","ISI","","html-keyboard-response","568","521635","0.0-1.0-804.0","0","0","85328","","null","","","null","89","NaN","","","","","","","","","","","","","","",""
"","S2","","html-keyboard-response","569","521902","0.0-1.0-805.0","0","0","85328","","null","","","null","89","","NaN","","","","","","","","","","","","","",""
"","response","","html-keyboard-response","570","522369","0.0-1.0-806.0-0.0","0","0","85328","","462","","","75","89","","","2","89","training","adjacent","CB","3","2","O.jpg","R.jpg","0","0","1","",""
"","feedback","","html-keyboard-response","571","523379","0.0-1.0-807.0-0.0","0","0","85328","","null","","","null","89","","","","","","","","","","","","","","","",""
"","ITI","","html-keyboard-response","572","524388","0.0-1.0-810.0","0","0","85328","","null","","","null","89","","","","","","","","","","","","","","","NaN",""
"","S1","","html-keyboard-response","573","524654","0.0-1.0-812.0","0","0","85328","","null","","","null","90","","","","","","","","","","","","","","","",""
"","ISI","","html-keyboard-response","574","525668","0.0-1.0-813.0","0","0","85328","","null","","","null","90","NaN","","","","","","","","","","","","","","",""
"","S2","","html-keyboard-response","575","525934","0.0-1.0-814.0","0","0","85328","","null","","","null","90","","NaN","","","","","","","","","","","","","",""
"","response","","html-keyboard-response","576","526586","0.0-1.0-815.0-0.0","0","0","85328","","647","","","75","90","","","2","90","training","adjacent","DE","4","5","Q.jpg","L.jpg","0","1","0","",""
"","feedback","","html-keyboard-response","577","527598","0.0-1.0-816.0-0.0","0","0","85328","","null","","","null","90","","","","","","","","","","","","","","","",""
"","time_out","","html-keyboard-response","578","529614","0.0-1.0-818.0-0.0","0","0","85328","","null","","","null","90","","","","","","","","","","","","","","","",""
"","ITI","","html-keyboard-response","579","530628","0.0-1.0-819.0","0","0","85328","","null","","","null","90","","","","","","","","","","","","","","","NaN",""
"","S1","","html-keyboard-response","580","530894","0.0-1.0-821.0","0","0","85328","","null","","","null","91","","","","","","","","","","","","","","","",""
"","ISI","","html-keyboard-response","581","531908","0.0-1.0-822.0","0","0","85328","","null","","","null","91","NaN","","","","","","","","","","","","","","",""
"","S2","","html-keyboard-response","582","532174","0.0-1.0-823.0","0","0","85328","","null","","","null","91","","NaN","","","","","","","","","","","","","",""
