"success","ttype","start_time","trial_type","trial_index","time_elapsed","internal_node_id","warning","missed_checkup","PID","view_history","rt","responses","repeat_instructions","key_press","index","keypress_isi","keypress_S2","block","trial_num","phase","group_type","pair_type","S1_stim","S2_stim","S1_img","S2_img","S1_chosen","S1_higher","accuracy","keypress_iti","total_bonus_tally"
"true","full_screen","d03032023hr2002","fullscreen","0","23512","0.0-0.0","0","0","82896","","","","","","","","","","","","","","","","","","","","","",""
"","instructions","","instructions","1","81896","0.0-1.0-0.0-0.0","0","0","82896","[{""page_index"":0,""viewing_time"":10944},{""page_index"":1,""viewing_time"":22434},{""page_index"":2,""viewing_time"":22233},{""page_index"":3,""viewing_time"":2767}]","58379","","","","","","","","","","","","","","","","","","","",""
"","comprehension_check","","survey-multi-choice","2","110914","0.0-1.0-0.0-1.0","0","0","82896","","29007","{""Q0"":""True"",""Q1"":""D"",""Q2"":""Only when the screen 'MAKE A CHOICE' is shown"",""Q3"":""Green mark"",""Q4"":""either D or K""}","1","","","","","","","","","","","","","","","","","",""
"","missed_instruction_checkup","","html-keyboard-response","3","113975","0.0-1.0-0.0-2.0-0.0","0","1","82896","","3053","","","32","","","","","","","","","","","","","","","","",""
"","instructions","","instructions","4","131440","0.0-1.0-0.1-0.1","0","0","82896","[{""page_index"":0,""viewing_time"":4014},{""page_index"":1,""viewing_time"":11083},{""page_index"":2,""viewing_time"":1616},{""page_index"":3,""viewing_time"":750}]","17463","","","","","","","","","","","","","","","","","","","",""
"","comprehension_check","","survey-multi-choice","5","144046","0.0-1.0-0.1-1.1","0","0","82896","","12601","{""Q0"":""True"",""Q1"":""D"",""Q2"":""Once the second image appears and while the screen 'MAKE A CHOICE' is shown"",""Q3"":""Green mark"",""Q4"":""either D or K""}","0","","","","","","","","","","","","","","","","","",""
"","start_exp","","html-keyboard-response","6","147542","0.0-1.0-1.0","0","0","82896","","3493","","","32","","","","","","","","","","","","","","","","",""
"","S1","","html-keyboard-response","7","147803","0.0-1.0-2.0","0","0","82896","","null","","","null","0","","","","","","","","","","","","","","","",""
"","ISI","","html-keyboard-response","8","148315","0.0-1.0-3.0","0","0","82896","","null","","","null","0","NaN","","","","","","","","","","","","","","",""
"","S2","","html-keyboard-response","9","148570","0.0-1.0-4.0","0","0","82896","","null","","","null","0","","NaN","","","","","","","","","","","","","",""
"","response","","html-keyboard-response","10","149532","0.0-1.0-5.0-0.0","0","0","82896","","962","","","68","0","","","1","0","training","adjacent","EF","5","6","P.jpg","M.jpg","1","1","1","",""
"","feedback","","html-keyboard-response","11","150543","0.0-1.0-6.0-0.0","0","0","82896","","null","","","null","0","","","","","","","","","","","","","","","",""
"","ITI","","html-keyboard-response","12","151550","0.0-1.0-9.0","0","0","82896","","null","","","null","0","","","","","","","","","","","","","","","NaN",""
"","S1","","html-keyboard-response","13","151810","0.0-1.0-11.0","0","0","82896","","null","","","null","1","","","","","","","","","","","","","","","",""
"","ISI","","html-keyboard-response","14","152322","0.0-1.0-12.0","0","0","82896","","null","","","null","1","NaN","","","","","","","","","","","","","","",""
"","S2","","html-keyboard-response","15","152585","0.0-1.0-13.0","0","0","82896","","null","","","null","1","","NaN","","","","","","","","","","","","","",""
"","response","","html-keyboard-response","16","153053","0.0-1.0-14.0-0.0","0","0","82896","","463","","","75","1","","","1","1","training","adjacent","FE","6","5","M.jpg","P.jpg","0","0","1","",""
"","feedback","","html-keyboard-response","17","154066","0.0-1.0-15.0-0.0","0","0","82896","","null","","","null","1","","","","","","","","","","","","","","","",""
"","ITI","","html-keyboard-response","18","155079","0.0-1.0-18.0","0","0","82896","","null","","","null","1","","","","","","","","","","","","","","","NaN",""
"","S1","","html-keyboard-response","19","155345","0.0-1.0-20.0","0","0","82896","","null","","","null","2","","","","","","","","","","","","","","","",""
"","ISI","","html-keyboard-response","20","155858","0.0-1.0-21.0","0","0","82896","","null","","","null","2","NaN","","","","","","","","","","","","","","",""
"","S2","","html-keyboard-response","21","156123","0.0-1.0-22.0","0","0","82896","","null","","","null","2","","NaN","","","","","","","","","","","","","",""
"","response","","html-keyboard-response","22","156526","0.0-1.0-23.0-0.0","0","0","82896","","400","","","75","2","","","1","2","training","adjacent","BA","2","1","N.jpg","O.jpg","0","0","1","",""
"","feedback","","html-keyboard-response","23","157534","0.0-1.0-24.0-0.0","0","0","82896","","null","","","null","2","","","","","","","","","","","","","","","",""
"","ITI","","html-keyboard-response","24","158559","0.0-1.0-27.0","0","0","82896","","null","","","null","2","","","","","","","","","","","","","","","NaN",""
"","S1","","html-keyboard-response","25","158818","0.0-1.0-29.0","0","0","82896","","null","","","null","3","","","","","","","","","","","","","","","",""
"","ISI","","html-keyboard-response","26","159330","0.0-1.0-30.0","0","0","82896","","null","","","null","3","NaN","","","","","","","","","","","","","","",""
"","S2","","html-keyboard-response","27","159587","0.0-1.0-31.0","0","0","82896","","null","","","null","3","","NaN","","","","","","","","","","","","","",""
"","response","","html-keyboard-response","28","159919","0.0-1.0-32.0-0.0","0","0","82896","","328","","","68","3","","","1","3","training","adjacent","DE","4","5","Q.jpg","P.jpg","1","1","1","",""
"","feedback","","html-keyboard-response","29","160928","0.0-1.0-33.0-0.0","0","0","82896","","null","","","null","3","","","","","","","","","","","","","","","",""
"","ITI","","html-keyboard-response","30","161937","0.0-1.0-36.0","0","0","82896","","null","","","null","3","","","","","","","","","","","","","","","NaN",""
"","S1","","html-keyboard-response","31","162203","0.0-1.0-38.0","0","0","82896","","null","","","null","4","","","","","","","","","","","","","","","",""
"","ISI","","html-keyboard-response","32","162712","0.0-1.0-39.0","0","0","82896","","null","","","null","4","NaN","","","","","","","","","","","","","","",""
"","S2","","html-keyboard-response","33","162976","0.0-1.0-40.0","0","0","82896","","null","","","null","4","","NaN","","","","","","","","","","","","","",""
"","response","","html-keyboard-response","34","163306","0.0-1.0-41.0-0.0","0","0","82896","","324","","","68","4","","","1","4","training","adjacent","FE","6","5","M.jpg","P.jpg","1","0","0","",""
"","feedback","","html-keyboard-response","35","164318","0.0-1.0-42.0-0.0","0","0","82896","","null","","","null","4","","","","","","","","","","","","","","","",""
"","time_out","","html-keyboard-response","36","166331","0.0-1.0-44.0-0.0","0","0","82896","","null","","","null","4","","","","","","","","","","","","","","","",""
"","ITI","","html-keyboard-response","37","167345","0.0-1.0-45.0","0","0","82896","","null","","","null","4","","","","","","","","","","","","","","","NaN",""
"","S1","","html-keyboard-response","38","167607","0.0-1.0-47.0","0","0","82896","","null","","","null","5","","","","","","","","","","","","","","","",""
"","ISI","","html-keyboard-response","39","168122","0.0-1.0-48.0","0","0","82896","","null","","","null","5","NaN","","","","","","","","","","","","","","",""
"","S2","","html-keyboard-response","40","168383","0.0-1.0-49.0","0","0","82896","","null","","","null","5","","NaN","","","","","","","","","","","","","",""
"","response","","html-keyboard-response","41","168488","0.0-1.0-50.0-0.0","0","0","82896","","103","","","75","5","","","1","5","training","adjacent","DE","4","5","Q.jpg","P.jpg","0","1","0","",""
"","feedback","","html-keyboard-response","42","169495","0.0-1.0-51.0-0.0","0","0","82896","","null","","","null","5","","","","","","","","","","","","","","","",""
"","time_out","","html-keyboard-response","43","171502","0.0-1.0-53.0-0.0","0","0","82896","","null","","","null","5","","","","","","","","","","","","","","","",""
"","ITI","","html-keyboard-response","44","172510","0.0-1.0-54.0","0","0","82896","","null","","","null","5","","","","","","","","","","","","","","","NaN",""
"","S1","","html-keyboard-response","45","172763","0.0-1.0-56.0","0","0","82896","","null","","","null","6","","","","","","","","","","","","","","","",""
"","ISI","","html-keyboard-response","46","173271","0.0-1.0-57.0","0","0","82896","","null","","","null","6","NaN","","","","","","","","","","","","","","",""
"","S2","","html-keyboard-response","47","173532","0.0-1.0-58.0","0","0","82896","","null","","","null","6","","NaN","","","","","","","","","","","","","",""
"","response","","html-keyboard-response","48","173754","0.0-1.0-59.0-0.0","0","0","82896","","218","","","75","6","","","1","6","training","adjacent","CB","3","2","L.jpg","N.jpg","0","0","1","",""
"","feedback","","html-keyboard-response","49","174762","0.0-1.0-60.0-0.0","0","0","82896","","null","","","null","6","","","","","","","","","","","","","","","",""
"","ITI","","html-keyboard-response","50","175776","0.0-1.0-63.0","0","0","82896","","null","","","null","6","","","","","","","","","","","","","","","NaN",""
"","S1","","html-keyboard-response","51","176042","0.0-1.0-65.0","0","0","82896","","null","","","null","7","","","","","","","","","","","","","","","",""
"","ISI","","html-keyboard-response","52","176568","0.0-1.0-66.0","0","0","82896","","null","","","null","7","NaN","","","","","","","","","","","","","","",""
"","S2","","html-keyboard-response","53","176832","0.0-1.0-67.0","0","0","82896","","null","","","null","7","","NaN","","","","","","","","","","","","","",""
"","response","","html-keyboard-response","54","177131","0.0-1.0-68.0-0.0","0","0","82896","","293","","","68","7","","","1","7","training","adjacent","CD","3","4","L.jpg","Q.jpg","1","1","1","",""
"","feedback","","html-keyboard-response","55","178145","0.0-1.0-69.0-0.0","0","0","82896","","null","","","null","7","","","","","","","","","","","","","","","",""
"","ITI","","html-keyboard-response","56","179161","0.0-1.0-72.0","0","0","82896","","null","","","null","7","","","","","","","","","","","","","","","NaN",""
"","S1","","html-keyboard-response","57","179422","0.0-1.0-74.0","0","0","82896","","null","","","null","8","","","","","","","","","","","","","","","",""
"","ISI","","html-keyboard-response","58","179937","0.0-1.0-75.0","0","0","82896","","null","","","null","8","NaN","","","","","","","","","","","","","","",""
"","S2","","html-keyboard-response","59","180202","0.0-1.0-76.0","0","0","82896","","null","","","null","8","","NaN","","","","","","","","","","","","","",""
"","response","","html-keyboard-response","60","180211","0.0-1.0-77.0-0.0","0","0","82896","","6","","","75","8","","","1","8","training","adjacent","GF","7","6","R.jpg","M.jpg","0","0","1","",""
"","feedback","","html-keyboard-response","61","181222","0.0-1.0-78.0-0.0","0","0","82896","","null","","","null","8","","","","","","","","","","","","","","","",""
"","ITI","","html-keyboard-response","62","182232","0.0-1.0-81.0","0","0","82896","","null","","","null","8","","","","","","","","","","","","","","","NaN",""
"","S1","","html-keyboard-response","63","182492","0.0-1.0-83.0","0","0","82896","","null","","","null","9","","","","","","","","","","","","","","","",""
"","ISI","","html-keyboard-response","64","183002","0.0-1.0-84.0","0","0","82896","","null","","","null","9","NaN","","","","","","","","","","","","","","",""
"","S2","","html-keyboard-response","65","183229","0.0-1.0-85.0","0","0","82896","","221","","","75","9","","k","1","9","training","adjacent","FE","6","5","M.jpg","P.jpg","0","0","1","",""
"","feedback","","html-keyboard-response","66","184238","0.0-1.0-87.0-0.0","0","0","82896","","null","","","null","9","","","","","","","","","","","","","","","",""
"","ITI","","html-keyboard-response","67","185245","0.0-1.0-90.0","0","0","82896","","null","","","null","9","","","","","","","","","","","","","","","NaN",""
"","S1","","html-keyboard-response","68","185501","0.0-1.0-92.0","0","0","82896","","null","","","null","10","","","","","","","","","","","","","","","",""
"","ISI","","html-keyboard-response","69","186013","0.0-1.0-93.0","0","0","82896","","null","","","null","10","NaN","","","","","","","","","","","","","","",""
"","S2","","html-keyboard-response","70","186268","0.0-1.0-94.0","0","0","82896","","null","","","null","10","","NaN","","","","","","","","","","","","","",""
"","response","","html-keyboard-response","71","186541","0.0-1.0-95.0-0.0","0","0","82896","","272","","","68","10","","","1","10","training","adjacent","EF","5","6","P.jpg","M.jpg","1","1","1","",""
"","feedback","","html-keyboard-response","72","187549","0.0-1.0-96.0-0.0","0","0","82896","","null","","","null","10","","","","","","","","","","","","","","","",""
"","ITI","","html-keyboard-response","73","188557","0.0-1.0-99.0","0","0","82896","","null","","","null","10","","","","","","","","","","","","","","","NaN",""
"","S1","","html-keyboard-response","74","188813","0.0-1.0-101.0","0","0","82896","","null","","","null","11","","","","","","","","","","","","","","","",""
"","ISI","","html-keyboard-response","75","189329","0.0-1.0-102.0","0","0","82896","","null","","","null","11","NaN","","","","","","","","","","","","","","",""
"","S2","","html-keyboard-response","76","189591","0.0-1.0-103.0","0","0","82896","","null","","","null","11","","NaN","","","","","","","","","","","","","",""
"","response","","html-keyboard-response","77","189612","0.0-1.0-104.0-0.0","0","0","82896","","21","","","75","11","","","1","11","training","adjacent","GF","7","6","R.jpg","M.jpg","0","0","1","",""
"","feedback","","html-keyboard-response","78","190621","0.0-1.0-105.0-0.0","0","0","82896","","null","","","null","11","","","","","","","","","","","","","","","",""
"","ITI","","html-keyboard-response","79","191629","0.0-1.0-108.0","0","0","82896","","null","","","null","11","","","","","","","","","","","","","","","NaN",""
"","S1","","html-keyboard-response","80","191886","0.0-1.0-110.0","0","0","82896","","null","","","null","12","","","","","","","","","","","","","","","",""
"","ISI","","html-keyboard-response","81","192401","0.0-1.0-111.0","0","0","82896","","null","","","null","12","NaN","","","","","","","","","","","","","","",""
"","S2","","html-keyboard-response","82","192645","0.0-1.0-112.0","0","0","82896","","242","","","68","12","","d","1","12","training","adjacent","FG","6","7","M.jpg","R.jpg","1","1","1","",""
"","feedback","","html-keyboard-response","83","193655","0.0-1.0-114.0-0.0","0","0","82896","","null","","","null","12","","","","","","","","","","","","","","","",""
"","ITI","","html-keyboard-response","84","194662","0.0-1.0-117.0","0","0","82896","","null","","","null","12","","","","","","","","","","","","","","","NaN",""
"","S1","","html-keyboard-response","85","194927","0.0-1.0-119.0","0","0","82896","","null","","","null","13","","","","","","","","","","","","","","","",""
"","ISI","","html-keyboard-response","86","195437","0.0-1.0-120.0","0","0","82896","","null","","","null","13","NaN","","","","","","","","","","","","","","",""
"","S2","","html-keyboard-response","87","195682","0.0-1.0-121.0","0","0","82896","","241","","","75","13","","k","1","13","training","adjacent","EF","5","6","P.jpg","M.jpg","0","1","0","",""
"","feedback","","html-keyboard-response","88","196694","0.0-1.0-123.0-0.0","0","0","82896","","null","","","null","13","","","","","","","","","","","","","","","",""
"","time_out","","html-keyboard-response","89","198698","0.0-1.0-125.0-0.0","0","0","82896","","null","","","null","13","","","","","","","","","","","","","","","",""
"","ITI","","html-keyboard-response","90","199712","0.0-1.0-126.0","0","0","82896","","null","","","null","13","","","","","","","","","","","","","","","NaN",""
"","S1","","html-keyboard-response","91","199974","0.0-1.0-128.0","0","0","82896","","null","","","null","14","","","","","","","","","","","","","","","",""
"","ISI","","html-keyboard-response","92","200482","0.0-1.0-129.0","0","0","82896","","null","","","null","14","NaN","","","","","","","","","","","","","","",""
"","S2","","html-keyboard-response","93","200711","0.0-1.0-130.0","0","0","82896","","227","","","68","14","","d","1","14","training","adjacent","GF","7","6","R.jpg","M.jpg","1","0","0","",""
"","feedback","","html-keyboard-response","94","201722","0.0-1.0-132.0-0.0","0","0","82896","","null","","","null","14","","","","","","","","","","","","","","","",""
"","time_out","","html-keyboard-response","95","203738","0.0-1.0-134.0-0.0","0","0","82896","","null","","","null","14","","","","","","","","","","","","","","","",""
"","ITI","","html-keyboard-response","96","204749","0.0-1.0-135.0","0","0","82896","","null","","","null","14","","","","","","","","","","","","","","","NaN",""
"","S1","","html-keyboard-response","97","205009","0.0-1.0-137.0","0","0","82896","","null","","","null","15","","","","","","","","","","","","","","","",""
"","ISI","","html-keyboard-response","98","205517","0.0-1.0-138.0","0","0","82896","","null","","","null","15","NaN","","","","","","","","","","","","","","",""
"","S2","","html-keyboard-response","99","205726","0.0-1.0-139.0","0","0","82896","","205","","","68","15","","d","1","15","training","adjacent","AB","1","2","O.jpg","N.jpg","1","1","1","",""
"","feedback","","html-keyboard-response","100","206733","0.0-1.0-141.0-0.0","0","0","82896","","null","","","null","15","","","","","","","","","","","","","","","",""
"","ITI","","html-keyboard-response","101","207744","0.0-1.0-144.0","0","0","82896","","null","","","null","15","","","","","","","","","","","","","","","NaN",""
"","S1","","html-keyboard-response","102","208011","0.0-1.0-146.0","0","0","82896","","null","","","null","16","","","","","","","","","","","","","","","",""
"","ISI","","html-keyboard-response","103","208518","0.0-1.0-147.0","0","0","82896","","null","","","null","16","NaN","","","","","","","","","","","","","","",""
"","S2","","html-keyboard-response","104","208752","0.0-1.0-148.0","0","0","82896","","233","","","75","16","","k","1","16","training","adjacent","GF","7","6","R.jpg","M.jpg","0","0","1","",""
"","feedback","","html-keyboard-response","105","209760","0.0-1.0-150.0-0.0","0","0","82896","","null","","","null","16","","","","","","","","","","","","","","","",""
"","ITI","","html-keyboard-response","106","210772","0.0-1.0-153.0","0","0","82896","","null","","","null","16","","","","","","","","","","","","","","","NaN",""
"","S1","","html-keyboard-response","107","211033","0.0-1.0-155.0","0","0","82896","","null","","","null","17","","","","","","","","","","","","","","","",""
"","ISI","","html-keyboard-response","108","211542","0.0-1.0-156.0","0","0","82896","","null","","","null","17","NaN","","","","","","","","","","","","","","",""
"","S2","","html-keyboard-response","109","211787","0.0-1.0-157.0","0","0","82896","","241","","","68","17","","d","1","17","training","adjacent","DC","4","3","Q.jpg","L.jpg","1","0","0","",""
"","feedback","","html-keyboard-response","110","212800","0.0-1.0-159.0-0.0","0","0","82896","","null","","","null","17","","","","","","","","","","","","","","","",""
"","time_out","","html-keyboard-response","111","214817","0.0-1.0-161.0-0.0","0","0","82896","","null","","","null","17","","","","","","","","","","","","","","","",""
"","ITI","","html-keyboard-response","112","215833","0.0-1.0-162.0","0","0","82896","","null","","","null","17","","","","","","","","","","","","","","","NaN",""
"","S1","","html-keyboard-response","113","216096","0.0-1.0-164.0","0","0","82896","","null","","","null","18","","","","","","","","","","","","","","","",""
"","ISI","","html-keyboard-response","114","216605","0.0-1.0-165.0","0","0","82896","","null","","","null","18","NaN","","","","","","","","","","","","","","",""
"","S2","","html-keyboard-response","115","216796","0.0-1.0-166.0","0","0","82896","","189","","","68","18","","d","1","18","training","adjacent","ED","5","4","P.jpg","Q.jpg","1","0","0","",""
"","feedback","","html-keyboard-response","116","217806","0.0-1.0-168.0-0.0","0","0","82896","","null","","","null","18","","","","","","","","","","","","","","","",""
"","time_out","","html-keyboard-response","117","219813","0.0-1.0-170.0-0.0","0","0","82896","","null","","","null","18","","","","","","","","","","","","","","","",""
"","ITI","","html-keyboard-response","118","220825","0.0-1.0-171.0","0","0","82896","","null","","","null","18","","","","","","","","","","","","","","","NaN",""
"","S1","","html-keyboard-response","119","221088","0.0-1.0-173.0","0","0","82896","","null","","","null","19","","","","","","","","","","","","","","","",""
"","ISI","","html-keyboard-response","120","221596","0.0-1.0-174.0","0","0","82896","","null","","","null","19","NaN","","","","","","","","","","","","","","",""
"","S2","","html-keyboard-response","121","221832","0.0-1.0-175.0","0","0","82896","","231","","","75","19","","k","1","19","training","adjacent","BA","2","1","N.jpg","O.jpg","0","0","1","",""
"","feedback","","html-keyboard-response","122","222844","0.0-1.0-177.0-0.0","0","0","82896","","null","","","null","19","","","","","","","","","","","","","","","",""
"","ITI","","html-keyboard-response","123","223856","0.0-1.0-180.0","0","0","82896","","null","","","null","19","","","","","","","","","","","","","","","NaN",""
"","S1","","html-keyboard-response","124","224121","0.0-1.0-182.0","0","0","82896","","null","","","null","20","","","","","","","","","","","","","","","",""
"","ISI","","html-keyboard-response","125","224629","0.0-1.0-183.0","0","0","82896","","null","","","null","20","NaN","","","","","","","","","","","","","","",""
"","S2","","html-keyboard-response","126","224896","0.0-1.0-184.0","0","0","82896","","null","","","null","20","","NaN","","","","","","","","","","","","","",""
"","response","","html-keyboard-response","127","225139","0.0-1.0-185.0-0.0","0","0","82896","","238","","","75","20","","","1","20","training","adjacent","CB","3","2","L.jpg","N.jpg","0","0","1","",""
"","feedback","","html-keyboard-response","128","226153","0.0-1.0-186.0-0.0","0","0","82896","","null","","","null","20","","","","","","","","","","","","","","","",""
"","ITI","","html-keyboard-response","129","227161","0.0-1.0-189.0","0","0","82896","","null","","","null","20","","","","","","","","","","","","","","","NaN",""
"","S1","","html-keyboard-response","130","227420","0.0-1.0-191.0","0","0","82896","","null","","","null","21","","","","","","","","","","","","","","","",""
"","ISI","","html-keyboard-response","131","227935","0.0-1.0-192.0","0","0","82896","","null","","","null","21","NaN","","","","","","","","","","","","","","",""
"","S2","","html-keyboard-response","132","228070","0.0-1.0-193.0","0","0","82896","","129","","","68","21","","d","1","21","training","adjacent","ED","5","4","P.jpg","Q.jpg","1","0","0","",""
"","feedback","","html-keyboard-response","133","229087","0.0-1.0-195.0-0.0","0","0","82896","","null","","","null","21","","","","","","","","","","","","","","","",""
"","time_out","","html-keyboard-response","134","231103","0.0-1.0-197.0-0.0","0","0","82896","","null","","","null","21","","","","","","","","","","","","","","","",""
"","ITI","","html-keyboard-response","135","232121","0.0-1.0-198.0","0","0","82896","","null","","","null","21","","","","","","","","","","","","","","","NaN",""
"","S1","","html-keyboard-response","136","232381","0.0-1.0-200.0","0","0","82896","","null","","","null","22","","","","","","","","","","","","","","","",""
"","ISI","","html-keyboard-response","137","232895","0.0-1.0-201.0","0","0","82896","","null","","","null","22","NaN","","","","","","","","","","","","","","",""
"","S2","","html-keyboard-response","138","233045","0.0-1.0-202.0","0","0","82896","","147","","","68","22","","d","1","22","training","adjacent","BA","2","1","N.jpg","O.jpg","1","0","0","",""
"","feedback","","html-keyboard-response","139","234056","0.0-1.0-204.0-0.0","0","0","82896","","null","","","null","22","","","","","","","","","","","","","","","",""
"","time_out","","html-keyboard-response","140","236063","0.0-1.0-206.0-0.0","0","0","82896","","null","","","null","22","","","","","","","","","","","","","","","",""
"","ITI","","html-keyboard-response","141","237077","0.0-1.0-207.0","0","0","82896","","null","","","null","22","","","","","","","","","","","","","","","NaN",""
"","S1","","html-keyboard-response","142","237343","0.0-1.0-209.0","0","0","82896","","null","","","null","23","","","","","","","","","","","","","","","",""
"","ISI","","html-keyboard-response","143","237854","0.0-1.0-210.0","0","0","82896","","null","","","null","23","NaN","","","","","","","","","","","","","","",""
"","S2","","html-keyboard-response","144","238121","0.0-1.0-211.0","0","0","82896","","null","","","null","23","","NaN","","","","","","","","","","","","","",""
"","response","","html-keyboard-response","145","238125","0.0-1.0-212.0-0.0","0","0","82896","","2","","","75","23","","","1","23","training","adjacent","BC","2","3","N.jpg","L.jpg","0","1","0","",""
"","feedback","","html-keyboard-response","146","239135","0.0-1.0-213.0-0.0","0","0","82896","","null","","","null","23","","","","","","","","","","","","","","","",""
"","time_out","","html-keyboard-response","147","241151","0.0-1.0-215.0-0.0","0","0","82896","","null","","","null","23","","","","","","","","","","","","","","","",""
"","ITI","","html-keyboard-response","148","242159","0.0-1.0-216.0","0","0","82896","","null","","","null","23","","","","","","","","","","","","","","","NaN",""
"","S1","","html-keyboard-response","149","242421","0.0-1.0-218.0","0","0","82896","","null","","","null","24","","","","","","","","","","","","","","","",""
"","ISI","","html-keyboard-response","150","242936","0.0-1.0-219.0","0","0","82896","","null","","","null","24","NaN","","","","","","","","","","","","","","",""
"","S2","","html-keyboard-response","151","243188","0.0-1.0-220.0","0","0","82896","","246","","","75","24","","k","1","24","training","adjacent","DC","4","3","Q.jpg","L.jpg","0","0","1","",""
"","feedback","","html-keyboard-response","152","244196","0.0-1.0-222.0-0.0","0","0","82896","","null","","","null","24","","","","","","","","","","","","","","","",""
"","ITI","","html-keyboard-response","153","245201","0.0-1.0-225.0","0","0","82896","","null","","","null","24","","","","","","","","","","","","","","","NaN",""
"","S1","","html-keyboard-response","154","245460","0.0-1.0-227.0","0","0","82896","","null","","","null","25","","","","","","","","","","","","","","","",""
"","ISI","","html-keyboard-response","155","245968","0.0-1.0-228.0","0","0","82896","","null","","","null","25","NaN","","","","","","","","","","","","","","",""
"","S2","","html-keyboard-response","156","246190","0.0-1.0-229.0","0","0","82896","","220","","","68","25","","d","1","25","training","adjacent","ED","5","4","P.jpg","Q.jpg","1","0","0","",""
"","feedback","","html-keyboard-response","157","247195","0.0-1.0-231.0-0.0","0","0","82896","","null","","","null","25","","","","","","","","","","","","","","","",""
"","time_out","","html-keyboard-response","158","249204","0.0-1.0-233.0-0.0","0","0","82896","","null","","","null","25","","","","","","","","","","","","","","","",""
"","ITI","","html-keyboard-response","159","250212","0.0-1.0-234.0","0","0","82896","","null","","","null","25","","","","","","","","","","","","","","","NaN",""
"","S1","","html-keyboard-response","160","250478","0.0-1.0-236.0","0","0","82896","","null","","","null","26","","","","","","","","","","","","","","","",""
"","ISI","","html-keyboard-response","161","250991","0.0-1.0-237.0","0","0","82896","","null","","","null","26","NaN","","","","","","","","","","","","","","",""
"","S2","","html-keyboard-response","162","251241","0.0-1.0-238.0","0","0","82896","","244","","","75","26","","k","1","26","training","adjacent","BC","2","3","N.jpg","L.jpg","0","1","0","",""
"","feedback","","html-keyboard-response","163","252253","0.0-1.0-240.0-0.0","0","0","82896","","null","","","null","26","","","","","","","","","","","","","","","",""
"","time_out","","html-keyboard-response","164","254260","0.0-1.0-242.0-0.0","0","0","82896","","null","","","null","26","","","","","","","","","","","","","","","",""
"","ITI","","html-keyboard-response","165","255268","0.0-1.0-243.0","0","0","82896","","null","","","null","26","","","","","","","","","","","","","","","NaN",""
"","S1","","html-keyboard-response","166","255531","0.0-1.0-245.0","0","0","82896","","null","","","null","27","","","","","","","","","","","","","","","",""
"","ISI","","html-keyboard-response","167","256047","0.0-1.0-246.0","0","0","82896","","472","","","68","27","d","","","","","","","","","","","","","","",""
"","S2","","html-keyboard-response","168","256312","0.0-1.0-247.0","0","0","82896","","null","","","null","27","","NaN","","","","","","","","","","","","","",""
"","response","","html-keyboard-response","169","256612","0.0-1.0-248.0-0.0","0","0","82896","","298","","","68","27","","","1","27","training","adjacent","FG","6","7","M.jpg","R.jpg","1","1","1","",""
"","feedback","","html-keyboard-response","170","257620","0.0-1.0-249.0-0.0","0","0","82896","","null","","","null","27","","","","","","","","","","","","","","","",""
"","ITI","","html-keyboard-response","171","258628","0.0-1.0-252.0","0","0","82896","","null","","","null","27","","","","","","","","","","","","","","","NaN",""
"","S1","","html-keyboard-response","172","258894","0.0-1.0-254.0","0","0","82896","","null","","","null","28","","","","","","","","","","","","","","","",""
"","ISI","","html-keyboard-response","173","259403","0.0-1.0-255.0","0","0","82896","","null","","","null","28","NaN","","","","","","","","","","","","","","",""
"","S2","","html-keyboard-response","174","259633","0.0-1.0-256.0","0","0","82896","","228","","","68","28","","d","1","28","training","adjacent","BA","2","1","N.jpg","O.jpg","1","0","0","",""
"","feedback","","html-keyboard-response","175","260644","0.0-1.0-258.0-0.0","0","0","82896","","null","","","null","28","","","","","","","","","","","","","","","",""
"","time_out","","html-keyboard-response","176","262651","0.0-1.0-260.0-0.0","0","0","82896","","null","","","null","28","","","","","","","","","","","","","","","",""
"","ITI","","html-keyboard-response","177","263659","0.0-1.0-261.0","0","0","82896","","null","","","null","28","","","","","","","","","","","","","","","NaN",""
"","S1","","html-keyboard-response","178","263915","0.0-1.0-263.0","0","0","82896","","null","","","null","29","","","","","","","","","","","","","","","",""
"","ISI","","html-keyboard-response","179","264430","0.0-1.0-264.0","0","0","82896","","null","","","null","29","NaN","","","","","","","","","","","","","","",""
"","S2","","html-keyboard-response","180","264679","0.0-1.0-265.0","0","0","82896","","246","","","75","29","","k","1","29","training","adjacent","DE","4","5","Q.jpg","P.jpg","0","1","0","",""
"","feedback","","html-keyboard-response","181","265692","0.0-1.0-267.0-0.0","0","0","82896","","null","","","null","29","","","","","","","","","","","","","","","",""
"","time_out","","html-keyboard-response","182","267699","0.0-1.0-269.0-0.0","0","0","82896","","null","","","null","29","","","","","","","","","","","","","","","",""
"","ITI","","html-keyboard-response","183","268708","0.0-1.0-270.0","0","0","82896","","null","","","null","29","","","","","","","","","","","","","","","NaN",""
"","S1","","html-keyboard-response","184","268972","0.0-1.0-272.0","0","0","82896","","null","","","null","30","","","","","","","","","","","","","","","",""
"","ISI","","html-keyboard-response","185","269482","0.0-1.0-273.0","0","0","82896","","null","","","null","30","NaN","","","","","","","","","","","","","","",""
"","S2","","html-keyboard-response","186","269703","0.0-1.0-274.0","0","0","82896","","216","","","68","30","","d","1","30","training","adjacent","ED","5","4","P.jpg","Q.jpg","1","0","0","",""
"","feedback","","html-keyboard-response","187","270715","0.0-1.0-276.0-0.0","0","0","82896","","null","","","null","30","","","","","","","","","","","","","","","",""
"","time_out","","html-keyboard-response","188","272724","0.0-1.0-278.0-0.0","0","0","82896","","null","","","null","30","","","","","","","","","","","","","","","",""
"","ITI","","html-keyboard-response","189","273734","0.0-1.0-279.0","0","0","82896","","null","","","null","30","","","","","","","","","","","","","","","NaN",""
"","S1","","html-keyboard-response","190","273991","0.0-1.0-281.0","0","0","82896","","null","","","null","31","","","","","","","","","","","","","","","",""
"","ISI","","html-keyboard-response","191","274522","0.0-1.0-282.0","0","0","82896","","null","","","null","31","NaN","","","","","","","","","","","","","","",""
"","S2","","html-keyboard-response","192","274747","0.0-1.0-283.0","0","0","82896","","223","","","68","31","","d","1","31","training","adjacent","FE","6","5","M.jpg","P.jpg","1","0","0","",""
"","feedback","","html-keyboard-response","193","275758","0.0-1.0-285.0-0.0","0","0","82896","","null","","","null","31","","","","","","","","","","","","","","","",""
"","time_out","","html-keyboard-response","194","277772","0.0-1.0-287.0-0.0","0","0","82896","","null","","","null","31","","","","","","","","","","","","","","","",""
"","ITI","","html-keyboard-response","195","278782","0.0-1.0-288.0","0","0","82896","","null","","","null","31","","","","","","","","","","","","","","","NaN",""
"","S1","","html-keyboard-response","196","279047","0.0-1.0-290.0","0","0","82896","","null","","","null","32","","","","","","","","","","","","","","","",""
"","ISI","","html-keyboard-response","197","279556","0.0-1.0-291.0","0","0","82896","","null","","","null","32","NaN","","","","","","","","","","","","","","",""
"","S2","","html-keyboard-response","198","279821","0.0-1.0-292.0","0","0","82896","","null","","","null","32","","NaN","","","","","","","","","","","","","",""
"","response","","html-keyboard-response","199","279824","0.0-1.0-293.0-0.0","0","0","82896","","0","","","75","32","","","1","32","training","adjacent","EF","5","6","P.jpg","M.jpg","0","1","0","",""
"","feedback","","html-keyboard-response","200","280838","0.0-1.0-294.0-0.0","0","0","82896","","null","","","null","32","","","","","","","","","","","","","","","",""
"","time_out","","html-keyboard-response","201","282855","0.0-1.0-296.0-0.0","0","0","82896","","null","","","null","32","","","","","","","","","","","","","","","",""
"","ITI","","html-keyboard-response","202","283863","0.0-1.0-297.0","0","0","82896","","null","","","null","32","","","","","","","","","","","","","","","NaN",""
"","S1","","html-keyboard-response","203","284126","0.0-1.0-299.0","0","0","82896","","null","","","null","33","","","","","","","","","","","","","","","",""
"","ISI","","html-keyboard-response","204","284634","0.0-1.0-300.0","0","0","82896","","null","","","null","33","NaN","","","","","","","","","","","","","","",""
"","S2","","html-keyboard-response","205","284824","0.0-1.0-301.0","0","0","82896","","185","","","68","33","","d","1","33","training","adjacent","AB","1","2","O.jpg","N.jpg","1","1","1","",""
"","feedback","","html-keyboard-response","206","285837","0.0-1.0-303.0-0.0","0","0","82896","","null","","","null","33","","","","","","","","","","","","","","","",""
"","ITI","","html-keyboard-response","207","286855","0.0-1.0-306.0","0","0","82896","","null","","","null","33","","","","","","","","","","","","","","","NaN",""
"","S1","","html-keyboard-response","208","287117","0.0-1.0-308.0","0","0","82896","","null","","","null","34","","","","","","","","","","","","","","","",""
"","ISI","","html-keyboard-response","209","287626","0.0-1.0-309.0","0","0","82896","","null","","","null","34","NaN","","","","","","","","","","","","","","",""
"","S2","","html-keyboard-response","210","287886","0.0-1.0-310.0","0","0","82896","","null","","","null","34","","NaN","","","","","","","","","","","","","",""
"","response","","html-keyboard-response","211","287894","0.0-1.0-311.0-0.0","0","0","82896","","6","","","68","34","","","1","34","training","adjacent","BC","2","3","N.jpg","L.jpg","1","1","1","",""
"","feedback","","html-keyboard-response","212","288909","0.0-1.0-312.0-0.0","0","0","82896","","null","","","null","34","","","","","","","","","","","","","","","",""
"","ITI","","html-keyboard-response","213","289915","0.0-1.0-315.0","0","0","82896","","null","","","null","34","","","","","","","","","","","","","","","NaN",""
"","S1","","html-keyboard-response","214","290183","0.0-1.0-317.0","0","0","82896","","null","","","null","35","","","","","","","","","","","","","","","",""
"","ISI","","html-keyboard-response","215","290691","0.0-1.0-318.0","0","0","82896","","null","","","null","35","NaN","","","","","","","","","","","","","","",""
"","S2","","html-keyboard-response","216","290924","0.0-1.0-319.0","0","0","82896","","227","","","75","35","","k","1","35","training","adjacent","FG","6","7","M.jpg","R.jpg","0","1","0","",""
"","feedback","","html-keyboard-response","217","291933","0.0-1.0-321.0-0.0","0","0","82896","","null","","","null","35","","","","","","","","","","","","","","","",""
"","time_out","","html-keyboard-response","218","293949","0.0-1.0-323.0-0.0","0","0","82896","","null","","","null","35","","","","","","","","","","","","","","","",""
"","ITI","","html-keyboard-response","219","294957","0.0-1.0-324.0","0","0","82896","","null","","","null","35","","","","","","","","","","","","","","","NaN",""
"","S1","","html-keyboard-response","220","295218","0.0-1.0-326.0","0","0","82896","","null","","","null","36","","","","","","","","","","","","","","","",""
"","ISI","","html-keyboard-response","221","295734","0.0-1.0-327.0","0","0","82896","","null","","","null","36","NaN","","","","","","","","","","","","","","",""
"","S2","","html-keyboard-response","222","295851","0.0-1.0-328.0","0","0","82896","","111","","","68","36","","d","1","36","training","adjacent","CB","3","2","L.jpg","N.jpg","1","0","0","",""
"","feedback","","html-keyboard-response","223","296857","0.0-1.0-330.0-0.0","0","0","82896","","null","","","null","36","","","","","","","","","","","","","","","",""
"","time_out","","html-keyboard-response","224","298866","0.0-1.0-332.0-0.0","0","0","82896","","null","","","null","36","","","","","","","","","","","","","","","",""
"","ITI","","html-keyboard-response","225","299874","0.0-1.0-333.0","0","0","82896","","null","","","null","36","","","","","","","","","","","","","","","NaN",""
"","S1","","html-keyboard-response","226","300141","0.0-1.0-335.0","0","0","82896","","null","","","null","37","","","","","","","","","","","","","","","",""
"","ISI","","html-keyboard-response","227","300649","0.0-1.0-336.0","0","0","82896","","null","","","null","37","NaN","","","","","","","","","","","","","","",""
"","S2","","html-keyboard-response","228","300908","0.0-1.0-337.0","0","0","82896","","null","","","null","37","","NaN","","","","","","","","","","","","","",""
"","response","","html-keyboard-response","229","301038","0.0-1.0-338.0-0.0","0","0","82896","","125","","","68","37","","","1","37","training","adjacent","DC","4","3","Q.jpg","L.jpg","1","0","0","",""
"","feedback","","html-keyboard-response","230","302054","0.0-1.0-339.0-0.0","0","0","82896","","null","","","null","37","","","","","","","","","","","","","","","",""
"","time_out","","html-keyboard-response","231","304061","0.0-1.0-341.0-0.0","0","0","82896","","null","","","null","37","","","","","","","","","","","","","","","",""
"","ITI","","html-keyboard-response","232","305071","0.0-1.0-342.0","0","0","82896","","null","","","null","37","","","","","","","","","","","","","","","NaN",""
"","S1","","html-keyboard-response","233","305330","0.0-1.0-344.0","0","0","82896","","null","","","null","38","","","","","","","","","","","","","","","",""
"","ISI","","html-keyboard-response","234","305842","0.0-1.0-345.0","0","0","82896","","null","","","null","38","NaN","","","","","","","","","","","","","","",""
"","S2","","html-keyboard-response","235","306054","0.0-1.0-346.0","0","0","82896","","211","","","75","38","","k","1","38","training","adjacent","CD","3","4","L.jpg","Q.jpg","0","1","0","",""
"","feedback","","html-keyboard-response","236","307058","0.0-1.0-348.0-0.0","0","0","82896","","null","","","null","38","","","","","","","","","","","","","","","",""
"","time_out","","html-keyboard-response","237","309063","0.0-1.0-350.0-0.0","0","0","82896","","null","","","null","38","","","","","","","","","","","","","","","",""
"","ITI","","html-keyboard-response","238","310073","0.0-1.0-351.0","0","0","82896","","null","","","null","38","","","","","","","","","","","","","","","NaN",""
"","S1","","html-keyboard-response","239","310333","0.0-1.0-353.0","0","0","82896","","null","","","null","39","","","","","","","","","","","","","","","",""
"","ISI","","html-keyboard-response","240","310845","0.0-1.0-354.0","0","0","82896","","null","","","null","39","NaN","","","","","","","","","","","","","","",""
"","S2","","html-keyboard-response","241","311030","0.0-1.0-355.0","0","0","82896","","179","","","75","39","","k","1","39","training","adjacent","DE","4","5","Q.jpg","P.jpg","0","1","0","",""
"","feedback","","html-keyboard-response","242","312045","0.0-1.0-357.0-0.0","0","0","82896","","null","","","null","39","","","","","","","","","","","","","","","",""
"","time_out","","html-keyboard-response","243","314061","0.0-1.0-359.0-0.0","0","0","82896","","null","","","null","39","","","","","","","","","","","","","","","",""
"","ITI","","html-keyboard-response","244","315074","0.0-1.0-360.0","0","0","82896","","null","","","null","39","","","","","","","","","","","","","","","NaN",""
"","S1","","html-keyboard-response","245","315341","0.0-1.0-362.0","0","0","82896","","null","","","null","40","","","","","","","","","","","","","","","",""
"","ISI","","html-keyboard-response","246","315853","0.0-1.0-363.0","0","0","82896","","null","","","null","40","NaN","","","","","","","","","","","","","","",""
"","S2","","html-keyboard-response","247","316029","0.0-1.0-364.0","0","0","82896","","169","","","68","40","","d","1","40","training","adjacent","CB","3","2","L.jpg","N.jpg","1","0","0","",""
"","feedback","","html-keyboard-response","248","317046","0.0-1.0-366.0-0.0","0","0","82896","","null","","","null","40","","","","","","","","","","","","","","","",""
"","time_out","","html-keyboard-response","249","319062","0.0-1.0-368.0-0.0","0","0","82896","","null","","","null","40","","","","","","","","","","","","","","","",""
"","ITI","","html-keyboard-response","250","320075","0.0-1.0-369.0","0","0","82896","","null","","","null","40","","","","","","","","","","","","","","","NaN",""
"","S1","","html-keyboard-response","251","320342","0.0-1.0-371.0","0","0","82896","","null","","","null","41","","","","","","","","","","","","","","","",""
"","ISI","","html-keyboard-response","252","320854","0.0-1.0-372.0","0","0","82896","","null","","","null","41","NaN","","","","","","","","","","","","","","",""
"","S2","","html-keyboard-response","253","321116","0.0-1.0-373.0","0","0","82896","","null","","","null","41","","NaN","","","","","","","","","","","","","",""
"","response","","html-keyboard-response","254","321342","0.0-1.0-374.0-0.0","0","0","82896","","220","","","68","41","","","1","41","training","adjacent","DC","4","3","Q.jpg","L.jpg","1","0","0","",""
"","feedback","","html-keyboard-response","255","322358","0.0-1.0-375.0-0.0","0","0","82896","","null","","","null","41","","","","","","","","","","","","","","","",""
"","time_out","","html-keyboard-response","256","324370","0.0-1.0-377.0-0.0","0","0","82896","","null","","","null","41","","","","","","","","","","","","","","","",""
"","ITI","","html-keyboard-response","257","325378","0.0-1.0-378.0","0","0","82896","","null","","","null","41","","","","","","","","","","","","","","","NaN",""
"","S1","","html-keyboard-response","258","325641","0.0-1.0-380.0","0","0","82896","","null","","","null","42","","","","","","","","","","","","","","","",""
"","ISI","","html-keyboard-response","259","326156","0.0-1.0-381.0","0","0","82896","","null","","","null","42","NaN","","","","","","","","","","","","","","",""
"","S2","","html-keyboard-response","260","326415","0.0-1.0-382.0","0","0","82896","","253","","","75","42","","k","1","42","training","adjacent","AB","1","2","O.jpg","N.jpg","0","1","0","",""
"","feedback","","html-keyboard-response","261","327426","0.0-1.0-384.0-0.0","0","0","82896","","null","","","null","42","","","","","","","","","","","","","","","",""
"","time_out","","html-keyboard-response","262","329433","0.0-1.0-386.0-0.0","0","0","82896","","null","","","null","42","","","","","","","","","","","","","","","",""
"","ITI","","html-keyboard-response","263","330444","0.0-1.0-387.0","0","0","82896","","null","","","null","42","","","","","","","","","","","","","","","NaN",""
"","S1","","html-keyboard-response","264","330706","0.0-1.0-389.0","0","0","82896","","null","","","null","43","","","","","","","","","","","","","","","",""
"","ISI","","html-keyboard-response","265","331217","0.0-1.0-390.0","0","0","82896","","null","","","null","43","NaN","","","","","","","","","","","","","","",""
"","S2","","html-keyboard-response","266","331480","0.0-1.0-391.0","0","0","82896","","null","","","null","43","","NaN","","","","","","","","","","","","","",""
"","response","","html-keyboard-response","267","331517","0.0-1.0-392.0-0.0","0","0","82896","","35","","","75","43","","","1","43","training","adjacent","FG","6","7","M.jpg","R.jpg","0","1","0","",""
"","feedback","","html-keyboard-response","268","332548","0.0-1.0-393.0-0.0","0","0","82896","","null","","","null","43","","","","","","","","","","","","","","","",""
"","time_out","","html-keyboard-response","269","334555","0.0-1.0-395.0-0.0","0","0","82896","","null","","","null","43","","","","","","","","","","","","","","","",""
"","ITI","","html-keyboard-response","270","335558","0.0-1.0-396.0","0","0","82896","","null","","","null","43","","","","","","","","","","","","","","","NaN",""
"","S1","","html-keyboard-response","271","335820","0.0-1.0-398.0","0","0","82896","","null","","","null","44","","","","","","","","","","","","","","","",""
"","ISI","","html-keyboard-response","272","336332","0.0-1.0-399.0","0","0","82896","","null","","","null","44","NaN","","","","","","","","","","","","","","",""
"","S2","","html-keyboard-response","273","336594","0.0-1.0-400.0","0","0","82896","","null","","","null","44","","NaN","","","","","","","","","","","","","",""
"","response","","html-keyboard-response","274","336632","0.0-1.0-401.0-0.0","0","0","82896","","37","","","68","44","","","1","44","training","adjacent","CD","3","4","L.jpg","Q.jpg","1","1","1","",""
"","feedback","","html-keyboard-response","275","337641","0.0-1.0-402.0-0.0","0","0","82896","","null","","","null","44","","","","","","","","","","","","","","","",""
"","ITI","","html-keyboard-response","276","338648","0.0-1.0-405.0","0","0","82896","","null","","","null","44","","","","","","","","","","","","","","","NaN",""
"","S1","","html-keyboard-response","277","338908","0.0-1.0-407.0","0","0","82896","","null","","","null","45","","","","","","","","","","","","","","","",""
"","ISI","","html-keyboard-response","278","339416","0.0-1.0-408.0","0","0","82896","","null","","","null","45","NaN","","","","","","","","","","","","","","",""
"","S2","","html-keyboard-response","279","339586","0.0-1.0-409.0","0","0","82896","","169","","","68","45","","d","1","45","training","adjacent","BC","2","3","N.jpg","L.jpg","1","1","1","",""
"","feedback","","html-keyboard-response","280","340593","0.0-1.0-411.0-0.0","0","0","82896","","null","","","null","45","","","","","","","","","","","","","","","",""
"","ITI","","html-keyboard-response","281","341602","0.0-1.0-414.0","0","0","82896","","null","","","null","45","","","","","","","","","","","","","","","NaN",""
"","S1","","html-keyboard-response","282","341861","0.0-1.0-416.0","0","0","82896","","null","","","null","46","","","","","","","","","","","","","","","",""
"","ISI","","html-keyboard-response","283","342370","0.0-1.0-417.0","0","0","82896","","null","","","null","46","NaN","","","","","","","","","","","","","","",""
"","S2","","html-keyboard-response","284","342594","0.0-1.0-418.0","0","0","82896","","221","","","75","46","","k","1","46","training","adjacent","AB","1","2","O.jpg","N.jpg","0","1","0","",""
"","feedback","","html-keyboard-response","285","343602","0.0-1.0-420.0-0.0","0","0","82896","","null","","","null","46","","","","","","","","","","","","","","","",""
"","time_out","","html-keyboard-response","286","345608","0.0-1.0-422.0-0.0","0","0","82896","","null","","","null","46","","","","","","","","","","","","","","","",""
"","ITI","","html-keyboard-response","287","346616","0.0-1.0-423.0","0","0","82896","","null","","","null","46","","","","","","","","","","","","","","","NaN",""
"","S1","","html-keyboard-response","288","346875","0.0-1.0-425.0","0","0","82896","","null","","","null","47","","","","","","","","","","","","","","","",""
"","ISI","","html-keyboard-response","289","347385","0.0-1.0-426.0","0","0","82896","","null","","","null","47","NaN","","","","","","","","","","","","","","",""
"","S2","","html-keyboard-response","290","347597","0.0-1.0-427.0","0","0","82896","","210","","","75","47","","k","1","47","training","adjacent","CD","3","4","L.jpg","Q.jpg","0","1","0","",""
"","feedback","","html-keyboard-response","291","348609","0.0-1.0-429.0-0.0","0","0","82896","","null","","","null","47","","","","","","","","","","","","","","","",""
"","time_out","","html-keyboard-response","292","350616","0.0-1.0-431.0-0.0","0","0","82896","","null","","","null","47","","","","","","","","","","","","","","","",""
"","ITI","","html-keyboard-response","293","351624","0.0-1.0-432.0","0","0","82896","","null","","","null","47","","","","","","","","","","","","","","","NaN",""
"","block_over","","html-keyboard-response","294","356631","0.0-1.0-433.0-0.0","0","0","82896","","5005","","","32","47","","","","","","","","","","","","","","","",""
"","S1","","html-keyboard-response","295","356891","0.0-1.0-434.0","0","0","82896","","null","","","null","48","","","","","","","","","","","","","","","",""
"","ISI","","html-keyboard-response","296","357400","0.0-1.0-435.0","0","0","82896","","null","","","null","48","NaN","","","","","","","","","","","","","","",""
"","S2","","html-keyboard-response","297","357655","0.0-1.0-436.0","0","0","82896","","null","","","null","48","","NaN","","","","","","","","","","","","","",""
"","response","","html-keyboard-response","298","357746","0.0-1.0-437.0-0.0","0","0","82896","","87","","","68","48","","","2","48","training","adjacent","DC","4","3","Q.jpg","L.jpg","1","0","0","",""
"","feedback","","html-keyboard-response","299","358756","0.0-1.0-438.0-0.0","0","0","82896","","null","","","null","48","","","","","","","","","","","","","","","",""
"","time_out","","html-keyboard-response","300","360765","0.0-1.0-440.0-0.0","0","0","82896","","null","","","null","48","","","","","","","","","","","","","","","",""
"","ITI","","html-keyboard-response","301","361780","0.0-1.0-441.0","0","0","82896","","null","","","null","48","","","","","","","","","","","","","","","NaN",""
"","S1","","html-keyboard-response","302","362043","0.0-1.0-443.0","0","0","82896","","null","","","null","49","","","","","","","","","","","","","","","",""
"","ISI","","html-keyboard-response","303","362551","0.0-1.0-444.0","0","0","82896","","null","","","null","49","NaN","","","","","","","","","","","","","","",""
"","S2","","html-keyboard-response","304","362765","0.0-1.0-445.0","0","0","82896","","213","","","68","49","","d","2","49","training","adjacent","BA","2","1","N.jpg","O.jpg","1","0","0","",""
"","feedback","","html-keyboard-response","305","363780","0.0-1.0-447.0-0.0","0","0","82896","","null","","","null","49","","","","","","","","","","","","","","","",""
"","time_out","","html-keyboard-response","306","365792","0.0-1.0-449.0-0.0","0","0","82896","","null","","","null","49","","","","","","","","","","","","","","","",""
"","ITI","","html-keyboard-response","307","366800","0.0-1.0-450.0","0","0","82896","","null","","","null","49","","","","","","","","","","","","","","","NaN",""
"","S1","","html-keyboard-response","308","367056","0.0-1.0-452.0","0","0","82896","","null","","","null","50","","","","","","","","","","","","","","","",""
"","ISI","","html-keyboard-response","309","367564","0.0-1.0-453.0","0","0","82896","","null","","","null","50","NaN","","","","","","","","","","","","","","",""
"","S2","","html-keyboard-response","310","367800","0.0-1.0-454.0","0","0","82896","","234","","","75","50","","k","2","50","training","adjacent","CD","3","4","L.jpg","Q.jpg","0","1","0","",""
"","feedback","","html-keyboard-response","311","368807","0.0-1.0-456.0-0.0","0","0","82896","","null","","","null","50","","","","","","","","","","","","","","","",""
"","time_out","","html-keyboard-response","312","370820","0.0-1.0-458.0-0.0","0","0","82896","","null","","","null","50","","","","","","","","","","","","","","","",""
"","ITI","","html-keyboard-response","313","371835","0.0-1.0-459.0","0","0","82896","","null","","","null","50","","","","","","","","","","","","","","","NaN",""
"","S1","","html-keyboard-response","314","372100","0.0-1.0-461.0","0","0","82896","","null","","","null","51","","","","","","","","","","","","","","","",""
"","ISI","","html-keyboard-response","315","372608","0.0-1.0-462.0","0","0","82896","","null","","","null","51","NaN","","","","","","","","","","","","","","",""
"","S2","","html-keyboard-response","316","372872","0.0-1.0-463.0","0","0","82896","","null","","","null","51","","NaN","","","","","","","","","","","","","",""
"","response","","html-keyboard-response","317","372945","0.0-1.0-464.0-0.0","0","0","82896","","68","","","68","51","","","2","51","training","adjacent","EF","5","6","P.jpg","M.jpg","1","1","1","",""
"","feedback","","html-keyboard-response","318","373956","0.0-1.0-465.0-0.0","0","0","82896","","null","","","null","51","","","","","","","","","","","","","","","",""
"","ITI","","html-keyboard-response","319","374969","0.0-1.0-468.0","0","0","82896","","null","","","null","51","","","","","","","","","","","","","","","NaN",""
"","S1","","html-keyboard-response","320","375236","0.0-1.0-470.0","0","0","82896","","null","","","null","52","","","","","","","","","","","","","","","",""
"","ISI","","html-keyboard-response","321","375748","0.0-1.0-471.0","0","0","82896","","null","","","null","52","NaN","","","","","","","","","","","","","","",""
"","S2","","html-keyboard-response","322","375871","0.0-1.0-472.0","0","0","82896","","117","","","68","52","","d","2","52","training","adjacent","DE","4","5","Q.jpg","P.jpg","1","1","1","",""
"","feedback","","html-keyboard-response","323","376883","0.0-1.0-474.0-0.0","0","0","82896","","null","","","null","52","","","","","","","","","","","","","","","",""
"","ITI","","html-keyboard-response","324","377899","0.0-1.0-477.0","0","0","82896","","null","","","null","52","","","","","","","","","","","","","","","NaN",""
"","S1","","html-keyboard-response","325","378160","0.0-1.0-479.0","0","0","82896","","null","","","null","53","","","","","","","","","","","","","","","",""
"","ISI","","html-keyboard-response","326","378669","0.0-1.0-480.0","0","0","82896","","null","","","null","53","NaN","","","","","","","","","","","","","","",""
"","S2","","html-keyboard-response","327","378928","0.0-1.0-481.0","0","0","82896","","null","","","null","53","","NaN","","","","","","","","","","","","","",""
"","response","","html-keyboard-response","328","378950","0.0-1.0-482.0-0.0","0","0","82896","","18","","","75","53","","","2","53","training","adjacent","AB","1","2","O.jpg","N.jpg","0","1","0","",""
"","feedback","","html-keyboard-response","329","379956","0.0-1.0-483.0-0.0","0","0","82896","","null","","","null","53","","","","","","","","","","","","","","","",""
"","time_out","","html-keyboard-response","330","381968","0.0-1.0-485.0-0.0","0","0","82896","","null","","","null","53","","","","","","","","","","","","","","","",""
"","ITI","","html-keyboard-response","331","382979","0.0-1.0-486.0","0","0","82896","","null","","","null","53","","","","","","","","","","","","","","","NaN",""
"","S1","","html-keyboard-response","332","383242","0.0-1.0-488.0","0","0","82896","","null","","","null","54","","","","","","","","","","","","","","","",""
"","ISI","","html-keyboard-response","333","383755","0.0-1.0-489.0","0","0","82896","","null","","","null","54","NaN","","","","","","","","","","","","","","",""
"","S2","","html-keyboard-response","334","383860","0.0-1.0-490.0","0","0","82896","","99","","","68","54","","d","2","54","training","adjacent","AB","1","2","O.jpg","N.jpg","1","1","1","",""
"","feedback","","html-keyboard-response","335","384874","0.0-1.0-492.0-0.0","0","0","82896","","null","","","null","54","","","","","","","","","","","","","","","",""
"","ITI","","html-keyboard-response","336","385891","0.0-1.0-495.0","0","0","82896","","null","","","null","54","","","","","","","","","","","","","","","NaN",""
"","S1","","html-keyboard-response","337","386155","0.0-1.0-497.0","0","0","82896","","null","","","null","55","","","","","","","","","","","","","","","",""
"","ISI","","html-keyboard-response","338","386660","0.0-1.0-498.0","0","0","82896","","448","","","75","55","k","","","","","","","","","","","","","","",""
"","S2","","html-keyboard-response","339","386919","0.0-1.0-499.0","0","0","82896","","null","","","null","55","","NaN","","","","","","","","","","","","","",""
"","response","","html-keyboard-response","340","387150","0.0-1.0-500.0-0.0","0","0","82896","","226","","","75","55","","","2","55","training","adjacent","EF","5","6","P.jpg","M.jpg","0","1","0","",""
"","feedback","","html-keyboard-response","341","388159","0.0-1.0-501.0-0.0","0","0","82896","","null","","","null","55","","","","","","","","","","","","","","","",""
"","time_out","","html-keyboard-response","342","390169","0.0-1.0-503.0-0.0","0","0","82896","","null","","","null","55","","","","","","","","","","","","","","","",""
"","ITI","","html-keyboard-response","343","391178","0.0-1.0-504.0","0","0","82896","","null","","","null","55","","","","","","","","","","","","","","","NaN",""
"","S1","","html-keyboard-response","344","391440","0.0-1.0-506.0","0","0","82896","","null","","","null","56","","","","","","","","","","","","","","","",""
"","ISI","","html-keyboard-response","345","391955","0.0-1.0-507.0","0","0","82896","","null","","","null","56","NaN","","","","","","","","","","","","","","",""
"","S2","","html-keyboard-response","346","392218","0.0-1.0-508.0","0","0","82896","","null","","","null","56","","NaN","","","","","","","","","","","","","",""
"","response","","html-keyboard-response","347","392272","0.0-1.0-509.0-0.0","0","0","82896","","48","","","68","56","","","2","56","training","adjacent","CB","3","2","L.jpg","N.jpg","1","0","0","",""
"","feedback","","html-keyboard-response","348","393283","0.0-1.0-510.0-0.0","0","0","82896","","null","","","null","56","","","","","","","","","","","","","","","",""
"","time_out","","html-keyboard-response","349","395299","0.0-1.0-512.0-0.0","0","0","82896","","null","","","null","56","","","","","","","","","","","","","","","",""
"","ITI","","html-keyboard-response","350","396314","0.0-1.0-513.0","0","0","82896","","null","","","null","56","","","","","","","","","","","","","","","NaN",""
"","S1","","html-keyboard-response","351","396576","0.0-1.0-515.0","0","0","82896","","null","","","null","57","","","","","","","","","","","","","","","",""
"","ISI","","html-keyboard-response","352","397091","0.0-1.0-516.0","0","0","82896","","null","","","null","57","NaN","","","","","","","","","","","","","","",""
"","S2","","html-keyboard-response","353","397353","0.0-1.0-517.0","0","0","82896","","256","","","75","57","","k","2","57","training","adjacent","FG","6","7","M.jpg","R.jpg","0","1","0","",""
"","feedback","","html-keyboard-response","354","398367","0.0-1.0-519.0-0.0","0","0","82896","","null","","","null","57","","","","","","","","","","","","","","","",""
"","time_out","","html-keyboard-response","355","400376","0.0-1.0-521.0-0.0","0","0","82896","","null","","","null","57","","","","","","","","","","","","","","","",""
"","ITI","","html-keyboard-response","356","401383","0.0-1.0-522.0","0","0","82896","","null","","","null","57","","","","","","","","","","","","","","","NaN",""
"","S1","","html-keyboard-response","357","401648","0.0-1.0-524.0","0","0","82896","","null","","","null","58","","","","","","","","","","","","","","","",""
"","ISI","","html-keyboard-response","358","402154","0.0-1.0-525.0","0","0","82896","","null","","","null","58","NaN","","","","","","","","","","","","","","",""
"","S2","","html-keyboard-response","359","402415","0.0-1.0-526.0","0","0","82896","","null","","","null","58","","NaN","","","","","","","","","","","","","",""
"","response","","html-keyboard-response","360","402418","0.0-1.0-527.0-0.0","0","0","82896","","1","","","68","58","","","2","58","training","adjacent","EF","5","6","P.jpg","M.jpg","1","1","1","",""
"","feedback","","html-keyboard-response","361","403431","0.0-1.0-528.0-0.0","0","0","82896","","null","","","null","58","","","","","","","","","","","","","","","",""
"","ITI","","html-keyboard-response","362","404442","0.0-1.0-531.0","0","0","82896","","null","","","null","58","","","","","","","","","","","","","","","NaN",""
"","S1","","html-keyboard-response","363","404704","0.0-1.0-533.0","0","0","82896","","null","","","null","59","","","","","","","","","","","","","","","",""
"","ISI","","html-keyboard-response","364","405215","0.0-1.0-534.0","0","0","82896","","null","","","null","59","NaN","","","","","","","","","","","","","","",""
"","S2","","html-keyboard-response","365","405478","0.0-1.0-535.0","0","0","82896","","null","","","null","59","","NaN","","","","","","","","","","","","","",""
"","response","","html-keyboard-response","366","405504","0.0-1.0-536.0-0.0","0","0","82896","","26","","","68","59","","","2","59","training","adjacent","ED","5","4","P.jpg","Q.jpg","1","0","0","",""
"","feedback","","html-keyboard-response","367","406512","0.0-1.0-537.0-0.0","0","0","82896","","null","","","null","59","","","","","","","","","","","","","","","",""
"","time_out","","html-keyboard-response","368","408550","0.0-1.0-539.0-0.0","0","0","82896","","null","","","null","59","","","","","","","","","","","","","","","",""
"","ITI","","html-keyboard-response","369","409551","0.0-1.0-540.0","0","0","82896","","null","","","null","59","","","","","","","","","","","","","","","NaN",""
"","S1","","html-keyboard-response","370","409818","0.0-1.0-542.0","0","0","82896","","null","","","null","60","","","","","","","","","","","","","","","",""
"","ISI","","html-keyboard-response","371","410330","0.0-1.0-543.0","0","0","82896","","null","","","null","60","NaN","","","","","","","","","","","","","","",""
"","S2","","html-keyboard-response","372","410549","0.0-1.0-544.0","0","0","82896","","217","","","75","60","","k","2","60","training","adjacent","AB","1","2","O.jpg","N.jpg","0","1","0","",""
"","feedback","","html-keyboard-response","373","411551","0.0-1.0-546.0-0.0","0","0","82896","","null","","","null","60","","","","","","","","","","","","","","","",""
"","time_out","","html-keyboard-response","374","413555","0.0-1.0-548.0-0.0","0","0","82896","","null","","","null","60","","","","","","","","","","","","","","","",""
"","ITI","","html-keyboard-response","375","414556","0.0-1.0-549.0","0","0","82896","","null","","","null","60","","","","","","","","","","","","","","","NaN",""
"","S1","","html-keyboard-response","376","414819","0.0-1.0-551.0","0","0","82896","","null","","","null","61","","","","","","","","","","","","","","","",""
"","ISI","","html-keyboard-response","377","415331","0.0-1.0-552.0","0","0","82896","","null","","","null","61","NaN","","","","","","","","","","","","","","",""
"","S2","","html-keyboard-response","378","415590","0.0-1.0-553.0","0","0","82896","","null","","","null","61","","NaN","","","","","","","","","","","","","",""
"","response","","html-keyboard-response","379","415734","0.0-1.0-554.0-0.0","0","0","82896","","139","","","68","61","","","2","61","training","adjacent","ED","5","4","P.jpg","Q.jpg","1","0","0","",""
"","feedback","","html-keyboard-response","380","416742","0.0-1.0-555.0-0.0","0","0","82896","","null","","","null","61","","","","","","","","","","","","","","","",""
"","time_out","","html-keyboard-response","381","418752","0.0-1.0-557.0-0.0","0","0","82896","","null","","","null","61","","","","","","","","","","","","","","","",""
"","ITI","","html-keyboard-response","382","419759","0.0-1.0-558.0","0","0","82896","","null","","","null","61","","","","","","","","","","","","","","","NaN",""
"","S1","","html-keyboard-response","383","420025","0.0-1.0-560.0","0","0","82896","","null","","","null","62","","","","","","","","","","","","","","","",""
"","ISI","","html-keyboard-response","384","420549","0.0-1.0-561.0","0","0","82896","","null","","","null","62","NaN","","","","","","","","","","","","","","",""
"","S2","","html-keyboard-response","385","420739","0.0-1.0-562.0","0","0","82896","","187","","","68","62","","d","2","62","training","adjacent","CD","3","4","L.jpg","Q.jpg","1","1","1","",""
"","feedback","","html-keyboard-response","386","421753","0.0-1.0-564.0-0.0","0","0","82896","","null","","","null","62","","","","","","","","","","","","","","","",""
"","ITI","","html-keyboard-response","387","422764","0.0-1.0-567.0","0","0","82896","","null","","","null","62","","","","","","","","","","","","","","","NaN",""
"","S1","","html-keyboard-response","388","423026","0.0-1.0-569.0","0","0","82896","","null","","","null","63","","","","","","","","","","","","","","","",""
"","ISI","","html-keyboard-response","389","423535","0.0-1.0-570.0","0","0","82896","","null","","","null","63","NaN","","","","","","","","","","","","","","",""
"","S2","","html-keyboard-response","390","423795","0.0-1.0-571.0","0","0","82896","","null","","","null","63","","NaN","","","","","","","","","","","","","",""
"","response","","html-keyboard-response","391","423877","0.0-1.0-572.0-0.0","0","0","82896","","77","","","75","63","","","2","63","training","adjacent","BA","2","1","N.jpg","O.jpg","0","0","1","",""
"","feedback","","html-keyboard-response","392","424885","0.0-1.0-573.0-0.0","0","0","82896","","null","","","null","63","","","","","","","","","","","","","","","",""
"","ITI","","html-keyboard-response","393","425893","0.0-1.0-576.0","0","0","82896","","null","","","null","63","","","","","","","","","","","","","","","NaN",""
"","S1","","html-keyboard-response","394","426149","0.0-1.0-578.0","0","0","82896","","null","","","null","64","","","","","","","","","","","","","","","",""
"","ISI","","html-keyboard-response","395","426654","0.0-1.0-579.0","0","0","82896","","null","","","null","64","NaN","","","","","","","","","","","","","","",""
"","S2","","html-keyboard-response","396","426916","0.0-1.0-580.0","0","0","82896","","null","","","null","64","","NaN","","","","","","","","","","","","","",""
"","response","","html-keyboard-response","397","427029","0.0-1.0-581.0-0.0","0","0","82896","","112","","","75","64","","","2","64","training","adjacent","FG","6","7","M.jpg","R.jpg","0","1","0","",""
"","feedback","","html-keyboard-response","398","428037","0.0-1.0-582.0-0.0","0","0","82896","","null","","","null","64","","","","","","","","","","","","","","","",""
"","time_out","","html-keyboard-response","399","430050","0.0-1.0-584.0-0.0","0","0","82896","","null","","","null","64","","","","","","","","","","","","","","","",""
"","ITI","","html-keyboard-response","400","431058","0.0-1.0-585.0","0","0","82896","","null","","","null","64","","","","","","","","","","","","","","","NaN",""
"","S1","","html-keyboard-response","401","431321","0.0-1.0-587.0","0","0","82896","","null","","","null","65","","","","","","","","","","","","","","","",""
"","ISI","","html-keyboard-response","402","431833","0.0-1.0-588.0","0","0","82896","","null","","","null","65","NaN","","","","","","","","","","","","","","",""
"","S2","","html-keyboard-response","403","432098","0.0-1.0-589.0","0","0","82896","","null","","","null","65","","NaN","","","","","","","","","","","","","",""
"","response","","html-keyboard-response","404","432445","0.0-1.0-590.0-0.0","0","0","82896","","341","","","68","65","","","2","65","training","adjacent","BC","2","3","N.jpg","L.jpg","1","1","1","",""
"","feedback","","html-keyboard-response","405","433454","0.0-1.0-591.0-0.0","0","0","82896","","null","","","null","65","","","","","","","","","","","","","","","",""
"","ITI","","html-keyboard-response","406","434462","0.0-1.0-594.0","0","0","82896","","null","","","null","65","","","","","","","","","","","","","","","NaN",""
"","S1","","html-keyboard-response","407","434726","0.0-1.0-596.0","0","0","82896","","null","","","null","66","","","","","","","","","","","","","","","",""
"","ISI","","html-keyboard-response","408","435241","0.0-1.0-597.0","0","0","82896","","null","","","null","66","NaN","","","","","","","","","","","","","","",""
"","S2","","html-keyboard-response","409","435479","0.0-1.0-598.0","0","0","82896","","236","","","68","66","","d","2","66","training","adjacent","DE","4","5","Q.jpg","P.jpg","1","1","1","",""
"","feedback","","html-keyboard-response","410","436484","0.0-1.0-600.0-0.0","0","0","82896","","null","","","null","66","","","","","","","","","","","","","","","",""
"","ITI","","html-keyboard-response","411","437493","0.0-1.0-603.0","0","0","82896","","null","","","null","66","","","","","","","","","","","","","","","NaN",""
"","S1","","html-keyboard-response","412","437753","0.0-1.0-605.0","0","0","82896","","null","","","null","67","","","","","","","","","","","","","","","",""
"","ISI","","html-keyboard-response","413","438262","0.0-1.0-606.0","0","0","82896","","null","","","null","67","NaN","","","","","","","","","","","","","","",""
"","S2","","html-keyboard-response","414","438546","0.0-1.0-607.0","0","0","82896","","282","","","75","67","","k","2","67","training","adjacent","DC","4","3","Q.jpg","L.jpg","0","0","1","",""
"","feedback","","html-keyboard-response","415","439550","0.0-1.0-609.0-0.0","0","0","82896","","null","","","null","67","","","","","","","","","","","","","","","",""
"","ITI","","html-keyboard-response","416","440554","0.0-1.0-612.0","0","0","82896","","null","","","null","67","","","","","","","","","","","","","","","NaN",""
"","S1","","html-keyboard-response","417","440818","0.0-1.0-614.0","0","0","82896","","null","","","null","68","","","","","","","","","","","","","","","",""
"","ISI","","html-keyboard-response","418","441330","0.0-1.0-615.0","0","0","82896","","null","","","null","68","NaN","","","","","","","","","","","","","","",""
"","S2","","html-keyboard-response","419","441585","0.0-1.0-616.0","0","0","82896","","252","","","75","68","","k","2","68","training","adjacent","FG","6","7","M.jpg","R.jpg","0","1","0","",""
"","feedback","","html-keyboard-response","420","442597","0.0-1.0-618.0-0.0","0","0","82896","","null","","","null","68","","","","","","","","","","","","","","","",""
"","time_out","","html-keyboard-response","421","444606","0.0-1.0-620.0-0.0","0","0","82896","","null","","","null","68","","","","","","","","","","","","","","","",""
"","ITI","","html-keyboard-response","422","445614","0.0-1.0-621.0","0","0","82896","","null","","","null","68","","","","","","","","","","","","","","","NaN",""
"","S1","","html-keyboard-response","423","445881","0.0-1.0-623.0","0","0","82896","","null","","","null","69","","","","","","","","","","","","","","","",""
"","ISI","","html-keyboard-response","424","446393","0.0-1.0-624.0","0","0","82896","","null","","","null","69","NaN","","","","","","","","","","","","","","",""
"","S2","","html-keyboard-response","425","446610","0.0-1.0-625.0","0","0","82896","","214","","","68","69","","d","2","69","training","adjacent","AB","1","2","O.jpg","N.jpg","1","1","1","",""
"","feedback","","html-keyboard-response","426","447621","0.0-1.0-627.0-0.0","0","0","82896","","null","","","null","69","","","","","","","","","","","","","","","",""
"","ITI","","html-keyboard-response","427","448629","0.0-1.0-630.0","0","0","82896","","null","","","null","69","","","","","","","","","","","","","","","NaN",""
"","S1","","html-keyboard-response","428","448888","0.0-1.0-632.0","0","0","82896","","null","","","null","70","","","","","","","","","","","","","","","",""
"","ISI","","html-keyboard-response","429","449397","0.0-1.0-633.0","0","0","82896","","null","","","null","70","NaN","","","","","","","","","","","","","","",""
"","S2","","html-keyboard-response","430","449536","0.0-1.0-634.0","0","0","82896","","137","","","68","70","","d","2","70","training","adjacent","GF","7","6","R.jpg","M.jpg","1","0","0","",""
"","feedback","","html-keyboard-response","431","450550","0.0-1.0-636.0-0.0","0","0","82896","","null","","","null","70","","","","","","","","","","","","","","","",""
"","time_out","","html-keyboard-response","432","452553","0.0-1.0-638.0-0.0","0","0","82896","","null","","","null","70","","","","","","","","","","","","","","","",""
"","ITI","","html-keyboard-response","433","453562","0.0-1.0-639.0","0","0","82896","","null","","","null","70","","","","","","","","","","","","","","","NaN",""
"","S1","","html-keyboard-response","434","453825","0.0-1.0-641.0","0","0","82896","","null","","","null","71","","","","","","","","","","","","","","","",""
"","ISI","","html-keyboard-response","435","454337","0.0-1.0-642.0","0","0","82896","","null","","","null","71","NaN","","","","","","","","","","","","","","",""
"","S2","","html-keyboard-response","436","454565","0.0-1.0-643.0","0","0","82896","","225","","","68","71","","d","2","71","training","adjacent","CB","3","2","L.jpg","N.jpg","1","0","0","",""
"","feedback","","html-keyboard-response","437","455573","0.0-1.0-645.0-0.0","0","0","82896","","null","","","null","71","","","","","","","","","","","","","","","",""
"","time_out","","html-keyboard-response","438","457582","0.0-1.0-647.0-0.0","0","0","82896","","null","","","null","71","","","","","","","","","","","","","","","",""
"","ITI","","html-keyboard-response","439","458590","0.0-1.0-648.0","0","0","82896","","null","","","null","71","","","","","","","","","","","","","","","NaN",""
"","S1","","html-keyboard-response","440","458852","0.0-1.0-650.0","0","0","82896","","null","","","null","72","","","","","","","","","","","","","","","",""
"","ISI","","html-keyboard-response","441","459367","0.0-1.0-651.0","0","0","82896","","null","","","null","72","NaN","","","","","","","","","","","","","","",""
"","S2","","html-keyboard-response","442","459422","0.0-1.0-652.0","0","0","82896","","53","","","68","72","","d","2","72","training","adjacent","GF","7","6","R.jpg","M.jpg","1","0","0","",""
"","feedback","","html-keyboard-response","443","460433","0.0-1.0-654.0-0.0","0","0","82896","","null","","","null","72","","","","","","","","","","","","","","","",""
"","time_out","","html-keyboard-response","444","462449","0.0-1.0-656.0-0.0","0","0","82896","","null","","","null","72","","","","","","","","","","","","","","","",""
"","ITI","","html-keyboard-response","445","463459","0.0-1.0-657.0","0","0","82896","","null","","","null","72","","","","","","","","","","","","","","","NaN",""
"","S1","","html-keyboard-response","446","463720","0.0-1.0-659.0","0","0","82896","","null","","","null","73","","","","","","","","","","","","","","","",""
"","ISI","","html-keyboard-response","447","464232","0.0-1.0-660.0","0","0","82896","","null","","","null","73","NaN","","","","","","","","","","","","","","",""
"","S2","","html-keyboard-response","448","464476","0.0-1.0-661.0","0","0","82896","","240","","","75","73","","k","2","73","training","adjacent","EF","5","6","P.jpg","M.jpg","0","1","0","",""
"","feedback","","html-keyboard-response","449","465481","0.0-1.0-663.0-0.0","0","0","82896","","null","","","null","73","","","","","","","","","","","","","","","",""
"","time_out","","html-keyboard-response","450","467492","0.0-1.0-665.0-0.0","0","0","82896","","null","","","null","73","","","","","","","","","","","","","","","",""
"","ITI","","html-keyboard-response","451","468515","0.0-1.0-666.0","0","0","82896","","null","","","null","73","","","","","","","","","","","","","","","NaN",""
"","S1","","html-keyboard-response","452","468775","0.0-1.0-668.0","0","0","82896","","null","","","null","74","","","","","","","","","","","","","","","",""
"","ISI","","html-keyboard-response","453","469287","0.0-1.0-669.0","0","0","82896","","null","","","null","74","NaN","","","","","","","","","","","","","","",""
"","S2","","html-keyboard-response","454","469405","0.0-1.0-670.0","0","0","82896","","115","","","68","74","","d","2","74","training","adjacent","GF","7","6","R.jpg","M.jpg","1","0","0","",""
"","feedback","","html-keyboard-response","455","470416","0.0-1.0-672.0-0.0","0","0","82896","","null","","","null","74","","","","","","","","","","","","","","","",""
"","time_out","","html-keyboard-response","456","472433","0.0-1.0-674.0-0.0","0","0","82896","","null","","","null","74","","","","","","","","","","","","","","","",""
"","ITI","","html-keyboard-response","457","473444","0.0-1.0-675.0","0","0","82896","","null","","","null","74","","","","","","","","","","","","","","","NaN",""
"","S1","","html-keyboard-response","458","473704","0.0-1.0-677.0","0","0","82896","","null","","","null","75","","","","","","","","","","","","","","","",""
"","ISI","","html-keyboard-response","459","474214","0.0-1.0-678.0","0","0","82896","","null","","","null","75","NaN","","","","","","","","","","","","","","",""
"","S2","","html-keyboard-response","460","474361","0.0-1.0-679.0","0","0","82896","","141","","","75","75","","k","2","75","training","adjacent","ED","5","4","P.jpg","Q.jpg","0","0","1","",""
"","feedback","","html-keyboard-response","461","475373","0.0-1.0-681.0-0.0","0","0","82896","","null","","","null","75","","","","","","","","","","","","","","","",""
"","ITI","","html-keyboard-response","462","476381","0.0-1.0-684.0","0","0","82896","","null","","","null","75","","","","","","","","","","","","","","","NaN",""
"","S1","","html-keyboard-response","463","476644","0.0-1.0-686.0","0","0","82896","","null","","","null","76","","","","","","","","","","","","","","","",""
"","ISI","","html-keyboard-response","464","477153","0.0-1.0-687.0","0","0","82896","","null","","","null","76","NaN","","","","","","","","","","","","","","",""
"","S2","","html-keyboard-response","465","477389","0.0-1.0-688.0","0","0","82896","","232","","","68","76","","d","2","76","training","adjacent","GF","7","6","R.jpg","M.jpg","1","0","0","",""
"","feedback","","html-keyboard-response","466","478400","0.0-1.0-690.0-0.0","0","0","82896","","null","","","null","76","","","","","","","","","","","","","","","",""
"","time_out","","html-keyboard-response","467","480416","0.0-1.0-692.0-0.0","0","0","82896","","null","","","null","76","","","","","","","","","","","","","","","",""
"","ITI","","html-keyboard-response","468","481428","0.0-1.0-693.0","0","0","82896","","null","","","null","76","","","","","","","","","","","","","","","NaN",""
"","S1","","html-keyboard-response","469","481687","0.0-1.0-695.0","0","0","82896","","null","","","null","77","","","","","","","","","","","","","","","",""
"","ISI","","html-keyboard-response","470","482199","0.0-1.0-696.0","0","0","82896","","null","","","null","77","NaN","","","","","","","","","","","","","","",""
"","S2","","html-keyboard-response","471","482461","0.0-1.0-697.0","0","0","82896","","null","","","null","77","","NaN","","","","","","","","","","","","","",""
"","response","","html-keyboard-response","472","482464","0.0-1.0-698.0-0.0","0","0","82896","","0","","","68","77","","","2","77","training","adjacent","DE","4","5","Q.jpg","P.jpg","1","1","1","",""
"","feedback","","html-keyboard-response","473","483475","0.0-1.0-699.0-0.0","0","0","82896","","null","","","null","77","","","","","","","","","","","","","","","",""
"","ITI","","html-keyboard-response","474","484483","0.0-1.0-702.0","0","0","82896","","null","","","null","77","","","","","","","","","","","","","","","NaN",""
"","S1","","html-keyboard-response","475","484739","0.0-1.0-704.0","0","0","82896","","null","","","null","78","","","","","","","","","","","","","","","",""
"","ISI","","html-keyboard-response","476","485251","0.0-1.0-705.0","0","0","82896","","null","","","null","78","NaN","","","","","","","","","","","","","","",""
"","S2","","html-keyboard-response","477","485427","0.0-1.0-706.0","0","0","82896","","174","","","75","78","","k","2","78","training","adjacent","FE","6","5","M.jpg","P.jpg","0","0","1","",""
"","feedback","","html-keyboard-response","478","486435","0.0-1.0-708.0-0.0","0","0","82896","","null","","","null","78","","","","","","","","","","","","","","","",""
"","ITI","","html-keyboard-response","479","487443","0.0-1.0-711.0","0","0","82896","","null","","","null","78","","","","","","","","","","","","","","","NaN",""
"","S1","","html-keyboard-response","480","487699","0.0-1.0-713.0","0","0","82896","","null","","","null","79","","","","","","","","","","","","","","","",""
"","ISI","","html-keyboard-response","481","488210","0.0-1.0-714.0","0","0","82896","","null","","","null","79","NaN","","","","","","","","","","","","","","",""
"","S2","","html-keyboard-response","482","488306","0.0-1.0-715.0","0","0","82896","","95","","","68","79","","d","2","79","training","adjacent","BA","2","1","N.jpg","O.jpg","1","0","0","",""
"","feedback","","html-keyboard-response","483","489309","0.0-1.0-717.0-0.0","0","0","82896","","null","","","null","79","","","","","","","","","","","","","","","",""
"","time_out","","html-keyboard-response","484","491319","0.0-1.0-719.0-0.0","0","0","82896","","null","","","null","79","","","","","","","","","","","","","","","",""
"","ITI","","html-keyboard-response","485","492332","0.0-1.0-720.0","0","0","82896","","null","","","null","79","","","","","","","","","","","","","","","NaN",""
"","S1","","html-keyboard-response","486","492595","0.0-1.0-722.0","0","0","82896","","null","","","null","80","","","","","","","","","","","","","","","",""
"","ISI","","html-keyboard-response","487","493110","0.0-1.0-723.0","0","0","82896","","null","","","null","80","NaN","","","","","","","","","","","","","","",""
"","S2","","html-keyboard-response","488","493224","0.0-1.0-724.0","0","0","82896","","108","","","68","80","","d","2","80","training","adjacent","BA","2","1","N.jpg","O.jpg","1","0","0","",""
"","feedback","","html-keyboard-response","489","494240","0.0-1.0-726.0-0.0","0","0","82896","","null","","","null","80","","","","","","","","","","","","","","","",""
"","time_out","","html-keyboard-response","490","496256","0.0-1.0-728.0-0.0","0","0","82896","","null","","","null","80","","","","","","","","","","","","","","","",""
"","ITI","","html-keyboard-response","491","497266","0.0-1.0-729.0","0","0","82896","","null","","","null","80","","","","","","","","","","","","","","","NaN",""
"","S1","","html-keyboard-response","492","497523","0.0-1.0-731.0","0","0","82896","","null","","","null","81","","","","","","","","","","","","","","","",""
"","ISI","","html-keyboard-response","493","498039","0.0-1.0-732.0","0","0","82896","","null","","","null","81","NaN","","","","","","","","","","","","","","",""
"","S2","","html-keyboard-response","494","498254","0.0-1.0-733.0","0","0","82896","","209","","","75","81","","k","2","81","training","adjacent","CD","3","4","L.jpg","Q.jpg","0","1","0","",""
"","feedback","","html-keyboard-response","495","499269","0.0-1.0-735.0-0.0","0","0","82896","","null","","","null","81","","","","","","","","","","","","","","","",""
"","time_out","","html-keyboard-response","496","501287","0.0-1.0-737.0-0.0","0","0","82896","","null","","","null","81","","","","","","","","","","","","","","","",""
"","ITI","","html-keyboard-response","497","502304","0.0-1.0-738.0","0","0","82896","","null","","","null","81","","","","","","","","","","","","","","","NaN",""
"","S1","","html-keyboard-response","498","502561","0.0-1.0-740.0","0","0","82896","","null","","","null","82","","","","","","","","","","","","","","","",""
"","ISI","","html-keyboard-response","499","503068","0.0-1.0-741.0","0","0","82896","","null","","","null","82","NaN","","","","","","","","","","","","","","",""
"","S2","","html-keyboard-response","500","503163","0.0-1.0-742.0","0","0","82896","","89","","","75","82","","k","2","82","training","adjacent","BC","2","3","N.jpg","L.jpg","0","1","0","",""
"","feedback","","html-keyboard-response","501","504176","0.0-1.0-744.0-0.0","0","0","82896","","null","","","null","82","","","","","","","","","","","","","","","",""
"","time_out","","html-keyboard-response","502","506192","0.0-1.0-746.0-0.0","0","0","82896","","null","","","null","82","","","","","","","","","","","","","","","",""
"","ITI","","html-keyboard-response","503","507200","0.0-1.0-747.0","0","0","82896","","null","","","null","82","","","","","","","","","","","","","","","NaN",""
"","S1","","html-keyboard-response","504","507452","0.0-1.0-749.0","0","0","82896","","null","","","null","83","","","","","","","","","","","","","","","",""
"","ISI","","html-keyboard-response","505","507964","0.0-1.0-750.0","0","0","82896","","null","","","null","83","NaN","","","","","","","","","","","","","","",""
"","S2","","html-keyboard-response","506","507984","0.0-1.0-751.0","0","0","82896","","17","","","68","83","","d","2","83","training","adjacent","CD","3","4","L.jpg","Q.jpg","1","1","1","",""
"","feedback","","html-keyboard-response","507","508998","0.0-1.0-753.0-0.0","0","0","82896","","null","","","null","83","","","","","","","","","","","","","","","",""
"","ITI","","html-keyboard-response","508","510015","0.0-1.0-756.0","0","0","82896","","null","","","null","83","","","","","","","","","","","","","","","NaN",""
"","S1","","html-keyboard-response","509","510278","0.0-1.0-758.0","0","0","82896","","null","","","null","84","","","","","","","","","","","","","","","",""
"","ISI","","html-keyboard-response","510","510790","0.0-1.0-759.0","0","0","82896","","null","","","null","84","NaN","","","","","","","","","","","","","","",""
"","S2","","html-keyboard-response","511","510907","0.0-1.0-760.0","0","0","82896","","111","","","75","84","","k","2","84","training","adjacent","FE","6","5","M.jpg","P.jpg","0","0","1","",""
"","feedback","","html-keyboard-response","512","511915","0.0-1.0-762.0-0.0","0","0","82896","","null","","","null","84","","","","","","","","","","","","","","","",""
"","ITI","","html-keyboard-response","513","512927","0.0-1.0-765.0","0","0","82896","","null","","","null","84","","","","","","","","","","","","","","","NaN",""
"","S1","","html-keyboard-response","514","513190","0.0-1.0-767.0","0","0","82896","","null","","","null","85","","","","","","","","","","","","","","","",""
"","ISI","","html-keyboard-response","515","513702","0.0-1.0-768.0","0","0","82896","","null","","","null","85","NaN","","","","","","","","","","","","","","",""
"","S2","","html-keyboard-response","516","513956","0.0-1.0-769.0","0","0","82896","","248","","","68","85","","d","2","85","training","adjacent","FG","6","7","M.jpg","R.jpg","1","1","1","",""
"","feedback","","html-keyboard-response","517","514964","0.0-1.0-771.0-0.0","0","0","82896","","null","","","null","85","","","","","","","","","","","","","","","",""
"","ITI","","html-keyboard-response","518","515974","0.0-1.0-774.0","0","0","82896","","null","","","null","85","","","","","","","","","","","","","","","NaN",""
"","S1","","html-keyboard-response","519","516239","0.0-1.0-776.0","0","0","82896","","null","","","null","86","","","","","","","","","","","","","","","",""
"","ISI","","html-keyboard-response","520","516749","0.0-1.0-777.0","0","0","82896","","null","","","null","86","NaN","","","","","","","","","","","","","","",""
"","S2","","html-keyboard-response","521","516878","0.0-1.0-778.0","0","0","82896","","124","","","75","86","","k","2","86","training","adjacent","BC","2","3","N.jpg","L.jpg","0","1","0","",""
"","feedback","","html-keyboard-response","522","517894","0.0-1.0-780.0-0.0","0","0","82896","","null","","","null","86","","","","","","","","","","","","","","","",""
"","time_out","","html-keyboard-response","523","519903","0.0-1.0-782.0-0.0","0","0","82896","","null","","","null","86","","","","","","","","","","","","","","","",""
"","ITI","","html-keyboard-response","524","520916","0.0-1.0-783.0","0","0","82896","","null","","","null","86","","","","","","","","","","","","","","","NaN",""
"","S1","","html-keyboard-response","525","521183","0.0-1.0-785.0","0","0","82896","","null","","","null","87","","","","","","","","","","","","","","","",""
"","ISI","","html-keyboard-response","526","521695","0.0-1.0-786.0","0","0","82896","","72","","","75","87","k","","","","","","","","","","","","","","",""
"","S2","","html-keyboard-response","527","521701","0.0-1.0-787.0","0","0","82896","","4","","","75","87","","k","2","87","training","adjacent","CB","3","2","L.jpg","N.jpg","0","0","1","",""
"","feedback","","html-keyboard-response","528","522716","0.0-1.0-789.0-0.0","0","0","82896","","null","","","null","87","","","","","","","","","","","","","","","",""
"","ITI","","html-keyboard-response","529","523727","0.0-1.0-792.0","0","0","82896","","null","","","null","87","","","","","","","","","","","","","","","NaN",""
"","S1","","html-keyboard-response","530","523990","0.0-1.0-794.0","0","0","82896","","null","","","null","88","","","","","","","","","","","","","","","",""
"","ISI","","html-keyboard-response","531","524499","0.0-1.0-795.0","0","0","82896","","null","","","null","88","NaN","","","","","","","","","","","","","","",""
"","S2","","html-keyboard-response","532","524731","0.0-1.0-796.0","0","0","82896","","230","","","68","88","","d","2","88","training","adjacent","FE","6","5","M.jpg","P.jpg","1","0","0","",""
"","feedback","","html-keyboard-response","533","525743","0.0-1.0-798.0-0.0","0","0","82896","","null","","","null","88","","","","","","","","","","","","","","","",""
"","time_out","","html-keyboard-response","534","527750","0.0-1.0-800.0-0.0","0","0","82896","","null","","","null","88","","","","","","","","","","","","","","","",""
"","ITI","","html-keyboard-response","535","528762","0.0-1.0-801.0","0","0","82896","","null","","","null","88","","","","","","","","","","","","","","","NaN",""
"","S1","","html-keyboard-response","536","529023","0.0-1.0-803.0","0","0","82896","","null","","","null","89","","","","","","","","","","","","","","","",""
"","ISI","","html-keyboard-response","537","529531","0.0-1.0-804.0","0","0","82896","","476","","","68","89","d","","","","","","","","","","","","","","",""
"","S2","","html-keyboard-response","538","529798","0.0-1.0-805.0","0","0","82896","","null","","","null","89","","NaN","","","","","","","","","","","","","",""
"","response","","html-keyboard-response","539","530038","0.0-1.0-806.0-0.0","0","0","82896","","235","","","68","89","","","2","89","training","adjacent","BC","2","3","N.jpg","L.jpg","1","1","1","",""
"","feedback","","html-keyboard-response","540","531055","0.0-1.0-807.0-0.0","0","0","82896","","null","","","null","89","","","","","","","","","","","","","","","",""
"","ITI","","html-keyboard-response","541","532068","0.0-1.0-810.0","0","0","82896","","null","","","null","89","","","","","","","","","","","","","","","NaN",""
"","S1","","html-keyboard-response","542","532335","0.0-1.0-812.0","0","0","82896","","null","","","null","90","","","","","","","","","","","","","","","",""
"","ISI","","html-keyboard-response","543","532847","0.0-1.0-813.0","0","0","82896","","null","","","null","90","NaN","","","","","","","","","","","","","","",""
"","S2","","html-keyboard-response","544","533022","0.0-1.0-814.0","0","0","82896","","169","","","75","90","","k","2","90","training","adjacent","DC","4","3","Q.jpg","L.jpg","0","0","1","",""
"","feedback","","html-keyboard-response","545","534038","0.0-1.0-816.0-0.0","0","0","82896","","null","","","null","90","","","","","","","","","","","","","","","",""
"","ITI","","html-keyboard-response","546","535055","0.0-1.0-819.0","0","0","82896","","null","","","null","90","","","","","","","","","","","","","","","NaN",""
"","S1","","html-keyboard-response","547","535317","0.0-1.0-821.0","0","0","82896","","null","","","null","91","","","","","","","","","","","","","","","",""
"","ISI","","html-keyboard-response","548","535822","0.0-1.0-822.0","0","0","82896","","367","","","68","91","d","","","","","","","","","","","","","","",""
"","S2","","html-keyboard-response","549","536052","0.0-1.0-823.0","0","0","82896","","228","","","68","91","","d","2","91","training","adjacent","ED","5","4","P.jpg","Q.jpg","1","0","0","",""
"","feedback","","html-keyboard-response","550","537055","0.0-1.0-825.0-0.0","0","0","82896","","null","","","null","91","","","","","","","","","","","","","","","",""
"","time_out","","html-keyboard-response","551","539067","0.0-1.0-827.0-0.0","0","0","82896","","null","","","null","91","","","","","","","","","","","","","","","",""
"","ITI","","html-keyboard-response","552","540078","0.0-1.0-828.0","0","0","82896","","null","","","null","91","","","","","","","","","","","","","","","NaN",""
"","S1","","html-keyboard-response","553","540341","0.0-1.0-830.0","0","0","82896","","null","","","null","92","","","","","","","","","","","","","","","",""
"","ISI","","html-keyboard-response","554","540847","0.0-1.0-831.0","0","0","82896","","null","","","null","92","NaN","","","","","","","","","","","","","","",""
"","S2","","html-keyboard-response","555","541093","0.0-1.0-832.0","0","0","82896","","239","","","75","92","","k","2","92","training","adjacent","CB","3","2","L.jpg","N.jpg","0","0","1","",""
"","feedback","","html-keyboard-response","556","542110","0.0-1.0-834.0-0.0","0","0","82896","","null","","","null","92","","","","","","","","","","","","","","","",""
"","ITI","","html-keyboard-response","557","543125","0.0-1.0-837.0","0","0","82896","","null","","","null","92","","","","","","","","","","","","","","","NaN",""
"","S1","","html-keyboard-response","558","543387","0.0-1.0-839.0","0","0","82896","","null","","","null","93","","","","","","","","","","","","","","","",""
"","ISI","","html-keyboard-response","559","543902","0.0-1.0-840.0","0","0","82896","","null","","","null","93","NaN","","","","","","","","","","","","","","",""
"","S2","","html-keyboard-response","560","543989","0.0-1.0-841.0","0","0","82896","","81","","","68","93","","d","2","93","training","adjacent","DC","4","3","Q.jpg","L.jpg","1","0","0","",""
"","feedback","","html-keyboard-response","561","545003","0.0-1.0-843.0-0.0","0","0","82896","","null","","","null","93","","","","","","","","","","","","","","","",""
"","time_out","","html-keyboard-response","562","547009","0.0-1.0-845.0-0.0","0","0","82896","","null","","","null","93","","","","","","","","","","","","","","","",""
"","ITI","","html-keyboard-response","563","548018","0.0-1.0-846.0","0","0","82896","","null","","","null","93","","","","","","","","","","","","","","","NaN",""
"","S1","","html-keyboard-response","564","548273","0.0-1.0-848.0","0","0","82896","","null","","","null","94","","","","","","","","","","","","","","","",""
"","ISI","","html-keyboard-response","565","548785","0.0-1.0-849.0","0","0","82896","","null","","","null","94","NaN","","","","","","","","","","","","","","",""
"","S2","","html-keyboard-response","566","548881","0.0-1.0-850.0","0","0","82896","","95","","","75","94","","k","2","94","training","adjacent","DE","4","5","Q.jpg","P.jpg","0","1","0","",""
"","feedback","","html-keyboard-response","567","549893","0.0-1.0-852.0-0.0","0","0","82896","","null","","","null","94","","","","","","","","","","","","","","","",""
"","time_out","","html-keyboard-response","568","551902","0.0-1.0-854.0-0.0","0","0","82896","","null","","","null","94","","","","","","","","","","","","","","","",""
"","ITI","","html-keyboard-response","569","552915","0.0-1.0-855.0","0","0","82896","","null","","","null","94","","","","","","","","","","","","","","","NaN",""
"","S1","","html-keyboard-response","570","553182","0.0-1.0-857.0","0","0","82896","","null","","","null","95","","","","","","","","","","","","","","","",""
"","ISI","","html-keyboard-response","571","553694","0.0-1.0-858.0","0","0","82896","","null","","","null","95","NaN","","","","","","","","","","","","","","",""
"","S2","","html-keyboard-response","572","553791","0.0-1.0-859.0","0","0","82896","","91","","","68","95","","d","2","95","training","adjacent","FE","6","5","M.jpg","P.jpg","1","0","0","",""
"","feedback","","html-keyboard-response","573","554805","0.0-1.0-861.0-0.0","0","0","82896","","null","","","null","95","","","","","","","","","","","","","","","",""
"","time_out","","html-keyboard-response","574","556821","0.0-1.0-863.0-0.0","0","0","82896","","null","","","null","95","","","","","","","","","","","","","","","",""
"","ITI","","html-keyboard-response","575","557838","0.0-1.0-864.0","0","0","82896","","null","","","null","95","","","","","","","","","","","","","","","NaN",""
"","block_over","","html-keyboard-response","576","563305","0.0-1.0-865.0-0.0","0","0","82896","","5460","","","32","95","","","","","","","","","","","","","","","",""
"","S1","","html-keyboard-response","577","563558","0.0-1.0-866.0","0","0","82896","","null","","","null","96","","","","","","","","","","","","","","","",""
"","ISI","","html-keyboard-response","578","564067","0.0-1.0-867.0","0","0","82896","","null","","","null","96","NaN","","","","","","","","","","","","","","",""
"","S2","","html-keyboard-response","579","564330","0.0-1.0-868.0","0","0","82896","","null","","","null","96","","NaN","","","","","","","","","","","","","",""
"","response","","html-keyboard-response","580","564590","0.0-1.0-869.0-0.0","0","0","82896","","258","","","68","96","","","3","96","training","adjacent","EF","5","6","P.jpg","M.jpg","1","1","1","",""
"","feedback","","html-keyboard-response","581","565601","0.0-1.0-870.0-0.0","0","0","82896","","null","","","null","96","","","","","","","","","","","","","","","",""
