"success","ttype","start_time","trial_type","trial_index","time_elapsed","internal_node_id","warning","missed_checkup","PID","view_history","rt","responses","repeat_instructions","key_press","index","keypress_isi","keypress_S2","block","trial_num","phase","group_type","pair_type","S1_stim","S2_stim","S1_img","S2_img","S1_chosen","S1_higher","accuracy","keypress_iti","total_bonus_tally"
"true","full_screen","d08052022hr1632","fullscreen","0","3802","0.0-0.0","0","0","26119","","","","","","","","","","","","","","","","","","","","","",""
"","instructions","","instructions","1","43119","0.0-1.0-0.0-0.0","0","0","26119","[{""page_index"":0,""viewing_time"":4365},{""page_index"":1,""viewing_time"":17066},{""page_index"":2,""viewing_time"":5145},{""page_index"":1,""viewing_time"":8225},{""page_index"":2,""viewing_time"":3368},{""page_index"":3,""viewing_time"":1145}]","39315","","","","","","","","","","","","","","","","","","","",""
"","comprehension_check","","survey-multi-choice","2","64850","0.0-1.0-0.0-1.0","0","0","26119","","21725","{""Q0"":""True"",""Q1"":""D"",""Q2"":""Only when the screen 'MAKE A CHOICE' is shown"",""Q3"":""Green mark"",""Q4"":""either D or K""}","1","","","","","","","","","","","","","","","","","",""
"","missed_instruction_checkup","","html-keyboard-response","3","67098","0.0-1.0-0.0-2.0-0.0","0","1","26119","","2245","","","32","","","","","","","","","","","","","","","","",""
"","instructions","","instructions","4","81627","0.0-1.0-0.1-0.1","0","0","26119","[{""page_index"":0,""viewing_time"":2838},{""page_index"":1,""viewing_time"":5344},{""page_index"":2,""viewing_time"":1569},{""page_index"":1,""viewing_time"":2576},{""page_index"":2,""viewing_time"":1504},{""page_index"":3,""viewing_time"":697}]","14528","","","","","","","","","","","","","","","","","","","",""
"","comprehension_check","","survey-multi-choice","5","95037","0.0-1.0-0.1-1.1","0","0","26119","","13404","{""Q0"":""True"",""Q1"":""K"",""Q2"":""Once the second image appears and while the screen 'MAKE A CHOICE' is shown"",""Q3"":""Green mark"",""Q4"":""either D or K""}","0","","","","","","","","","","","","","","","","","",""
"","start_exp","","html-keyboard-response","6","96949","0.0-1.0-1.0","0","0","26119","","1910","","","32","","","","","","","","","","","","","","","","",""
"","S1","","html-keyboard-response","7","97203","0.0-1.0-2.0","0","0","26119","","null","","","null","0","","","","","","","","","","","","","","","",""
"","ISI","","html-keyboard-response","8","99207","0.0-1.0-3.0","0","0","26119","","null","","","null","0","NaN","","","","","","","","","","","","","","",""
"","S2","","html-keyboard-response","9","99461","0.0-1.0-4.0","0","0","26119","","null","","","null","0","","NaN","","","","","","","","","","","","","",""
"","response","","html-keyboard-response","10","99909","0.0-1.0-5.0-0.0","0","0","26119","","446","","","75","0","","","1","0","training","adjacent","BC","2","3","P.jpg","N.jpg","1","1","1","",""
"","feedback","","html-keyboard-response","11","100911","0.0-1.0-6.0-0.0","0","0","26119","","null","","","null","0","","","","","","","","","","","","","","","",""
"","ITI","","html-keyboard-response","12","101916","0.0-1.0-9.0","0","0","26119","","null","","","null","0","","","","","","","","","","","","","","","NaN",""
"","S1","","html-keyboard-response","13","102171","0.0-1.0-11.0","0","0","26119","","null","","","null","1","","","","","","","","","","","","","","","",""
"","ISI","","html-keyboard-response","14","104174","0.0-1.0-12.0","0","0","26119","","null","","","null","1","NaN","","","","","","","","","","","","","","",""
"","S2","","html-keyboard-response","15","104430","0.0-1.0-13.0","0","0","26119","","null","","","null","1","","NaN","","","","","","","","","","","","","",""
"","response","","html-keyboard-response","16","104626","0.0-1.0-14.0-0.0","0","0","26119","","193","","","68","1","","","1","1","training","adjacent","EF","5","6","Q.jpg","R.jpg","0","1","0","",""
"","feedback","","html-keyboard-response","17","105630","0.0-1.0-15.0-0.0","0","0","26119","","null","","","null","1","","","","","","","","","","","","","","","",""
"","time_out","","html-keyboard-response","18","107634","0.0-1.0-17.0-0.0","0","0","26119","","null","","","null","1","","","","","","","","","","","","","","","",""
"","ITI","","html-keyboard-response","19","108636","0.0-1.0-18.0","0","0","26119","","null","","","null","1","","","","","","","","","","","","","","","NaN",""
"","S1","","html-keyboard-response","20","108888","0.0-1.0-20.0","0","0","26119","","null","","","null","2","","","","","","","","","","","","","","","",""
"","ISI","","html-keyboard-response","21","110893","0.0-1.0-21.0","0","0","26119","","null","","","null","2","NaN","","","","","","","","","","","","","","",""
"","S2","","html-keyboard-response","22","111150","0.0-1.0-22.0","0","0","26119","","null","","","null","2","","NaN","","","","","","","","","","","","","",""
"","response","","html-keyboard-response","23","111699","0.0-1.0-23.0-0.0","0","0","26119","","548","","","75","2","","","1","2","training","adjacent","FE","6","5","R.jpg","Q.jpg","1","0","0","",""
"","feedback","","html-keyboard-response","24","112702","0.0-1.0-24.0-0.0","0","0","26119","","null","","","null","2","","","","","","","","","","","","","","","",""
"","time_out","","html-keyboard-response","25","114705","0.0-1.0-26.0-0.0","0","0","26119","","null","","","null","2","","","","","","","","","","","","","","","",""
"","ITI","","html-keyboard-response","26","115708","0.0-1.0-27.0","0","0","26119","","null","","","null","2","","","","","","","","","","","","","","","NaN",""
"","S1","","html-keyboard-response","27","115961","0.0-1.0-29.0","0","0","26119","","null","","","null","3","","","","","","","","","","","","","","","",""
"","ISI","","html-keyboard-response","28","117964","0.0-1.0-30.0","0","0","26119","","null","","","null","3","NaN","","","","","","","","","","","","","","",""
"","S2","","html-keyboard-response","29","118219","0.0-1.0-31.0","0","0","26119","","null","","","null","3","","NaN","","","","","","","","","","","","","",""
"","response","","html-keyboard-response","30","118828","0.0-1.0-32.0-0.0","0","0","26119","","607","","","75","3","","","1","3","training","adjacent","AB","1","2","L.jpg","P.jpg","1","1","1","",""
"","feedback","","html-keyboard-response","31","119832","0.0-1.0-33.0-0.0","0","0","26119","","null","","","null","3","","","","","","","","","","","","","","","",""
"","ITI","","html-keyboard-response","32","120835","0.0-1.0-36.0","0","0","26119","","null","","","null","3","","","","","","","","","","","","","","","NaN",""
"","S1","","html-keyboard-response","33","121097","0.0-1.0-38.0","0","0","26119","","null","","","null","4","","","","","","","","","","","","","","","",""
"","ISI","","html-keyboard-response","34","123100","0.0-1.0-39.0","0","0","26119","","null","","","null","4","NaN","","","","","","","","","","","","","","",""
"","S2","","html-keyboard-response","35","123354","0.0-1.0-40.0","0","0","26119","","null","","","null","4","","NaN","","","","","","","","","","","","","",""
"","response","","html-keyboard-response","36","123358","0.0-1.0-41.0-0.0","0","0","26119","","1","","","75","4","","","1","4","training","adjacent","BA","2","1","P.jpg","L.jpg","1","0","0","",""
"","feedback","","html-keyboard-response","37","124362","0.0-1.0-42.0-0.0","0","0","26119","","null","","","null","4","","","","","","","","","","","","","","","",""
"","time_out","","html-keyboard-response","38","126365","0.0-1.0-44.0-0.0","0","0","26119","","null","","","null","4","","","","","","","","","","","","","","","",""
"","ITI","","html-keyboard-response","39","127369","0.0-1.0-45.0","0","0","26119","","null","","","null","4","","","","","","","","","","","","","","","NaN",""
"","S1","","html-keyboard-response","40","127623","0.0-1.0-47.0","0","0","26119","","null","","","null","5","","","","","","","","","","","","","","","",""
"","ISI","","html-keyboard-response","41","129628","0.0-1.0-48.0","0","0","26119","","null","","","null","5","NaN","","","","","","","","","","","","","","",""
"","S2","","html-keyboard-response","42","129881","0.0-1.0-49.0","0","0","26119","","null","","","null","5","","NaN","","","","","","","","","","","","","",""
"","response","","html-keyboard-response","43","129958","0.0-1.0-50.0-0.0","0","0","26119","","76","","","68","5","","","1","5","training","adjacent","CD","3","4","N.jpg","O.jpg","0","1","0","",""
"","feedback","","html-keyboard-response","44","130960","0.0-1.0-51.0-0.0","0","0","26119","","null","","","null","5","","","","","","","","","","","","","","","",""
"","time_out","","html-keyboard-response","45","132963","0.0-1.0-53.0-0.0","0","0","26119","","null","","","null","5","","","","","","","","","","","","","","","",""
"","ITI","","html-keyboard-response","46","133967","0.0-1.0-54.0","0","0","26119","","null","","","null","5","","","","","","","","","","","","","","","NaN",""
"","S1","","html-keyboard-response","47","134221","0.0-1.0-56.0","0","0","26119","","null","","","null","6","","","","","","","","","","","","","","","",""
"","ISI","","html-keyboard-response","48","136225","0.0-1.0-57.0","0","0","26119","","null","","","null","6","NaN","","","","","","","","","","","","","","",""
"","S2","","html-keyboard-response","49","136480","0.0-1.0-58.0","0","0","26119","","null","","","null","6","","NaN","","","","","","","","","","","","","",""
"","response","","html-keyboard-response","50","136818","0.0-1.0-59.0-0.0","0","0","26119","","335","","","68","6","","","1","6","training","adjacent","DC","4","3","O.jpg","N.jpg","0","0","1","",""
"","feedback","","html-keyboard-response","51","137821","0.0-1.0-60.0-0.0","0","0","26119","","null","","","null","6","","","","","","","","","","","","","","","",""
"","ITI","","html-keyboard-response","52","138824","0.0-1.0-63.0","0","0","26119","","null","","","null","6","","","","","","","","","","","","","","","NaN",""
"","S1","","html-keyboard-response","53","139076","0.0-1.0-65.0","0","0","26119","","null","","","null","7","","","","","","","","","","","","","","","",""
"","ISI","","html-keyboard-response","54","141078","0.0-1.0-66.0","0","0","26119","","null","","","null","7","NaN","","","","","","","","","","","","","","",""
"","S2","","html-keyboard-response","55","141331","0.0-1.0-67.0","0","0","26119","","null","","","null","7","","NaN","","","","","","","","","","","","","",""
"","response","","html-keyboard-response","56","141687","0.0-1.0-68.0-0.0","0","0","26119","","353","","","75","7","","","1","7","training","adjacent","CD","3","4","N.jpg","O.jpg","1","1","1","",""
"","feedback","","html-keyboard-response","57","142692","0.0-1.0-69.0-0.0","0","0","26119","","null","","","null","7","","","","","","","","","","","","","","","",""
"","ITI","","html-keyboard-response","58","143696","0.0-1.0-72.0","0","0","26119","","null","","","null","7","","","","","","","","","","","","","","","NaN",""
"","S1","","html-keyboard-response","59","143948","0.0-1.0-74.0","0","0","26119","","null","","","null","8","","","","","","","","","","","","","","","",""
"","ISI","","html-keyboard-response","60","145951","0.0-1.0-75.0","0","0","26119","","null","","","null","8","NaN","","","","","","","","","","","","","","",""
"","S2","","html-keyboard-response","61","146205","0.0-1.0-76.0","0","0","26119","","null","","","null","8","","NaN","","","","","","","","","","","","","",""
"","response","","html-keyboard-response","62","146716","0.0-1.0-77.0-0.0","0","0","26119","","509","","","68","8","","","1","8","training","adjacent","CB","3","2","N.jpg","P.jpg","0","0","1","",""
"","feedback","","html-keyboard-response","63","147720","0.0-1.0-78.0-0.0","0","0","26119","","null","","","null","8","","","","","","","","","","","","","","","",""
"","ITI","","html-keyboard-response","64","148722","0.0-1.0-81.0","0","0","26119","","null","","","null","8","","","","","","","","","","","","","","","NaN",""
"","S1","","html-keyboard-response","65","148974","0.0-1.0-83.0","0","0","26119","","null","","","null","9","","","","","","","","","","","","","","","",""
"","ISI","","html-keyboard-response","66","150976","0.0-1.0-84.0","0","0","26119","","null","","","null","9","NaN","","","","","","","","","","","","","","",""
"","S2","","html-keyboard-response","67","151136","0.0-1.0-85.0","0","0","26119","","158","","","75","9","","k","1","9","training","adjacent","GF","7","6","M.jpg","R.jpg","1","0","0","",""
"","feedback","","html-keyboard-response","68","152139","0.0-1.0-87.0-0.0","0","0","26119","","null","","","null","9","","","","","","","","","","","","","","","",""
"","time_out","","html-keyboard-response","69","154142","0.0-1.0-89.0-0.0","0","0","26119","","null","","","null","9","","","","","","","","","","","","","","","",""
"","ITI","","html-keyboard-response","70","155144","0.0-1.0-90.0","0","0","26119","","null","","","null","9","","","","","","","","","","","","","","","NaN",""
"","S1","","html-keyboard-response","71","155398","0.0-1.0-92.0","0","0","26119","","null","","","null","10","","","","","","","","","","","","","","","",""
"","ISI","","html-keyboard-response","72","157402","0.0-1.0-93.0","0","0","26119","","null","","","null","10","NaN","","","","","","","","","","","","","","",""
"","S2","","html-keyboard-response","73","157655","0.0-1.0-94.0","0","0","26119","","null","","","null","10","","NaN","","","","","","","","","","","","","",""
"","response","","html-keyboard-response","74","157826","0.0-1.0-95.0-0.0","0","0","26119","","169","","","68","10","","","1","10","training","adjacent","AB","1","2","L.jpg","P.jpg","0","1","0","",""
"","feedback","","html-keyboard-response","75","158829","0.0-1.0-96.0-0.0","0","0","26119","","null","","","null","10","","","","","","","","","","","","","","","",""
"","time_out","","html-keyboard-response","76","160833","0.0-1.0-98.0-0.0","0","0","26119","","null","","","null","10","","","","","","","","","","","","","","","",""
"","ITI","","html-keyboard-response","77","161837","0.0-1.0-99.0","0","0","26119","","null","","","null","10","","","","","","","","","","","","","","","NaN",""
"","S1","","html-keyboard-response","78","162091","0.0-1.0-101.0","0","0","26119","","null","","","null","11","","","","","","","","","","","","","","","",""
"","ISI","","html-keyboard-response","79","164094","0.0-1.0-102.0","0","0","26119","","null","","","null","11","NaN","","","","","","","","","","","","","","",""
"","S2","","html-keyboard-response","80","164348","0.0-1.0-103.0","0","0","26119","","null","","","null","11","","NaN","","","","","","","","","","","","","",""
"","response","","html-keyboard-response","81","164453","0.0-1.0-104.0-0.0","0","0","26119","","103","","","75","11","","","1","11","training","adjacent","BC","2","3","P.jpg","N.jpg","1","1","1","",""
"","feedback","","html-keyboard-response","82","165456","0.0-1.0-105.0-0.0","0","0","26119","","null","","","null","11","","","","","","","","","","","","","","","",""
"","ITI","","html-keyboard-response","83","166459","0.0-1.0-108.0","0","0","26119","","null","","","null","11","","","","","","","","","","","","","","","NaN",""
"","S1","","html-keyboard-response","84","166713","0.0-1.0-110.0","0","0","26119","","null","","","null","12","","","","","","","","","","","","","","","",""
"","ISI","","html-keyboard-response","85","168716","0.0-1.0-111.0","0","0","26119","","null","","","null","12","NaN","","","","","","","","","","","","","","",""
"","S2","","html-keyboard-response","86","168971","0.0-1.0-112.0","0","0","26119","","null","","","null","12","","NaN","","","","","","","","","","","","","",""
"","response","","html-keyboard-response","87","169332","0.0-1.0-113.0-0.0","0","0","26119","","359","","","75","12","","","1","12","training","adjacent","EF","5","6","Q.jpg","R.jpg","1","1","1","",""
"","feedback","","html-keyboard-response","88","170335","0.0-1.0-114.0-0.0","0","0","26119","","null","","","null","12","","","","","","","","","","","","","","","",""
"","ITI","","html-keyboard-response","89","171339","0.0-1.0-117.0","0","0","26119","","null","","","null","12","","","","","","","","","","","","","","","NaN",""
"","S1","","html-keyboard-response","90","171593","0.0-1.0-119.0","0","0","26119","","null","","","null","13","","","","","","","","","","","","","","","",""
"","ISI","","html-keyboard-response","91","173596","0.0-1.0-120.0","0","0","26119","","null","","","null","13","NaN","","","","","","","","","","","","","","",""
"","S2","","html-keyboard-response","92","173849","0.0-1.0-121.0","0","0","26119","","null","","","null","13","","NaN","","","","","","","","","","","","","",""
"","response","","html-keyboard-response","93","174169","0.0-1.0-122.0-0.0","0","0","26119","","319","","","68","13","","","1","13","training","adjacent","BA","2","1","P.jpg","L.jpg","0","0","1","",""
"","feedback","","html-keyboard-response","94","175171","0.0-1.0-123.0-0.0","0","0","26119","","null","","","null","13","","","","","","","","","","","","","","","",""
"","ITI","","html-keyboard-response","95","176173","0.0-1.0-126.0","0","0","26119","","null","","","null","13","","","","","","","","","","","","","","","NaN",""
"","S1","","html-keyboard-response","96","176426","0.0-1.0-128.0","0","0","26119","","null","","","null","14","","","","","","","","","","","","","","","",""
"","ISI","","html-keyboard-response","97","178429","0.0-1.0-129.0","0","0","26119","","null","","","null","14","NaN","","","","","","","","","","","","","","",""
"","S2","","html-keyboard-response","98","178682","0.0-1.0-130.0","0","0","26119","","null","","","null","14","","NaN","","","","","","","","","","","","","",""
"","response","","html-keyboard-response","99","178771","0.0-1.0-131.0-0.0","0","0","26119","","86","","","75","14","","","1","14","training","adjacent","DC","4","3","O.jpg","N.jpg","1","0","0","",""
"","feedback","","html-keyboard-response","100","179773","0.0-1.0-132.0-0.0","0","0","26119","","null","","","null","14","","","","","","","","","","","","","","","",""
"","time_out","","html-keyboard-response","101","181775","0.0-1.0-134.0-0.0","0","0","26119","","null","","","null","14","","","","","","","","","","","","","","","",""
"","ITI","","html-keyboard-response","102","182778","0.0-1.0-135.0","0","0","26119","","null","","","null","14","","","","","","","","","","","","","","","NaN",""
"","S1","","html-keyboard-response","103","183031","0.0-1.0-137.0","0","0","26119","","null","","","null","15","","","","","","","","","","","","","","","",""
"","ISI","","html-keyboard-response","104","185034","0.0-1.0-138.0","0","0","26119","","null","","","null","15","NaN","","","","","","","","","","","","","","",""
"","S2","","html-keyboard-response","105","185288","0.0-1.0-139.0","0","0","26119","","null","","","null","15","","NaN","","","","","","","","","","","","","",""
"","response","","html-keyboard-response","106","185847","0.0-1.0-140.0-0.0","0","0","26119","","557","","","68","15","","","1","15","training","adjacent","CB","3","2","N.jpg","P.jpg","0","0","1","",""
"","feedback","","html-keyboard-response","107","186851","0.0-1.0-141.0-0.0","0","0","26119","","null","","","null","15","","","","","","","","","","","","","","","",""
"","ITI","","html-keyboard-response","108","187853","0.0-1.0-144.0","0","0","26119","","null","","","null","15","","","","","","","","","","","","","","","NaN",""
"","S1","","html-keyboard-response","109","188106","0.0-1.0-146.0","0","0","26119","","null","","","null","16","","","","","","","","","","","","","","","",""
"","ISI","","html-keyboard-response","110","190110","0.0-1.0-147.0","0","0","26119","","null","","","null","16","NaN","","","","","","","","","","","","","","",""
"","S2","","html-keyboard-response","111","190365","0.0-1.0-148.0","0","0","26119","","null","","","null","16","","NaN","","","","","","","","","","","","","",""
"","response","","html-keyboard-response","112","190755","0.0-1.0-149.0-0.0","0","0","26119","","386","","","68","16","","","1","16","training","adjacent","DE","4","5","O.jpg","Q.jpg","0","1","0","",""
"","feedback","","html-keyboard-response","113","191757","0.0-1.0-150.0-0.0","0","0","26119","","null","","","null","16","","","","","","","","","","","","","","","",""
"","time_out","","html-keyboard-response","114","193760","0.0-1.0-152.0-0.0","0","0","26119","","null","","","null","16","","","","","","","","","","","","","","","",""
"","ITI","","html-keyboard-response","115","194761","0.0-1.0-153.0","0","0","26119","","null","","","null","16","","","","","","","","","","","","","","","NaN",""
"","S1","","html-keyboard-response","116","195014","0.0-1.0-155.0","0","0","26119","","null","","","null","17","","","","","","","","","","","","","","","",""
"","ISI","","html-keyboard-response","117","197018","0.0-1.0-156.0","0","0","26119","","null","","","null","17","NaN","","","","","","","","","","","","","","",""
"","S2","","html-keyboard-response","118","197272","0.0-1.0-157.0","0","0","26119","","null","","","null","17","","NaN","","","","","","","","","","","","","",""
"","response","","html-keyboard-response","119","197699","0.0-1.0-158.0-0.0","0","0","26119","","425","","","75","17","","","1","17","training","adjacent","DE","4","5","O.jpg","Q.jpg","1","1","1","",""
"","feedback","","html-keyboard-response","120","198703","0.0-1.0-159.0-0.0","0","0","26119","","null","","","null","17","","","","","","","","","","","","","","","",""
"","ITI","","html-keyboard-response","121","199705","0.0-1.0-162.0","0","0","26119","","null","","","null","17","","","","","","","","","","","","","","","NaN",""
"","S1","","html-keyboard-response","122","199959","0.0-1.0-164.0","0","0","26119","","null","","","null","18","","","","","","","","","","","","","","","",""
"","ISI","","html-keyboard-response","123","201962","0.0-1.0-165.0","0","0","26119","","null","","","null","18","NaN","","","","","","","","","","","","","","",""
"","S2","","html-keyboard-response","124","202214","0.0-1.0-166.0","0","0","26119","","null","","","null","18","","NaN","","","","","","","","","","","","","",""
"","response","","html-keyboard-response","125","202580","0.0-1.0-167.0-0.0","0","0","26119","","363","","","68","18","","","1","18","training","adjacent","DE","4","5","O.jpg","Q.jpg","0","1","0","",""
"","feedback","","html-keyboard-response","126","203583","0.0-1.0-168.0-0.0","0","0","26119","","null","","","null","18","","","","","","","","","","","","","","","",""
"","time_out","","html-keyboard-response","127","205585","0.0-1.0-170.0-0.0","0","0","26119","","null","","","null","18","","","","","","","","","","","","","","","",""
"","ITI","","html-keyboard-response","128","206589","0.0-1.0-171.0","0","0","26119","","null","","","null","18","","","","","","","","","","","","","","","NaN",""
"","S1","","html-keyboard-response","129","206844","0.0-1.0-173.0","0","0","26119","","null","","","null","19","","","","","","","","","","","","","","","",""
"","ISI","","html-keyboard-response","130","208848","0.0-1.0-174.0","0","0","26119","","null","","","null","19","NaN","","","","","","","","","","","","","","",""
"","S2","","html-keyboard-response","131","209101","0.0-1.0-175.0","0","0","26119","","null","","","null","19","","NaN","","","","","","","","","","","","","",""
"","response","","html-keyboard-response","132","209208","0.0-1.0-176.0-0.0","0","0","26119","","103","","","75","19","","","1","19","training","adjacent","EF","5","6","Q.jpg","R.jpg","1","1","1","",""
"","feedback","","html-keyboard-response","133","210211","0.0-1.0-177.0-0.0","0","0","26119","","null","","","null","19","","","","","","","","","","","","","","","",""
"","ITI","","html-keyboard-response","134","211215","0.0-1.0-180.0","0","0","26119","","null","","","null","19","","","","","","","","","","","","","","","NaN",""
"","S1","","html-keyboard-response","135","211470","0.0-1.0-182.0","0","0","26119","","null","","","null","20","","","","","","","","","","","","","","","",""
"","ISI","","html-keyboard-response","136","213472","0.0-1.0-183.0","0","0","26119","","null","","","null","20","NaN","","","","","","","","","","","","","","",""
"","S2","","html-keyboard-response","137","213725","0.0-1.0-184.0","0","0","26119","","null","","","null","20","","NaN","","","","","","","","","","","","","",""
"","response","","html-keyboard-response","138","213844","0.0-1.0-185.0-0.0","0","0","26119","","117","","","75","20","","","1","20","training","adjacent","ED","5","4","Q.jpg","O.jpg","1","0","0","",""
"","feedback","","html-keyboard-response","139","214847","0.0-1.0-186.0-0.0","0","0","26119","","null","","","null","20","","","","","","","","","","","","","","","",""
"","time_out","","html-keyboard-response","140","216851","0.0-1.0-188.0-0.0","0","0","26119","","null","","","null","20","","","","","","","","","","","","","","","",""
"","ITI","","html-keyboard-response","141","217853","0.0-1.0-189.0","0","0","26119","","null","","","null","20","","","","","","","","","","","","","","","NaN",""
"","S1","","html-keyboard-response","142","218105","0.0-1.0-191.0","0","0","26119","","null","","","null","21","","","","","","","","","","","","","","","",""
"","ISI","","html-keyboard-response","143","220108","0.0-1.0-192.0","0","0","26119","","null","","","null","21","NaN","","","","","","","","","","","","","","",""
"","S2","","html-keyboard-response","144","220360","0.0-1.0-193.0","0","0","26119","","null","","","null","21","","NaN","","","","","","","","","","","","","",""
"","response","","html-keyboard-response","145","220790","0.0-1.0-194.0-0.0","0","0","26119","","427","","","75","21","","","1","21","training","adjacent","EF","5","6","Q.jpg","R.jpg","1","1","1","",""
"","feedback","","html-keyboard-response","146","221793","0.0-1.0-195.0-0.0","0","0","26119","","null","","","null","21","","","","","","","","","","","","","","","",""
"","ITI","","html-keyboard-response","147","222797","0.0-1.0-198.0","0","0","26119","","null","","","null","21","","","","","","","","","","","","","","","NaN",""
"","S1","","html-keyboard-response","148","223051","0.0-1.0-200.0","0","0","26119","","null","","","null","22","","","","","","","","","","","","","","","",""
"","ISI","","html-keyboard-response","149","225055","0.0-1.0-201.0","0","0","26119","","null","","","null","22","NaN","","","","","","","","","","","","","","",""
"","S2","","html-keyboard-response","150","225310","0.0-1.0-202.0","0","0","26119","","null","","","null","22","","NaN","","","","","","","","","","","","","",""
"","response","","html-keyboard-response","151","225870","0.0-1.0-203.0-0.0","0","0","26119","","558","","","68","22","","","1","22","training","adjacent","CD","3","4","N.jpg","O.jpg","0","1","0","",""
"","feedback","","html-keyboard-response","152","226873","0.0-1.0-204.0-0.0","0","0","26119","","null","","","null","22","","","","","","","","","","","","","","","",""
"","time_out","","html-keyboard-response","153","228876","0.0-1.0-206.0-0.0","0","0","26119","","null","","","null","22","","","","","","","","","","","","","","","",""
"","ITI","","html-keyboard-response","154","229880","0.0-1.0-207.0","0","0","26119","","null","","","null","22","","","","","","","","","","","","","","","NaN",""
"","S1","","html-keyboard-response","155","230134","0.0-1.0-209.0","0","0","26119","","null","","","null","23","","","","","","","","","","","","","","","",""
"","ISI","","html-keyboard-response","156","232136","0.0-1.0-210.0","0","0","26119","","null","","","null","23","NaN","","","","","","","","","","","","","","",""
"","S2","","html-keyboard-response","157","232389","0.0-1.0-211.0","0","0","26119","","null","","","null","23","","NaN","","","","","","","","","","","","","",""
"","response","","html-keyboard-response","158","232476","0.0-1.0-212.0-0.0","0","0","26119","","86","","","75","23","","","1","23","training","adjacent","GF","7","6","M.jpg","R.jpg","1","0","0","",""
"","feedback","","html-keyboard-response","159","233480","0.0-1.0-213.0-0.0","0","0","26119","","null","","","null","23","","","","","","","","","","","","","","","",""
"","time_out","","html-keyboard-response","160","235484","0.0-1.0-215.0-0.0","0","0","26119","","null","","","null","23","","","","","","","","","","","","","","","",""
"","ITI","","html-keyboard-response","161","236488","0.0-1.0-216.0","0","0","26119","","null","","","null","23","","","","","","","","","","","","","","","NaN",""
"","S1","","html-keyboard-response","162","236742","0.0-1.0-218.0","0","0","26119","","null","","","null","24","","","","","","","","","","","","","","","",""
"","ISI","","html-keyboard-response","163","238745","0.0-1.0-219.0","0","0","26119","","null","","","null","24","NaN","","","","","","","","","","","","","","",""
"","S2","","html-keyboard-response","164","239000","0.0-1.0-220.0","0","0","26119","","null","","","null","24","","NaN","","","","","","","","","","","","","",""
"","response","","html-keyboard-response","165","239424","0.0-1.0-221.0-0.0","0","0","26119","","422","","","75","24","","","1","24","training","adjacent","AB","1","2","L.jpg","P.jpg","1","1","1","",""
"","feedback","","html-keyboard-response","166","240436","0.0-1.0-222.0-0.0","0","0","26119","","null","","","null","24","","","","","","","","","","","","","","","",""
"","ITI","","html-keyboard-response","167","241439","0.0-1.0-225.0","0","0","26119","","null","","","null","24","","","","","","","","","","","","","","","NaN",""
"","S1","","html-keyboard-response","168","241692","0.0-1.0-227.0","0","0","26119","","null","","","null","25","","","","","","","","","","","","","","","",""
"","ISI","","html-keyboard-response","169","243707","0.0-1.0-228.0","0","0","26119","","null","","","null","25","NaN","","","","","","","","","","","","","","",""
"","S2","","html-keyboard-response","170","243961","0.0-1.0-229.0","0","0","26119","","null","","","null","25","","NaN","","","","","","","","","","","","","",""
"","response","","html-keyboard-response","171","244323","0.0-1.0-230.0-0.0","0","0","26119","","360","","","68","25","","","1","25","training","adjacent","ED","5","4","Q.jpg","O.jpg","0","0","1","",""
"","feedback","","html-keyboard-response","172","245326","0.0-1.0-231.0-0.0","0","0","26119","","null","","","null","25","","","","","","","","","","","","","","","",""
"","ITI","","html-keyboard-response","173","246329","0.0-1.0-234.0","0","0","26119","","null","","","null","25","","","","","","","","","","","","","","","NaN",""
"","S1","","html-keyboard-response","174","246584","0.0-1.0-236.0","0","0","26119","","null","","","null","26","","","","","","","","","","","","","","","",""
"","ISI","","html-keyboard-response","175","248589","0.0-1.0-237.0","0","0","26119","","null","","","null","26","NaN","","","","","","","","","","","","","","",""
"","S2","","html-keyboard-response","176","248844","0.0-1.0-238.0","0","0","26119","","null","","","null","26","","NaN","","","","","","","","","","","","","",""
"","response","","html-keyboard-response","177","249412","0.0-1.0-239.0-0.0","0","0","26119","","565","","","75","26","","","1","26","training","adjacent","GF","7","6","M.jpg","R.jpg","1","0","0","",""
"","feedback","","html-keyboard-response","178","250432","0.0-1.0-240.0-0.0","0","0","26119","","null","","","null","26","","","","","","","","","","","","","","","",""
"","time_out","","html-keyboard-response","179","252435","0.0-1.0-242.0-0.0","0","0","26119","","null","","","null","26","","","","","","","","","","","","","","","",""
"","ITI","","html-keyboard-response","180","253439","0.0-1.0-243.0","0","0","26119","","null","","","null","26","","","","","","","","","","","","","","","NaN",""
"","S1","","html-keyboard-response","181","253692","0.0-1.0-245.0","0","0","26119","","null","","","null","27","","","","","","","","","","","","","","","",""
"","ISI","","html-keyboard-response","182","255694","0.0-1.0-246.0","0","0","26119","","null","","","null","27","NaN","","","","","","","","","","","","","","",""
"","S2","","html-keyboard-response","183","255945","0.0-1.0-247.0","0","0","26119","","null","","","null","27","","NaN","","","","","","","","","","","","","",""
"","response","","html-keyboard-response","184","256102","0.0-1.0-248.0-0.0","0","0","26119","","155","","","68","27","","","1","27","training","adjacent","CB","3","2","N.jpg","P.jpg","0","0","1","",""
"","feedback","","html-keyboard-response","185","257105","0.0-1.0-249.0-0.0","0","0","26119","","null","","","null","27","","","","","","","","","","","","","","","",""
"","ITI","","html-keyboard-response","186","258109","0.0-1.0-252.0","0","0","26119","","null","","","null","27","","","","","","","","","","","","","","","NaN",""
"","S1","","html-keyboard-response","187","258362","0.0-1.0-254.0","0","0","26119","","null","","","null","28","","","","","","","","","","","","","","","",""
"","ISI","","html-keyboard-response","188","260366","0.0-1.0-255.0","0","0","26119","","null","","","null","28","NaN","","","","","","","","","","","","","","",""
"","S2","","html-keyboard-response","189","260620","0.0-1.0-256.0","0","0","26119","","null","","","null","28","","NaN","","","","","","","","","","","","","",""
"","response","","html-keyboard-response","190","261141","0.0-1.0-257.0-0.0","0","0","26119","","520","","","68","28","","","1","28","training","adjacent","DE","4","5","O.jpg","Q.jpg","0","1","0","",""
"","feedback","","html-keyboard-response","191","262144","0.0-1.0-258.0-0.0","0","0","26119","","null","","","null","28","","","","","","","","","","","","","","","",""
"","time_out","","html-keyboard-response","192","264148","0.0-1.0-260.0-0.0","0","0","26119","","null","","","null","28","","","","","","","","","","","","","","","",""
"","ITI","","html-keyboard-response","193","265153","0.0-1.0-261.0","0","0","26119","","null","","","null","28","","","","","","","","","","","","","","","NaN",""
"","S1","","html-keyboard-response","194","265407","0.0-1.0-263.0","0","0","26119","","null","","","null","29","","","","","","","","","","","","","","","",""
"","ISI","","html-keyboard-response","195","267410","0.0-1.0-264.0","0","0","26119","","null","","","null","29","NaN","","","","","","","","","","","","","","",""
"","S2","","html-keyboard-response","196","267662","0.0-1.0-265.0","0","0","26119","","null","","","null","29","","NaN","","","","","","","","","","","","","",""
"","response","","html-keyboard-response","197","267971","0.0-1.0-266.0-0.0","0","0","26119","","307","","","68","29","","","1","29","training","adjacent","BA","2","1","P.jpg","L.jpg","0","0","1","",""
"","feedback","","html-keyboard-response","198","268975","0.0-1.0-267.0-0.0","0","0","26119","","null","","","null","29","","","","","","","","","","","","","","","",""
"","ITI","","html-keyboard-response","199","269979","0.0-1.0-270.0","0","0","26119","","null","","","null","29","","","","","","","","","","","","","","","NaN",""
"","S1","","html-keyboard-response","200","270234","0.0-1.0-272.0","0","0","26119","","null","","","null","30","","","","","","","","","","","","","","","",""
"","ISI","","html-keyboard-response","201","272237","0.0-1.0-273.0","0","0","26119","","null","","","null","30","NaN","","","","","","","","","","","","","","",""
"","S2","","html-keyboard-response","202","272503","0.0-1.0-274.0","0","0","26119","","null","","","null","30","","NaN","","","","","","","","","","","","","",""
"","response","","html-keyboard-response","203","272703","0.0-1.0-275.0-0.0","0","0","26119","","198","","","75","30","","","1","30","training","adjacent","AB","1","2","L.jpg","P.jpg","1","1","1","",""
"","feedback","","html-keyboard-response","204","273706","0.0-1.0-276.0-0.0","0","0","26119","","null","","","null","30","","","","","","","","","","","","","","","",""
"","ITI","","html-keyboard-response","205","274709","0.0-1.0-279.0","0","0","26119","","null","","","null","30","","","","","","","","","","","","","","","NaN",""
"","S1","","html-keyboard-response","206","274963","0.0-1.0-281.0","0","0","26119","","null","","","null","31","","","","","","","","","","","","","","","",""
"","ISI","","html-keyboard-response","207","276966","0.0-1.0-282.0","0","0","26119","","null","","","null","31","NaN","","","","","","","","","","","","","","",""
"","S2","","html-keyboard-response","208","277220","0.0-1.0-283.0","0","0","26119","","null","","","null","31","","NaN","","","","","","","","","","","","","",""
"","response","","html-keyboard-response","209","277476","0.0-1.0-284.0-0.0","0","0","26119","","254","","","75","31","","","1","31","training","adjacent","DC","4","3","O.jpg","N.jpg","1","0","0","",""
"","feedback","","html-keyboard-response","210","278478","0.0-1.0-285.0-0.0","0","0","26119","","null","","","null","31","","","","","","","","","","","","","","","",""
"","time_out","","html-keyboard-response","211","280481","0.0-1.0-287.0-0.0","0","0","26119","","null","","","null","31","","","","","","","","","","","","","","","",""
"","ITI","","html-keyboard-response","212","281485","0.0-1.0-288.0","0","0","26119","","null","","","null","31","","","","","","","","","","","","","","","NaN",""
"","S1","","html-keyboard-response","213","281739","0.0-1.0-290.0","0","0","26119","","null","","","null","32","","","","","","","","","","","","","","","",""
"","ISI","","html-keyboard-response","214","283742","0.0-1.0-291.0","0","0","26119","","null","","","null","32","NaN","","","","","","","","","","","","","","",""
"","S2","","html-keyboard-response","215","283996","0.0-1.0-292.0","0","0","26119","","null","","","null","32","","NaN","","","","","","","","","","","","","",""
"","response","","html-keyboard-response","216","284340","0.0-1.0-293.0-0.0","0","0","26119","","343","","","68","32","","","1","32","training","adjacent","FG","6","7","R.jpg","M.jpg","0","1","0","",""
"","feedback","","html-keyboard-response","217","285347","0.0-1.0-294.0-0.0","0","0","26119","","null","","","null","32","","","","","","","","","","","","","","","",""
"","time_out","","html-keyboard-response","218","287361","0.0-1.0-296.0-0.0","0","0","26119","","null","","","null","32","","","","","","","","","","","","","","","",""
"","ITI","","html-keyboard-response","219","288365","0.0-1.0-297.0","0","0","26119","","null","","","null","32","","","","","","","","","","","","","","","NaN",""
"","S1","","html-keyboard-response","220","288618","0.0-1.0-299.0","0","0","26119","","null","","","null","33","","","","","","","","","","","","","","","",""
"","ISI","","html-keyboard-response","221","290621","0.0-1.0-300.0","0","0","26119","","null","","","null","33","NaN","","","","","","","","","","","","","","",""
"","S2","","html-keyboard-response","222","290875","0.0-1.0-301.0","0","0","26119","","null","","","null","33","","NaN","","","","","","","","","","","","","",""
"","response","","html-keyboard-response","223","291384","0.0-1.0-302.0-0.0","0","0","26119","","507","","","75","33","","","1","33","training","adjacent","FE","6","5","R.jpg","Q.jpg","1","0","0","",""
"","feedback","","html-keyboard-response","224","292387","0.0-1.0-303.0-0.0","0","0","26119","","null","","","null","33","","","","","","","","","","","","","","","",""
"","time_out","","html-keyboard-response","225","294390","0.0-1.0-305.0-0.0","0","0","26119","","null","","","null","33","","","","","","","","","","","","","","","",""
"","ITI","","html-keyboard-response","226","295394","0.0-1.0-306.0","0","0","26119","","null","","","null","33","","","","","","","","","","","","","","","NaN",""
"","S1","","html-keyboard-response","227","295646","0.0-1.0-308.0","0","0","26119","","null","","","null","34","","","","","","","","","","","","","","","",""
"","ISI","","html-keyboard-response","228","297648","0.0-1.0-309.0","0","0","26119","","null","","","null","34","NaN","","","","","","","","","","","","","","",""
"","S2","","html-keyboard-response","229","297900","0.0-1.0-310.0","0","0","26119","","null","","","null","34","","NaN","","","","","","","","","","","","","",""
"","response","","html-keyboard-response","230","298069","0.0-1.0-311.0-0.0","0","0","26119","","168","","","68","34","","","1","34","training","adjacent","FE","6","5","R.jpg","Q.jpg","0","0","1","",""
"","feedback","","html-keyboard-response","231","299073","0.0-1.0-312.0-0.0","0","0","26119","","null","","","null","34","","","","","","","","","","","","","","","",""
"","ITI","","html-keyboard-response","232","300077","0.0-1.0-315.0","0","0","26119","","null","","","null","34","","","","","","","","","","","","","","","NaN",""
"","S1","","html-keyboard-response","233","300331","0.0-1.0-317.0","0","0","26119","","null","","","null","35","","","","","","","","","","","","","","","",""
"","ISI","","html-keyboard-response","234","302336","0.0-1.0-318.0","0","0","26119","","null","","","null","35","NaN","","","","","","","","","","","","","","",""
"","S2","","html-keyboard-response","235","302590","0.0-1.0-319.0","0","0","26119","","null","","","null","35","","NaN","","","","","","","","","","","","","",""
"","response","","html-keyboard-response","236","303028","0.0-1.0-320.0-0.0","0","0","26119","","435","","","68","35","","","1","35","training","adjacent","CD","3","4","N.jpg","O.jpg","0","1","0","",""
"","feedback","","html-keyboard-response","237","304033","0.0-1.0-321.0-0.0","0","0","26119","","null","","","null","35","","","","","","","","","","","","","","","",""
"","time_out","","html-keyboard-response","238","306036","0.0-1.0-323.0-0.0","0","0","26119","","null","","","null","35","","","","","","","","","","","","","","","",""
"","ITI","","html-keyboard-response","239","307039","0.0-1.0-324.0","0","0","26119","","null","","","null","35","","","","","","","","","","","","","","","NaN",""
"","S1","","html-keyboard-response","240","307293","0.0-1.0-326.0","0","0","26119","","null","","","null","36","","","","","","","","","","","","","","","",""
"","ISI","","html-keyboard-response","241","309295","0.0-1.0-327.0","0","0","26119","","null","","","null","36","NaN","","","","","","","","","","","","","","",""
"","S2","","html-keyboard-response","242","309550","0.0-1.0-328.0","0","0","26119","","null","","","null","36","","NaN","","","","","","","","","","","","","",""
"","response","","html-keyboard-response","243","310002","0.0-1.0-329.0-0.0","0","0","26119","","450","","","75","36","","","1","36","training","adjacent","BC","2","3","P.jpg","N.jpg","1","1","1","",""
"","feedback","","html-keyboard-response","244","311010","0.0-1.0-330.0-0.0","0","0","26119","","null","","","null","36","","","","","","","","","","","","","","","",""
"","ITI","","html-keyboard-response","245","312013","0.0-1.0-333.0","0","0","26119","","null","","","null","36","","","","","","","","","","","","","","","NaN",""
"","S1","","html-keyboard-response","246","312266","0.0-1.0-335.0","0","0","26119","","null","","","null","37","","","","","","","","","","","","","","","",""
"","ISI","","html-keyboard-response","247","314269","0.0-1.0-336.0","0","0","26119","","null","","","null","37","NaN","","","","","","","","","","","","","","",""
"","S2","","html-keyboard-response","248","314524","0.0-1.0-337.0","0","0","26119","","null","","","null","37","","NaN","","","","","","","","","","","","","",""
"","response","","html-keyboard-response","249","314814","0.0-1.0-338.0-0.0","0","0","26119","","287","","","75","37","","","1","37","training","adjacent","DC","4","3","O.jpg","N.jpg","1","0","0","",""
"","feedback","","html-keyboard-response","250","315817","0.0-1.0-339.0-0.0","0","0","26119","","null","","","null","37","","","","","","","","","","","","","","","",""
"","time_out","","html-keyboard-response","251","317820","0.0-1.0-341.0-0.0","0","0","26119","","null","","","null","37","","","","","","","","","","","","","","","",""
"","ITI","","html-keyboard-response","252","318823","0.0-1.0-342.0","0","0","26119","","null","","","null","37","","","","","","","","","","","","","","","NaN",""
"","S1","","html-keyboard-response","253","319077","0.0-1.0-344.0","0","0","26119","","null","","","null","38","","","","","","","","","","","","","","","",""
"","ISI","","html-keyboard-response","254","321081","0.0-1.0-345.0","0","0","26119","","null","","","null","38","NaN","","","","","","","","","","","","","","",""
"","S2","","html-keyboard-response","255","321336","0.0-1.0-346.0","0","0","26119","","null","","","null","38","","NaN","","","","","","","","","","","","","",""
"","response","","html-keyboard-response","256","321874","0.0-1.0-347.0-0.0","0","0","26119","","537","","","68","38","","","1","38","training","adjacent","FG","6","7","R.jpg","M.jpg","0","1","0","",""
"","feedback","","html-keyboard-response","257","322878","0.0-1.0-348.0-0.0","0","0","26119","","null","","","null","38","","","","","","","","","","","","","","","",""
"","time_out","","html-keyboard-response","258","324882","0.0-1.0-350.0-0.0","0","0","26119","","null","","","null","38","","","","","","","","","","","","","","","",""
"","ITI","","html-keyboard-response","259","325885","0.0-1.0-351.0","0","0","26119","","null","","","null","38","","","","","","","","","","","","","","","NaN",""
"","S1","","html-keyboard-response","260","326137","0.0-1.0-353.0","0","0","26119","","null","","","null","39","","","","","","","","","","","","","","","",""
"","ISI","","html-keyboard-response","261","328139","0.0-1.0-354.0","0","0","26119","","null","","","null","39","NaN","","","","","","","","","","","","","","",""
"","S2","","html-keyboard-response","262","328394","0.0-1.0-355.0","0","0","26119","","null","","","null","39","","NaN","","","","","","","","","","","","","",""
"","response","","html-keyboard-response","263","328750","0.0-1.0-356.0-0.0","0","0","26119","","354","","","75","39","","","1","39","training","adjacent","BC","2","3","P.jpg","N.jpg","1","1","1","",""
"","feedback","","html-keyboard-response","264","329753","0.0-1.0-357.0-0.0","0","0","26119","","null","","","null","39","","","","","","","","","","","","","","","",""
"","ITI","","html-keyboard-response","265","330756","0.0-1.0-360.0","0","0","26119","","null","","","null","39","","","","","","","","","","","","","","","NaN",""
"","S1","","html-keyboard-response","266","331010","0.0-1.0-362.0","0","0","26119","","null","","","null","40","","","","","","","","","","","","","","","",""
"","ISI","","html-keyboard-response","267","333013","0.0-1.0-363.0","0","0","26119","","null","","","null","40","NaN","","","","","","","","","","","","","","",""
"","S2","","html-keyboard-response","268","333266","0.0-1.0-364.0","0","0","26119","","null","","","null","40","","NaN","","","","","","","","","","","","","",""
"","response","","html-keyboard-response","269","334111","0.0-1.0-365.0-0.0","0","0","26119","","843","","","68","40","","","1","40","training","adjacent","FE","6","5","R.jpg","Q.jpg","0","0","1","",""
"","feedback","","html-keyboard-response","270","335115","0.0-1.0-366.0-0.0","0","0","26119","","null","","","null","40","","","","","","","","","","","","","","","",""
"","ITI","","html-keyboard-response","271","336119","0.0-1.0-369.0","0","0","26119","","null","","","null","40","","","","","","","","","","","","","","","NaN",""
"","S1","","html-keyboard-response","272","336373","0.0-1.0-371.0","0","0","26119","","null","","","null","41","","","","","","","","","","","","","","","",""
"","ISI","","html-keyboard-response","273","338377","0.0-1.0-372.0","0","0","26119","","null","","","null","41","NaN","","","","","","","","","","","","","","",""
"","S2","","html-keyboard-response","274","338631","0.0-1.0-373.0","0","0","26119","","null","","","null","41","","NaN","","","","","","","","","","","","","",""
"","response","","html-keyboard-response","275","339114","0.0-1.0-374.0-0.0","0","0","26119","","481","","","68","41","","","1","41","training","adjacent","GF","7","6","M.jpg","R.jpg","0","0","1","",""
"","feedback","","html-keyboard-response","276","340118","0.0-1.0-375.0-0.0","0","0","26119","","null","","","null","41","","","","","","","","","","","","","","","",""
"","ITI","","html-keyboard-response","277","341122","0.0-1.0-378.0","0","0","26119","","null","","","null","41","","","","","","","","","","","","","","","NaN",""
"","S1","","html-keyboard-response","278","341375","0.0-1.0-380.0","0","0","26119","","null","","","null","42","","","","","","","","","","","","","","","",""
"","ISI","","html-keyboard-response","279","343378","0.0-1.0-381.0","0","0","26119","","null","","","null","42","NaN","","","","","","","","","","","","","","",""
"","S2","","html-keyboard-response","280","343632","0.0-1.0-382.0","0","0","26119","","null","","","null","42","","NaN","","","","","","","","","","","","","",""
"","response","","html-keyboard-response","281","344139","0.0-1.0-383.0-0.0","0","0","26119","","506","","","68","42","","","1","42","training","adjacent","FG","6","7","R.jpg","M.jpg","0","1","0","",""
"","feedback","","html-keyboard-response","282","345142","0.0-1.0-384.0-0.0","0","0","26119","","null","","","null","42","","","","","","","","","","","","","","","",""
"","time_out","","html-keyboard-response","283","347146","0.0-1.0-386.0-0.0","0","0","26119","","null","","","null","42","","","","","","","","","","","","","","","",""
"","ITI","","html-keyboard-response","284","348150","0.0-1.0-387.0","0","0","26119","","null","","","null","42","","","","","","","","","","","","","","","NaN",""
"","S1","","html-keyboard-response","285","348403","0.0-1.0-389.0","0","0","26119","","null","","","null","43","","","","","","","","","","","","","","","",""
"","ISI","","html-keyboard-response","286","350407","0.0-1.0-390.0","0","0","26119","","null","","","null","43","NaN","","","","","","","","","","","","","","",""
"","S2","","html-keyboard-response","287","350661","0.0-1.0-391.0","0","0","26119","","null","","","null","43","","NaN","","","","","","","","","","","","","",""
"","response","","html-keyboard-response","288","350955","0.0-1.0-392.0-0.0","0","0","26119","","291","","","68","43","","","1","43","training","adjacent","BA","2","1","P.jpg","L.jpg","0","0","1","",""
"","feedback","","html-keyboard-response","289","351958","0.0-1.0-393.0-0.0","0","0","26119","","null","","","null","43","","","","","","","","","","","","","","","",""
"","ITI","","html-keyboard-response","290","352962","0.0-1.0-396.0","0","0","26119","","null","","","null","43","","","","","","","","","","","","","","","NaN",""
"","S1","","html-keyboard-response","291","353226","0.0-1.0-398.0","0","0","26119","","null","","","null","44","","","","","","","","","","","","","","","",""
"","ISI","","html-keyboard-response","292","355230","0.0-1.0-399.0","0","0","26119","","null","","","null","44","NaN","","","","","","","","","","","","","","",""
"","S2","","html-keyboard-response","293","355485","0.0-1.0-400.0","0","0","26119","","null","","","null","44","","NaN","","","","","","","","","","","","","",""
"","response","","html-keyboard-response","294","355619","0.0-1.0-401.0-0.0","0","0","26119","","133","","","75","44","","","1","44","training","adjacent","CB","3","2","N.jpg","P.jpg","1","0","0","",""
"","feedback","","html-keyboard-response","295","356621","0.0-1.0-402.0-0.0","0","0","26119","","null","","","null","44","","","","","","","","","","","","","","","",""
"","time_out","","html-keyboard-response","296","358624","0.0-1.0-404.0-0.0","0","0","26119","","null","","","null","44","","","","","","","","","","","","","","","",""
"","ITI","","html-keyboard-response","297","359626","0.0-1.0-405.0","0","0","26119","","null","","","null","44","","","","","","","","","","","","","","","NaN",""
"","S1","","html-keyboard-response","298","359880","0.0-1.0-407.0","0","0","26119","","null","","","null","45","","","","","","","","","","","","","","","",""
"","ISI","","html-keyboard-response","299","361883","0.0-1.0-408.0","0","0","26119","","null","","","null","45","NaN","","","","","","","","","","","","","","",""
"","S2","","html-keyboard-response","300","362136","0.0-1.0-409.0","0","0","26119","","null","","","null","45","","NaN","","","","","","","","","","","","","",""
"","response","","html-keyboard-response","301","362573","0.0-1.0-410.0-0.0","0","0","26119","","434","","","75","45","","","1","45","training","adjacent","ED","5","4","Q.jpg","O.jpg","1","0","0","",""
"","feedback","","html-keyboard-response","302","363577","0.0-1.0-411.0-0.0","0","0","26119","","null","","","null","45","","","","","","","","","","","","","","","",""
"","time_out","","html-keyboard-response","303","365592","0.0-1.0-413.0-0.0","0","0","26119","","null","","","null","45","","","","","","","","","","","","","","","",""
"","ITI","","html-keyboard-response","304","366594","0.0-1.0-414.0","0","0","26119","","null","","","null","45","","","","","","","","","","","","","","","NaN",""
"","S1","","html-keyboard-response","305","366845","0.0-1.0-416.0","0","0","26119","","null","","","null","46","","","","","","","","","","","","","","","",""
"","ISI","","html-keyboard-response","306","368849","0.0-1.0-417.0","0","0","26119","","null","","","null","46","NaN","","","","","","","","","","","","","","",""
"","S2","","html-keyboard-response","307","369103","0.0-1.0-418.0","0","0","26119","","null","","","null","46","","NaN","","","","","","","","","","","","","",""
"","response","","html-keyboard-response","308","369792","0.0-1.0-419.0-0.0","0","0","26119","","687","","","68","46","","","1","46","training","adjacent","FG","6","7","R.jpg","M.jpg","0","1","0","",""
"","feedback","","html-keyboard-response","309","370794","0.0-1.0-420.0-0.0","0","0","26119","","null","","","null","46","","","","","","","","","","","","","","","",""
"","time_out","","html-keyboard-response","310","372797","0.0-1.0-422.0-0.0","0","0","26119","","null","","","null","46","","","","","","","","","","","","","","","",""
"","ITI","","html-keyboard-response","311","373800","0.0-1.0-423.0","0","0","26119","","null","","","null","46","","","","","","","","","","","","","","","NaN",""
"","S1","","html-keyboard-response","312","374054","0.0-1.0-425.0","0","0","26119","","null","","","null","47","","","","","","","","","","","","","","","",""
"","ISI","","html-keyboard-response","313","376055","0.0-1.0-426.0","0","0","26119","","null","","","null","47","NaN","","","","","","","","","","","","","","",""
"","S2","","html-keyboard-response","314","376309","0.0-1.0-427.0","0","0","26119","","null","","","null","47","","NaN","","","","","","","","","","","","","",""
"","response","","html-keyboard-response","315","377152","0.0-1.0-428.0-0.0","0","0","26119","","840","","","68","47","","","1","47","training","adjacent","ED","5","4","Q.jpg","O.jpg","0","0","1","",""
"","feedback","","html-keyboard-response","316","378157","0.0-1.0-429.0-0.0","0","0","26119","","null","","","null","47","","","","","","","","","","","","","","","",""
"","ITI","","html-keyboard-response","317","379161","0.0-1.0-432.0","0","0","26119","","null","","","null","47","","","","","","","","","","","","","","","NaN",""
"","block_over","","html-keyboard-response","318","384886","0.0-1.0-433.0-0.0","0","0","26119","","5722","","","32","47","","","","","","","","","","","","","","","",""
"","S1","","html-keyboard-response","319","385139","0.0-1.0-434.0","0","0","26119","","null","","","null","48","","","","","","","","","","","","","","","",""
"","ISI","","html-keyboard-response","320","387142","0.0-1.0-435.0","0","0","26119","","null","","","null","48","NaN","","","","","","","","","","","","","","",""
"","S2","","html-keyboard-response","321","387396","0.0-1.0-436.0","0","0","26119","","null","","","null","48","","NaN","","","","","","","","","","","","","",""
"","response","","html-keyboard-response","322","388421","0.0-1.0-437.0-0.0","0","0","26119","","1024","","","68","48","","","2","48","training","adjacent","EF","5","6","Q.jpg","R.jpg","0","1","0","",""
"","feedback","","html-keyboard-response","323","389425","0.0-1.0-438.0-0.0","0","0","26119","","null","","","null","48","","","","","","","","","","","","","","","",""
"","time_out","","html-keyboard-response","324","391429","0.0-1.0-440.0-0.0","0","0","26119","","null","","","null","48","","","","","","","","","","","","","","","",""
"","ITI","","html-keyboard-response","325","392431","0.0-1.0-441.0","0","0","26119","","null","","","null","48","","","","","","","","","","","","","","","NaN",""
"","S1","","html-keyboard-response","326","392684","0.0-1.0-443.0","0","0","26119","","null","","","null","49","","","","","","","","","","","","","","","",""
"","ISI","","html-keyboard-response","327","394686","0.0-1.0-444.0","0","0","26119","","null","","","null","49","NaN","","","","","","","","","","","","","","",""
"","S2","","html-keyboard-response","328","394938","0.0-1.0-445.0","0","0","26119","","null","","","null","49","","NaN","","","","","","","","","","","","","",""
"","response","","html-keyboard-response","329","395757","0.0-1.0-446.0-0.0","0","0","26119","","816","","","75","49","","","2","49","training","adjacent","FG","6","7","R.jpg","M.jpg","1","1","1","",""
"","feedback","","html-keyboard-response","330","396760","0.0-1.0-447.0-0.0","0","0","26119","","null","","","null","49","","","","","","","","","","","","","","","",""
"","ITI","","html-keyboard-response","331","397765","0.0-1.0-450.0","0","0","26119","","null","","","null","49","","","","","","","","","","","","","","","NaN",""
"","S1","","html-keyboard-response","332","398018","0.0-1.0-452.0","0","0","26119","","null","","","null","50","","","","","","","","","","","","","","","",""
"","ISI","","html-keyboard-response","333","400021","0.0-1.0-453.0","0","0","26119","","null","","","null","50","NaN","","","","","","","","","","","","","","",""
"","S2","","html-keyboard-response","334","400277","0.0-1.0-454.0","0","0","26119","","null","","","null","50","","NaN","","","","","","","","","","","","","",""
"","response","","html-keyboard-response","335","400978","0.0-1.0-455.0-0.0","0","0","26119","","697","","","68","50","","","2","50","training","adjacent","CB","3","2","N.jpg","P.jpg","0","0","1","",""
"","feedback","","html-keyboard-response","336","401982","0.0-1.0-456.0-0.0","0","0","26119","","null","","","null","50","","","","","","","","","","","","","","","",""
"","ITI","","html-keyboard-response","337","402985","0.0-1.0-459.0","0","0","26119","","null","","","null","50","","","","","","","","","","","","","","","NaN",""
"","S1","","html-keyboard-response","338","403238","0.0-1.0-461.0","0","0","26119","","null","","","null","51","","","","","","","","","","","","","","","",""
"","ISI","","html-keyboard-response","339","405242","0.0-1.0-462.0","0","0","26119","","null","","","null","51","NaN","","","","","","","","","","","","","","",""
"","S2","","html-keyboard-response","340","405496","0.0-1.0-463.0","0","0","26119","","null","","","null","51","","NaN","","","","","","","","","","","","","",""
"","response","","html-keyboard-response","341","405498","0.0-1.0-464.0-0.0","0","0","26119","","0","","","75","51","","","2","51","training","adjacent","BA","2","1","P.jpg","L.jpg","1","0","0","",""
"","feedback","","html-keyboard-response","342","406501","0.0-1.0-465.0-0.0","0","0","26119","","null","","","null","51","","","","","","","","","","","","","","","",""
"","time_out","","html-keyboard-response","343","408504","0.0-1.0-467.0-0.0","0","0","26119","","null","","","null","51","","","","","","","","","","","","","","","",""
"","ITI","","html-keyboard-response","344","409509","0.0-1.0-468.0","0","0","26119","","null","","","null","51","","","","","","","","","","","","","","","NaN",""
"","S1","","html-keyboard-response","345","409763","0.0-1.0-470.0","0","0","26119","","null","","","null","52","","","","","","","","","","","","","","","",""
"","ISI","","html-keyboard-response","346","411766","0.0-1.0-471.0","0","0","26119","","null","","","null","52","NaN","","","","","","","","","","","","","","",""
"","S2","","html-keyboard-response","347","412021","0.0-1.0-472.0","0","0","26119","","null","","","null","52","","NaN","","","","","","","","","","","","","",""
"","response","","html-keyboard-response","348","413040","0.0-1.0-473.0-0.0","0","0","26119","","1015","","","68","52","","","2","52","training","adjacent","FG","6","7","R.jpg","M.jpg","0","1","0","",""
"","feedback","","html-keyboard-response","349","414044","0.0-1.0-474.0-0.0","0","0","26119","","null","","","null","52","","","","","","","","","","","","","","","",""
"","time_out","","html-keyboard-response","350","416047","0.0-1.0-476.0-0.0","0","0","26119","","null","","","null","52","","","","","","","","","","","","","","","",""
"","ITI","","html-keyboard-response","351","417051","0.0-1.0-477.0","0","0","26119","","null","","","null","52","","","","","","","","","","","","","","","NaN",""
"","S1","","html-keyboard-response","352","417303","0.0-1.0-479.0","0","0","26119","","null","","","null","53","","","","","","","","","","","","","","","",""
"","ISI","","html-keyboard-response","353","419298","0.0-1.0-480.0","0","0","26119","","null","","","null","53","NaN","","","","","","","","","","","","","","",""
"","S2","","html-keyboard-response","354","419553","0.0-1.0-481.0","0","0","26119","","null","","","null","53","","NaN","","","","","","","","","","","","","",""
"","response","","html-keyboard-response","355","419831","0.0-1.0-482.0-0.0","0","0","26119","","276","","","75","53","","","2","53","training","adjacent","BC","2","3","P.jpg","N.jpg","1","1","1","",""
"","feedback","","html-keyboard-response","356","420834","0.0-1.0-483.0-0.0","0","0","26119","","null","","","null","53","","","","","","","","","","","","","","","",""
"","ITI","","html-keyboard-response","357","421836","0.0-1.0-486.0","0","0","26119","","null","","","null","53","","","","","","","","","","","","","","","NaN",""
"","S1","","html-keyboard-response","358","422090","0.0-1.0-488.0","0","0","26119","","null","","","null","54","","","","","","","","","","","","","","","",""
"","ISI","","html-keyboard-response","359","424094","0.0-1.0-489.0","0","0","26119","","null","","","null","54","NaN","","","","","","","","","","","","","","",""
"","S2","","html-keyboard-response","360","424349","0.0-1.0-490.0","0","0","26119","","null","","","null","54","","NaN","","","","","","","","","","","","","",""
"","response","","html-keyboard-response","361","425685","0.0-1.0-491.0-0.0","0","0","26119","","1333","","","68","54","","","2","54","training","adjacent","CD","3","4","N.jpg","O.jpg","0","1","0","",""
"","feedback","","html-keyboard-response","362","426686","0.0-1.0-492.0-0.0","0","0","26119","","null","","","null","54","","","","","","","","","","","","","","","",""
"","time_out","","html-keyboard-response","363","428688","0.0-1.0-494.0-0.0","0","0","26119","","null","","","null","54","","","","","","","","","","","","","","","",""
"","ITI","","html-keyboard-response","364","429691","0.0-1.0-495.0","0","0","26119","","null","","","null","54","","","","","","","","","","","","","","","NaN",""
"","S1","","html-keyboard-response","365","429946","0.0-1.0-497.0","0","0","26119","","null","","","null","55","","","","","","","","","","","","","","","",""
"","ISI","","html-keyboard-response","366","431950","0.0-1.0-498.0","0","0","26119","","null","","","null","55","NaN","","","","","","","","","","","","","","",""
"","S2","","html-keyboard-response","367","432204","0.0-1.0-499.0","0","0","26119","","null","","","null","55","","NaN","","","","","","","","","","","","","",""
"","response","","html-keyboard-response","368","433300","0.0-1.0-500.0-0.0","0","0","26119","","1093","","","68","55","","","2","55","training","adjacent","GF","7","6","M.jpg","R.jpg","0","0","1","",""
"","feedback","","html-keyboard-response","369","434305","0.0-1.0-501.0-0.0","0","0","26119","","null","","","null","55","","","","","","","","","","","","","","","",""
"","ITI","","html-keyboard-response","370","435310","0.0-1.0-504.0","0","0","26119","","null","","","null","55","","","","","","","","","","","","","","","NaN",""
"","S1","","html-keyboard-response","371","435563","0.0-1.0-506.0","0","0","26119","","null","","","null","56","","","","","","","","","","","","","","","",""
"","ISI","","html-keyboard-response","372","437567","0.0-1.0-507.0","0","0","26119","","null","","","null","56","NaN","","","","","","","","","","","","","","",""
"","S2","","html-keyboard-response","373","437820","0.0-1.0-508.0","0","0","26119","","null","","","null","56","","NaN","","","","","","","","","","","","","",""
"","response","","html-keyboard-response","374","439382","0.0-1.0-509.0-0.0","0","0","26119","","1559","","","68","56","","","2","56","training","adjacent","CD","3","4","N.jpg","O.jpg","0","1","0","",""
"","feedback","","html-keyboard-response","375","440387","0.0-1.0-510.0-0.0","0","0","26119","","null","","","null","56","","","","","","","","","","","","","","","",""
"","time_out","","html-keyboard-response","376","442390","0.0-1.0-512.0-0.0","0","0","26119","","null","","","null","56","","","","","","","","","","","","","","","",""
"","ITI","","html-keyboard-response","377","443394","0.0-1.0-513.0","0","0","26119","","null","","","null","56","","","","","","","","","","","","","","","NaN",""
"","S1","","html-keyboard-response","378","443647","0.0-1.0-515.0","0","0","26119","","null","","","null","57","","","","","","","","","","","","","","","",""
"","ISI","","html-keyboard-response","379","445650","0.0-1.0-516.0","0","0","26119","","null","","","null","57","NaN","","","","","","","","","","","","","","",""
"","S2","","html-keyboard-response","380","445905","0.0-1.0-517.0","0","0","26119","","null","","","null","57","","NaN","","","","","","","","","","","","","",""
"","response","","html-keyboard-response","381","446382","0.0-1.0-518.0-0.0","0","0","26119","","475","","","68","57","","","2","57","training","adjacent","BA","2","1","P.jpg","L.jpg","0","0","1","",""
"","feedback","","html-keyboard-response","382","447386","0.0-1.0-519.0-0.0","0","0","26119","","null","","","null","57","","","","","","","","","","","","","","","",""
"","ITI","","html-keyboard-response","383","448388","0.0-1.0-522.0","0","0","26119","","null","","","null","57","","","","","","","","","","","","","","","NaN",""
"","S1","","html-keyboard-response","384","448642","0.0-1.0-524.0","0","0","26119","","null","","","null","58","","","","","","","","","","","","","","","",""
"","ISI","","html-keyboard-response","385","450644","0.0-1.0-525.0","0","0","26119","","null","","","null","58","NaN","","","","","","","","","","","","","","",""
"","S2","","html-keyboard-response","386","450897","0.0-1.0-526.0","0","0","26119","","null","","","null","58","","NaN","","","","","","","","","","","","","",""
"","response","","html-keyboard-response","387","452496","0.0-1.0-527.0-0.0","0","0","26119","","1596","","","75","58","","","2","58","training","adjacent","GF","7","6","M.jpg","R.jpg","1","0","0","",""
"","feedback","","html-keyboard-response","388","453498","0.0-1.0-528.0-0.0","0","0","26119","","null","","","null","58","","","","","","","","","","","","","","","",""
"","time_out","","html-keyboard-response","389","455502","0.0-1.0-530.0-0.0","0","0","26119","","null","","","null","58","","","","","","","","","","","","","","","",""
"","ITI","","html-keyboard-response","390","456506","0.0-1.0-531.0","0","0","26119","","null","","","null","58","","","","","","","","","","","","","","","NaN",""
"","S1","","html-keyboard-response","391","456758","0.0-1.0-533.0","0","0","26119","","null","","","null","59","","","","","","","","","","","","","","","",""
"","ISI","","html-keyboard-response","392","458760","0.0-1.0-534.0","0","0","26119","","null","","","null","59","NaN","","","","","","","","","","","","","","",""
"","S2","","html-keyboard-response","393","459013","0.0-1.0-535.0","0","0","26119","","null","","","null","59","","NaN","","","","","","","","","","","","","",""
"","response","","html-keyboard-response","394","459906","0.0-1.0-536.0-0.0","0","0","26119","","890","","","75","59","","","2","59","training","adjacent","FE","6","5","R.jpg","Q.jpg","1","0","0","",""
"","feedback","","html-keyboard-response","395","460908","0.0-1.0-537.0-0.0","0","0","26119","","null","","","null","59","","","","","","","","","","","","","","","",""
"","time_out","","html-keyboard-response","396","462910","0.0-1.0-539.0-0.0","0","0","26119","","null","","","null","59","","","","","","","","","","","","","","","",""
"","ITI","","html-keyboard-response","397","463913","0.0-1.0-540.0","0","0","26119","","null","","","null","59","","","","","","","","","","","","","","","NaN",""
"","S1","","html-keyboard-response","398","464167","0.0-1.0-542.0","0","0","26119","","null","","","null","60","","","","","","","","","","","","","","","",""
"","ISI","","html-keyboard-response","399","466171","0.0-1.0-543.0","0","0","26119","","null","","","null","60","NaN","","","","","","","","","","","","","","",""
"","S2","","html-keyboard-response","400","466425","0.0-1.0-544.0","0","0","26119","","null","","","null","60","","NaN","","","","","","","","","","","","","",""
"","response","","html-keyboard-response","401","467454","0.0-1.0-545.0-0.0","0","0","26119","","1027","","","75","60","","","2","60","training","adjacent","BC","2","3","P.jpg","N.jpg","1","1","1","",""
"","feedback","","html-keyboard-response","402","468458","0.0-1.0-546.0-0.0","0","0","26119","","null","","","null","60","","","","","","","","","","","","","","","",""
"","ITI","","html-keyboard-response","403","469460","0.0-1.0-549.0","0","0","26119","","null","","","null","60","","","","","","","","","","","","","","","NaN",""
"","S1","","html-keyboard-response","404","469715","0.0-1.0-551.0","0","0","26119","","null","","","null","61","","","","","","","","","","","","","","","",""
"","ISI","","html-keyboard-response","405","471718","0.0-1.0-552.0","0","0","26119","","null","","","null","61","NaN","","","","","","","","","","","","","","",""
"","S2","","html-keyboard-response","406","471972","0.0-1.0-553.0","0","0","26119","","null","","","null","61","","NaN","","","","","","","","","","","","","",""
"","response","","html-keyboard-response","407","472397","0.0-1.0-554.0-0.0","0","0","26119","","422","","","75","61","","","2","61","training","adjacent","AB","1","2","L.jpg","P.jpg","1","1","1","",""
"","feedback","","html-keyboard-response","408","473401","0.0-1.0-555.0-0.0","0","0","26119","","null","","","null","61","","","","","","","","","","","","","","","",""
"","ITI","","html-keyboard-response","409","474406","0.0-1.0-558.0","0","0","26119","","null","","","null","61","","","","","","","","","","","","","","","NaN",""
"","S1","","html-keyboard-response","410","474660","0.0-1.0-560.0","0","0","26119","","null","","","null","62","","","","","","","","","","","","","","","",""
"","ISI","","html-keyboard-response","411","476661","0.0-1.0-561.0","0","0","26119","","null","","","null","62","NaN","","","","","","","","","","","","","","",""
"","S2","","html-keyboard-response","412","476914","0.0-1.0-562.0","0","0","26119","","null","","","null","62","","NaN","","","","","","","","","","","","","",""
"","response","","html-keyboard-response","413","477353","0.0-1.0-563.0-0.0","0","0","26119","","438","","","75","62","","","2","62","training","adjacent","DE","4","5","O.jpg","Q.jpg","1","1","1","",""
"","feedback","","html-keyboard-response","414","478356","0.0-1.0-564.0-0.0","0","0","26119","","null","","","null","62","","","","","","","","","","","","","","","",""
"","ITI","","html-keyboard-response","415","479368","0.0-1.0-567.0","0","0","26119","","null","","","null","62","","","","","","","","","","","","","","","NaN",""
"","S1","","html-keyboard-response","416","479623","0.0-1.0-569.0","0","0","26119","","null","","","null","63","","","","","","","","","","","","","","","",""
"","ISI","","html-keyboard-response","417","481626","0.0-1.0-570.0","0","0","26119","","null","","","null","63","NaN","","","","","","","","","","","","","","",""
"","S2","","html-keyboard-response","418","481878","0.0-1.0-571.0","0","0","26119","","null","","","null","63","","NaN","","","","","","","","","","","","","",""
"","response","","html-keyboard-response","419","483527","0.0-1.0-572.0-0.0","0","0","26119","","1647","","","68","63","","","2","63","training","adjacent","CD","3","4","N.jpg","O.jpg","0","1","0","",""
"","feedback","","html-keyboard-response","420","484530","0.0-1.0-573.0-0.0","0","0","26119","","null","","","null","63","","","","","","","","","","","","","","","",""
"","time_out","","html-keyboard-response","421","486534","0.0-1.0-575.0-0.0","0","0","26119","","null","","","null","63","","","","","","","","","","","","","","","",""
"","ITI","","html-keyboard-response","422","487536","0.0-1.0-576.0","0","0","26119","","null","","","null","63","","","","","","","","","","","","","","","NaN",""
"","S1","","html-keyboard-response","423","487788","0.0-1.0-578.0","0","0","26119","","null","","","null","64","","","","","","","","","","","","","","","",""
"","ISI","","html-keyboard-response","424","489792","0.0-1.0-579.0","0","0","26119","","null","","","null","64","NaN","","","","","","","","","","","","","","",""
"","S2","","html-keyboard-response","425","490045","0.0-1.0-580.0","0","0","26119","","null","","","null","64","","NaN","","","","","","","","","","","","","",""
"","response","","html-keyboard-response","426","490932","0.0-1.0-581.0-0.0","0","0","26119","","884","","","75","64","","","2","64","training","adjacent","BC","2","3","P.jpg","N.jpg","1","1","1","",""
"","feedback","","html-keyboard-response","427","491935","0.0-1.0-582.0-0.0","0","0","26119","","null","","","null","64","","","","","","","","","","","","","","","",""
"","ITI","","html-keyboard-response","428","492938","0.0-1.0-585.0","0","0","26119","","null","","","null","64","","","","","","","","","","","","","","","NaN",""
"","S1","","html-keyboard-response","429","493190","0.0-1.0-587.0","0","0","26119","","null","","","null","65","","","","","","","","","","","","","","","",""
"","ISI","","html-keyboard-response","430","495195","0.0-1.0-588.0","0","0","26119","","null","","","null","65","NaN","","","","","","","","","","","","","","",""
"","S2","","html-keyboard-response","431","495448","0.0-1.0-589.0","0","0","26119","","null","","","null","65","","NaN","","","","","","","","","","","","","",""
"","response","","html-keyboard-response","432","497202","0.0-1.0-590.0-0.0","0","0","26119","","null","","","null","65","","","2","65","training","adjacent","EF","5","6","Q.jpg","R.jpg","NaN","1","0","",""
"","too_slow_prompt","","html-keyboard-response","433","498206","0.0-1.0-592.0-0.0","1","0","26119","","null","","","null","","","","","","","","","","","","","","","","",""
"","time_out","","html-keyboard-response","434","500209","0.0-1.0-593.0-0.0","0","0","26119","","null","","","null","65","","","","","","","","","","","","","","","",""
"","ITI","","html-keyboard-response","435","501212","0.0-1.0-594.0","0","0","26119","","null","","","null","65","","","","","","","","","","","","","","","NaN",""
"","S1","","html-keyboard-response","436","501467","0.0-1.0-596.0","0","0","26119","","null","","","null","66","","","","","","","","","","","","","","","",""
"","ISI","","html-keyboard-response","437","503470","0.0-1.0-597.0","0","0","26119","","null","","","null","66","NaN","","","","","","","","","","","","","","",""
"","S2","","html-keyboard-response","438","503722","0.0-1.0-598.0","0","0","26119","","null","","","null","66","","NaN","","","","","","","","","","","","","",""
"","response","","html-keyboard-response","439","504229","0.0-1.0-599.0-0.0","0","0","26119","","504","","","75","66","","","2","66","training","adjacent","DC","4","3","O.jpg","N.jpg","1","0","0","",""
"","feedback","","html-keyboard-response","440","505233","0.0-1.0-600.0-0.0","0","0","26119","","null","","","null","66","","","","","","","","","","","","","","","",""
"","time_out","","html-keyboard-response","441","507238","0.0-1.0-602.0-0.0","0","0","26119","","null","","","null","66","","","","","","","","","","","","","","","",""
"","ITI","","html-keyboard-response","442","508240","0.0-1.0-603.0","0","0","26119","","null","","","null","66","","","","","","","","","","","","","","","NaN",""
"","S1","","html-keyboard-response","443","508493","0.0-1.0-605.0","0","0","26119","","null","","","null","67","","","","","","","","","","","","","","","",""
"","ISI","","html-keyboard-response","444","510497","0.0-1.0-606.0","0","0","26119","","null","","","null","67","NaN","","","","","","","","","","","","","","",""
"","S2","","html-keyboard-response","445","510751","0.0-1.0-607.0","0","0","26119","","null","","","null","67","","NaN","","","","","","","","","","","","","",""
"","response","","html-keyboard-response","446","511948","0.0-1.0-608.0-0.0","0","0","26119","","1194","","","68","67","","","2","67","training","adjacent","CB","3","2","N.jpg","P.jpg","0","0","1","",""
"","feedback","","html-keyboard-response","447","512953","0.0-1.0-609.0-0.0","0","0","26119","","null","","","null","67","","","","","","","","","","","","","","","",""
"","ITI","","html-keyboard-response","448","513957","0.0-1.0-612.0","0","0","26119","","null","","","null","67","","","","","","","","","","","","","","","NaN",""
"","S1","","html-keyboard-response","449","514210","0.0-1.0-614.0","0","0","26119","","null","","","null","68","","","","","","","","","","","","","","","",""
"","ISI","","html-keyboard-response","450","516213","0.0-1.0-615.0","0","0","26119","","null","","","null","68","NaN","","","","","","","","","","","","","","",""
"","S2","","html-keyboard-response","451","516465","0.0-1.0-616.0","0","0","26119","","null","","","null","68","","NaN","","","","","","","","","","","","","",""
"","response","","html-keyboard-response","452","517248","0.0-1.0-617.0-0.0","0","0","26119","","781","","","68","68","","","2","68","training","adjacent","DE","4","5","O.jpg","Q.jpg","0","1","0","",""
"","feedback","","html-keyboard-response","453","518253","0.0-1.0-618.0-0.0","0","0","26119","","null","","","null","68","","","","","","","","","","","","","","","",""
"","time_out","","html-keyboard-response","454","520256","0.0-1.0-620.0-0.0","0","0","26119","","null","","","null","68","","","","","","","","","","","","","","","",""
"","ITI","","html-keyboard-response","455","521258","0.0-1.0-621.0","0","0","26119","","null","","","null","68","","","","","","","","","","","","","","","NaN",""
"","S1","","html-keyboard-response","456","521512","0.0-1.0-623.0","0","0","26119","","null","","","null","69","","","","","","","","","","","","","","","",""
"","ISI","","html-keyboard-response","457","523515","0.0-1.0-624.0","0","0","26119","","null","","","null","69","NaN","","","","","","","","","","","","","","",""
"","S2","","html-keyboard-response","458","523767","0.0-1.0-625.0","0","0","26119","","null","","","null","69","","NaN","","","","","","","","","","","","","",""
"","response","","html-keyboard-response","459","523935","0.0-1.0-626.0-0.0","0","0","26119","","167","","","75","69","","","2","69","training","adjacent","AB","1","2","L.jpg","P.jpg","1","1","1","",""
"","feedback","","html-keyboard-response","460","524939","0.0-1.0-627.0-0.0","0","0","26119","","null","","","null","69","","","","","","","","","","","","","","","",""
"","ITI","","html-keyboard-response","461","525943","0.0-1.0-630.0","0","0","26119","","null","","","null","69","","","","","","","","","","","","","","","NaN",""
"","S1","","html-keyboard-response","462","526197","0.0-1.0-632.0","0","0","26119","","null","","","null","70","","","","","","","","","","","","","","","",""
"","ISI","","html-keyboard-response","463","528201","0.0-1.0-633.0","0","0","26119","","null","","","null","70","NaN","","","","","","","","","","","","","","",""
"","S2","","html-keyboard-response","464","528455","0.0-1.0-634.0","0","0","26119","","null","","","null","70","","NaN","","","","","","","","","","","","","",""
"","response","","html-keyboard-response","465","529282","0.0-1.0-635.0-0.0","0","0","26119","","823","","","68","70","","","2","70","training","adjacent","ED","5","4","Q.jpg","O.jpg","0","0","1","",""
"","feedback","","html-keyboard-response","466","530286","0.0-1.0-636.0-0.0","0","0","26119","","null","","","null","70","","","","","","","","","","","","","","","",""
"","ITI","","html-keyboard-response","467","531288","0.0-1.0-639.0","0","0","26119","","null","","","null","70","","","","","","","","","","","","","","","NaN",""
"","S1","","html-keyboard-response","468","531541","0.0-1.0-641.0","0","0","26119","","null","","","null","71","","","","","","","","","","","","","","","",""
"","ISI","","html-keyboard-response","469","533544","0.0-1.0-642.0","0","0","26119","","null","","","null","71","NaN","","","","","","","","","","","","","","",""
"","S2","","html-keyboard-response","470","533797","0.0-1.0-643.0","0","0","26119","","null","","","null","71","","NaN","","","","","","","","","","","","","",""
"","response","","html-keyboard-response","471","534632","0.0-1.0-644.0-0.0","0","0","26119","","833","","","75","71","","","2","71","training","adjacent","DC","4","3","O.jpg","N.jpg","1","0","0","",""
"","feedback","","html-keyboard-response","472","535635","0.0-1.0-645.0-0.0","0","0","26119","","null","","","null","71","","","","","","","","","","","","","","","",""
"","time_out","","html-keyboard-response","473","537636","0.0-1.0-647.0-0.0","0","0","26119","","null","","","null","71","","","","","","","","","","","","","","","",""
"","ITI","","html-keyboard-response","474","538639","0.0-1.0-648.0","0","0","26119","","null","","","null","71","","","","","","","","","","","","","","","NaN",""
"","S1","","html-keyboard-response","475","538892","0.0-1.0-650.0","0","0","26119","","null","","","null","72","","","","","","","","","","","","","","","",""
"","ISI","","html-keyboard-response","476","540895","0.0-1.0-651.0","0","0","26119","","null","","","null","72","NaN","","","","","","","","","","","","","","",""
"","S2","","html-keyboard-response","477","541148","0.0-1.0-652.0","0","0","26119","","null","","","null","72","","NaN","","","","","","","","","","","","","",""
"","response","","html-keyboard-response","478","541860","0.0-1.0-653.0-0.0","0","0","26119","","710","","","68","72","","","2","72","training","adjacent","ED","5","4","Q.jpg","O.jpg","0","0","1","",""
"","feedback","","html-keyboard-response","479","542864","0.0-1.0-654.0-0.0","0","0","26119","","null","","","null","72","","","","","","","","","","","","","","","",""
"","ITI","","html-keyboard-response","480","543868","0.0-1.0-657.0","0","0","26119","","null","","","null","72","","","","","","","","","","","","","","","NaN",""
"","S1","","html-keyboard-response","481","544120","0.0-1.0-659.0","0","0","26119","","null","","","null","73","","","","","","","","","","","","","","","",""
"","ISI","","html-keyboard-response","482","546124","0.0-1.0-660.0","0","0","26119","","null","","","null","73","NaN","","","","","","","","","","","","","","",""
"","S2","","html-keyboard-response","483","546378","0.0-1.0-661.0","0","0","26119","","null","","","null","73","","NaN","","","","","","","","","","","","","",""
"","response","","html-keyboard-response","484","547457","0.0-1.0-662.0-0.0","0","0","26119","","1077","","","75","73","","","2","73","training","adjacent","BA","2","1","P.jpg","L.jpg","1","0","0","",""
"","feedback","","html-keyboard-response","485","548459","0.0-1.0-663.0-0.0","0","0","26119","","null","","","null","73","","","","","","","","","","","","","","","",""
"","time_out","","html-keyboard-response","486","550464","0.0-1.0-665.0-0.0","0","0","26119","","null","","","null","73","","","","","","","","","","","","","","","",""
"","ITI","","html-keyboard-response","487","551467","0.0-1.0-666.0","0","0","26119","","null","","","null","73","","","","","","","","","","","","","","","NaN",""
"","S1","","html-keyboard-response","488","551720","0.0-1.0-668.0","0","0","26119","","null","","","null","74","","","","","","","","","","","","","","","",""
"","ISI","","html-keyboard-response","489","553724","0.0-1.0-669.0","0","0","26119","","null","","","null","74","NaN","","","","","","","","","","","","","","",""
"","S2","","html-keyboard-response","490","553978","0.0-1.0-670.0","0","0","26119","","null","","","null","74","","NaN","","","","","","","","","","","","","",""
"","response","","html-keyboard-response","491","554555","0.0-1.0-671.0-0.0","0","0","26119","","575","","","75","74","","","2","74","training","adjacent","FG","6","7","R.jpg","M.jpg","1","1","1","",""
"","feedback","","html-keyboard-response","492","555558","0.0-1.0-672.0-0.0","0","0","26119","","null","","","null","74","","","","","","","","","","","","","","","",""
"","ITI","","html-keyboard-response","493","556563","0.0-1.0-675.0","0","0","26119","","null","","","null","74","","","","","","","","","","","","","","","NaN",""
"","S1","","html-keyboard-response","494","556816","0.0-1.0-677.0","0","0","26119","","null","","","null","75","","","","","","","","","","","","","","","",""
"","ISI","","html-keyboard-response","495","558819","0.0-1.0-678.0","0","0","26119","","null","","","null","75","NaN","","","","","","","","","","","","","","",""
"","S2","","html-keyboard-response","496","559073","0.0-1.0-679.0","0","0","26119","","null","","","null","75","","NaN","","","","","","","","","","","","","",""
"","response","","html-keyboard-response","497","560538","0.0-1.0-680.0-0.0","0","0","26119","","1463","","","68","75","","","2","75","training","adjacent","CB","3","2","N.jpg","P.jpg","0","0","1","",""
"","feedback","","html-keyboard-response","498","561542","0.0-1.0-681.0-0.0","0","0","26119","","null","","","null","75","","","","","","","","","","","","","","","",""
"","ITI","","html-keyboard-response","499","562545","0.0-1.0-684.0","0","0","26119","","null","","","null","75","","","","","","","","","","","","","","","NaN",""
"","S1","","html-keyboard-response","500","562797","0.0-1.0-686.0","0","0","26119","","null","","","null","76","","","","","","","","","","","","","","","",""
"","ISI","","html-keyboard-response","501","564799","0.0-1.0-687.0","0","0","26119","","null","","","null","76","NaN","","","","","","","","","","","","","","",""
"","S2","","html-keyboard-response","502","565051","0.0-1.0-688.0","0","0","26119","","null","","","null","76","","NaN","","","","","","","","","","","","","",""
"","response","","html-keyboard-response","503","566323","0.0-1.0-689.0-0.0","0","0","26119","","1271","","","68","76","","","2","76","training","adjacent","EF","5","6","Q.jpg","R.jpg","0","1","0","",""
"","feedback","","html-keyboard-response","504","567325","0.0-1.0-690.0-0.0","0","0","26119","","null","","","null","76","","","","","","","","","","","","","","","",""
"","time_out","","html-keyboard-response","505","569329","0.0-1.0-692.0-0.0","0","0","26119","","null","","","null","76","","","","","","","","","","","","","","","",""
"","ITI","","html-keyboard-response","506","570334","0.0-1.0-693.0","0","0","26119","","null","","","null","76","","","","","","","","","","","","","","","NaN",""
"","S1","","html-keyboard-response","507","570587","0.0-1.0-695.0","0","0","26119","","null","","","null","77","","","","","","","","","","","","","","","",""
"","ISI","","html-keyboard-response","508","572590","0.0-1.0-696.0","0","0","26119","","null","","","null","77","NaN","","","","","","","","","","","","","","",""
"","S2","","html-keyboard-response","509","572842","0.0-1.0-697.0","0","0","26119","","null","","","null","77","","NaN","","","","","","","","","","","","","",""
"","response","","html-keyboard-response","510","573045","0.0-1.0-698.0-0.0","0","0","26119","","200","","","75","77","","","2","77","training","adjacent","AB","1","2","L.jpg","P.jpg","1","1","1","",""
"","feedback","","html-keyboard-response","511","574048","0.0-1.0-699.0-0.0","0","0","26119","","null","","","null","77","","","","","","","","","","","","","","","",""
"","ITI","","html-keyboard-response","512","575051","0.0-1.0-702.0","0","0","26119","","null","","","null","77","","","","","","","","","","","","","","","NaN",""
"","S1","","html-keyboard-response","513","575305","0.0-1.0-704.0","0","0","26119","","null","","","null","78","","","","","","","","","","","","","","","",""
"","ISI","","html-keyboard-response","514","577308","0.0-1.0-705.0","0","0","26119","","null","","","null","78","NaN","","","","","","","","","","","","","","",""
"","S2","","html-keyboard-response","515","577562","0.0-1.0-706.0","0","0","26119","","null","","","null","78","","NaN","","","","","","","","","","","","","",""
"","response","","html-keyboard-response","516","578373","0.0-1.0-707.0-0.0","0","0","26119","","809","","","68","78","","","2","78","training","adjacent","FE","6","5","R.jpg","Q.jpg","0","0","1","",""
"","feedback","","html-keyboard-response","517","579377","0.0-1.0-708.0-0.0","0","0","26119","","null","","","null","78","","","","","","","","","","","","","","","",""
"","ITI","","html-keyboard-response","518","580387","0.0-1.0-711.0","0","0","26119","","null","","","null","78","","","","","","","","","","","","","","","NaN",""
"","S1","","html-keyboard-response","519","580640","0.0-1.0-713.0","0","0","26119","","null","","","null","79","","","","","","","","","","","","","","","",""
"","ISI","","html-keyboard-response","520","582643","0.0-1.0-714.0","0","0","26119","","null","","","null","79","NaN","","","","","","","","","","","","","","",""
"","S2","","html-keyboard-response","521","582895","0.0-1.0-715.0","0","0","26119","","null","","","null","79","","NaN","","","","","","","","","","","","","",""
"","response","","html-keyboard-response","522","583664","0.0-1.0-716.0-0.0","0","0","26119","","767","","","68","79","","","2","79","training","adjacent","GF","7","6","M.jpg","R.jpg","0","0","1","",""
"","feedback","","html-keyboard-response","523","584667","0.0-1.0-717.0-0.0","0","0","26119","","null","","","null","79","","","","","","","","","","","","","","","",""
"","ITI","","html-keyboard-response","524","585670","0.0-1.0-720.0","0","0","26119","","null","","","null","79","","","","","","","","","","","","","","","NaN",""
"","S1","","html-keyboard-response","525","585924","0.0-1.0-722.0","0","0","26119","","null","","","null","80","","","","","","","","","","","","","","","",""
"","ISI","","html-keyboard-response","526","587927","0.0-1.0-723.0","0","0","26119","","null","","","null","80","NaN","","","","","","","","","","","","","","",""
"","S2","","html-keyboard-response","527","588181","0.0-1.0-724.0","0","0","26119","","null","","","null","80","","NaN","","","","","","","","","","","","","",""
"","response","","html-keyboard-response","528","589411","0.0-1.0-725.0-0.0","0","0","26119","","1227","","","68","80","","","2","80","training","adjacent","CB","3","2","N.jpg","P.jpg","0","0","1","",""
"","feedback","","html-keyboard-response","529","590415","0.0-1.0-726.0-0.0","0","0","26119","","null","","","null","80","","","","","","","","","","","","","","","",""
"","ITI","","html-keyboard-response","530","591419","0.0-1.0-729.0","0","0","26119","","null","","","null","80","","","","","","","","","","","","","","","NaN",""
"","S1","","html-keyboard-response","531","591674","0.0-1.0-731.0","0","0","26119","","null","","","null","81","","","","","","","","","","","","","","","",""
"","ISI","","html-keyboard-response","532","593676","0.0-1.0-732.0","0","0","26119","","null","","","null","81","NaN","","","","","","","","","","","","","","",""
"","S2","","html-keyboard-response","533","593928","0.0-1.0-733.0","0","0","26119","","null","","","null","81","","NaN","","","","","","","","","","","","","",""
"","response","","html-keyboard-response","534","594855","0.0-1.0-734.0-0.0","0","0","26119","","925","","","75","81","","","2","81","training","adjacent","BA","2","1","P.jpg","L.jpg","1","0","0","",""
"","feedback","","html-keyboard-response","535","595858","0.0-1.0-735.0-0.0","0","0","26119","","null","","","null","81","","","","","","","","","","","","","","","",""
"","time_out","","html-keyboard-response","536","597862","0.0-1.0-737.0-0.0","0","0","26119","","null","","","null","81","","","","","","","","","","","","","","","",""
"","ITI","","html-keyboard-response","537","598865","0.0-1.0-738.0","0","0","26119","","null","","","null","81","","","","","","","","","","","","","","","NaN",""
"","S1","","html-keyboard-response","538","599120","0.0-1.0-740.0","0","0","26119","","null","","","null","82","","","","","","","","","","","","","","","",""
"","ISI","","html-keyboard-response","539","601123","0.0-1.0-741.0","0","0","26119","","null","","","null","82","NaN","","","","","","","","","","","","","","",""
"","S2","","html-keyboard-response","540","601378","0.0-1.0-742.0","0","0","26119","","null","","","null","82","","NaN","","","","","","","","","","","","","",""
"","response","","html-keyboard-response","541","602454","0.0-1.0-743.0-0.0","0","0","26119","","1072","","","75","82","","","2","82","training","adjacent","FG","6","7","R.jpg","M.jpg","1","1","1","",""
"","feedback","","html-keyboard-response","542","603457","0.0-1.0-744.0-0.0","0","0","26119","","null","","","null","82","","","","","","","","","","","","","","","",""
"","ITI","","html-keyboard-response","543","604460","0.0-1.0-747.0","0","0","26119","","null","","","null","82","","","","","","","","","","","","","","","NaN",""
"","S1","","html-keyboard-response","544","604714","0.0-1.0-749.0","0","0","26119","","null","","","null","83","","","","","","","","","","","","","","","",""
"","ISI","","html-keyboard-response","545","606717","0.0-1.0-750.0","0","0","26119","","null","","","null","83","NaN","","","","","","","","","","","","","","",""
"","S2","","html-keyboard-response","546","606972","0.0-1.0-751.0","0","0","26119","","null","","","null","83","","NaN","","","","","","","","","","","","","",""
"","response","","html-keyboard-response","547","607664","0.0-1.0-752.0-0.0","0","0","26119","","689","","","75","83","","","2","83","training","adjacent","GF","7","6","M.jpg","R.jpg","1","0","0","",""
"","feedback","","html-keyboard-response","548","608668","0.0-1.0-753.0-0.0","0","0","26119","","null","","","null","83","","","","","","","","","","","","","","","",""
"","time_out","","html-keyboard-response","549","610672","0.0-1.0-755.0-0.0","0","0","26119","","null","","","null","83","","","","","","","","","","","","","","","",""
"","ITI","","html-keyboard-response","550","611677","0.0-1.0-756.0","0","0","26119","","null","","","null","83","","","","","","","","","","","","","","","NaN",""
"","S1","","html-keyboard-response","551","611929","0.0-1.0-758.0","0","0","26119","","null","","","null","84","","","","","","","","","","","","","","","",""
"","ISI","","html-keyboard-response","552","613933","0.0-1.0-759.0","0","0","26119","","null","","","null","84","NaN","","","","","","","","","","","","","","",""
"","S2","","html-keyboard-response","553","614188","0.0-1.0-760.0","0","0","26119","","null","","","null","84","","NaN","","","","","","","","","","","","","",""
"","response","","html-keyboard-response","554","614838","0.0-1.0-761.0-0.0","0","0","26119","","648","","","68","84","","","2","84","training","adjacent","ED","5","4","Q.jpg","O.jpg","0","0","1","",""
"","feedback","","html-keyboard-response","555","615841","0.0-1.0-762.0-0.0","0","0","26119","","null","","","null","84","","","","","","","","","","","","","","","",""
"","ITI","","html-keyboard-response","556","616844","0.0-1.0-765.0","0","0","26119","","null","","","null","84","","","","","","","","","","","","","","","NaN",""
"","S1","","html-keyboard-response","557","617099","0.0-1.0-767.0","0","0","26119","","null","","","null","85","","","","","","","","","","","","","","","",""
"","ISI","","html-keyboard-response","558","619102","0.0-1.0-768.0","0","0","26119","","null","","","null","85","NaN","","","","","","","","","","","","","","",""
"","S2","","html-keyboard-response","559","619357","0.0-1.0-769.0","0","0","26119","","null","","","null","85","","NaN","","","","","","","","","","","","","",""
"","response","","html-keyboard-response","560","619934","0.0-1.0-770.0-0.0","0","0","26119","","575","","","68","85","","","2","85","training","adjacent","DC","4","3","O.jpg","N.jpg","0","0","1","",""
"","feedback","","html-keyboard-response","561","620939","0.0-1.0-771.0-0.0","0","0","26119","","null","","","null","85","","","","","","","","","","","","","","","",""
"","ITI","","html-keyboard-response","562","621944","0.0-1.0-774.0","0","0","26119","","null","","","null","85","","","","","","","","","","","","","","","NaN",""
"","S1","","html-keyboard-response","563","622197","0.0-1.0-776.0","0","0","26119","","null","","","null","86","","","","","","","","","","","","","","","",""
"","ISI","","html-keyboard-response","564","624201","0.0-1.0-777.0","0","0","26119","","null","","","null","86","NaN","","","","","","","","","","","","","","",""
"","S2","","html-keyboard-response","565","624456","0.0-1.0-778.0","0","0","26119","","null","","","null","86","","NaN","","","","","","","","","","","","","",""
"","response","","html-keyboard-response","566","625463","0.0-1.0-779.0-0.0","0","0","26119","","1004","","","68","86","","","2","86","training","adjacent","DC","4","3","O.jpg","N.jpg","0","0","1","",""
"","feedback","","html-keyboard-response","567","626467","0.0-1.0-780.0-0.0","0","0","26119","","null","","","null","86","","","","","","","","","","","","","","","",""
"","ITI","","html-keyboard-response","568","627471","0.0-1.0-783.0","0","0","26119","","null","","","null","86","","","","","","","","","","","","","","","NaN",""
"","S1","","html-keyboard-response","569","627725","0.0-1.0-785.0","0","0","26119","","null","","","null","87","","","","","","","","","","","","","","","",""
"","ISI","","html-keyboard-response","570","629727","0.0-1.0-786.0","0","0","26119","","null","","","null","87","NaN","","","","","","","","","","","","","","",""
"","S2","","html-keyboard-response","571","629979","0.0-1.0-787.0","0","0","26119","","null","","","null","87","","NaN","","","","","","","","","","","","","",""
"","response","","html-keyboard-response","572","630113","0.0-1.0-788.0-0.0","0","0","26119","","133","","","75","87","","","2","87","training","adjacent","CD","3","4","N.jpg","O.jpg","1","1","1","",""
"","feedback","","html-keyboard-response","573","631117","0.0-1.0-789.0-0.0","0","0","26119","","null","","","null","87","","","","","","","","","","","","","","","",""
"","ITI","","html-keyboard-response","574","632133","0.0-1.0-792.0","0","0","26119","","null","","","null","87","","","","","","","","","","","","","","","NaN",""
"","S1","","html-keyboard-response","575","632387","0.0-1.0-794.0","0","0","26119","","null","","","null","88","","","","","","","","","","","","","","","",""
"","ISI","","html-keyboard-response","576","634389","0.0-1.0-795.0","0","0","26119","","null","","","null","88","NaN","","","","","","","","","","","","","","",""
"","S2","","html-keyboard-response","577","634643","0.0-1.0-796.0","0","0","26119","","null","","","null","88","","NaN","","","","","","","","","","","","","",""
"","response","","html-keyboard-response","578","635607","0.0-1.0-797.0-0.0","0","0","26119","","961","","","75","88","","","2","88","training","adjacent","BC","2","3","P.jpg","N.jpg","1","1","1","",""
"","feedback","","html-keyboard-response","579","636611","0.0-1.0-798.0-0.0","0","0","26119","","null","","","null","88","","","","","","","","","","","","","","","",""
