"success","ttype","start_time","trial_type","trial_index","time_elapsed","internal_node_id","warning","missed_checkup","PID","view_history","rt","responses","repeat_instructions","key_press","index","keypress_isi","keypress_S2","block","trial_num","phase","group_type","pair_type","S1_stim","S2_stim","S1_img","S2_img","S1_chosen","S1_higher","accuracy","keypress_iti","total_bonus_tally"
"true","full_screen","d03072023hr1839","fullscreen","0","13885","0.0-0.0","0","0","45180","","","","","","","","","","","","","","","","","","","","","",""
"","instructions","","instructions","1","65988","0.0-1.0-0.0-0.0","0","0","45180","[{""page_index"":0,""viewing_time"":8613},{""page_index"":1,""viewing_time"":22087},{""page_index"":2,""viewing_time"":17998},{""page_index"":3,""viewing_time"":3401}]","52099","","","","","","","","","","","","","","","","","","","",""
"","comprehension_check","","survey-multi-choice","2","104626","0.0-1.0-0.0-1.0","0","0","45180","","38630","{""Q0"":""True"",""Q1"":""D"",""Q2"":""Only when the screen 'MAKE A CHOICE' is shown"",""Q3"":""Green mark"",""Q4"":""either D or K""}","1","","","","","","","","","","","","","","","","","",""
"","missed_instruction_checkup","","html-keyboard-response","3","108679","0.0-1.0-0.0-2.0-0.0","0","1","45180","","4049","","","32","","","","","","","","","","","","","","","","",""
"","instructions","","instructions","4","152895","0.0-1.0-0.1-0.1","0","0","45180","[{""page_index"":0,""viewing_time"":6980},{""page_index"":1,""viewing_time"":28848},{""page_index"":2,""viewing_time"":6783},{""page_index"":3,""viewing_time"":1602}]","44214","","","","","","","","","","","","","","","","","","","",""
"","comprehension_check","","survey-multi-choice","5","172666","0.0-1.0-0.1-1.1","0","0","45180","","19766","{""Q0"":""True"",""Q1"":""D"",""Q2"":""Once the second image appears and while the screen 'MAKE A CHOICE' is shown"",""Q3"":""Green mark"",""Q4"":""either D or K""}","0","","","","","","","","","","","","","","","","","",""
"","start_exp","","html-keyboard-response","6","175213","0.0-1.0-1.0","0","0","45180","","2545","","","32","","","","","","","","","","","","","","","","",""
"","S1","","html-keyboard-response","7","175467","0.0-1.0-2.0","0","0","45180","","null","","","null","0","","","","","","","","","","","","","","","",""
"","ISI","","html-keyboard-response","8","176469","0.0-1.0-3.0","0","0","45180","","null","","","null","0","NaN","","","","","","","","","","","","","","",""
"","S2","","html-keyboard-response","9","176722","0.0-1.0-4.0","0","0","45180","","null","","","null","0","","NaN","","","","","","","","","","","","","",""
"","response","","html-keyboard-response","10","177519","0.0-1.0-5.0-0.0","0","0","45180","","796","","","68","0","","","1","0","training","adjacent","FE","6","5","Q.jpg","O.jpg","1","0","0","",""
"","feedback","","html-keyboard-response","11","178523","0.0-1.0-6.0-0.0","0","0","45180","","null","","","null","0","","","","","","","","","","","","","","","",""
"","time_out","","html-keyboard-response","12","180526","0.0-1.0-8.0-0.0","0","0","45180","","null","","","null","0","","","","","","","","","","","","","","","",""
"","ITI","","html-keyboard-response","13","181530","0.0-1.0-9.0","0","0","45180","","null","","","null","0","","","","","","","","","","","","","","","NaN",""
"","S1","","html-keyboard-response","14","181783","0.0-1.0-11.0","0","0","45180","","null","","","null","1","","","","","","","","","","","","","","","",""
"","ISI","","html-keyboard-response","15","182786","0.0-1.0-12.0","0","0","45180","","null","","","null","1","NaN","","","","","","","","","","","","","","",""
"","S2","","html-keyboard-response","16","183039","0.0-1.0-13.0","0","0","45180","","null","","","null","1","","NaN","","","","","","","","","","","","","",""
"","response","","html-keyboard-response","17","183582","0.0-1.0-14.0-0.0","0","0","45180","","541","","","75","1","","","1","1","training","adjacent","CD","3","4","N.jpg","M.jpg","0","1","0","",""
"","feedback","","html-keyboard-response","18","184590","0.0-1.0-15.0-0.0","0","0","45180","","null","","","null","1","","","","","","","","","","","","","","","",""
"","time_out","","html-keyboard-response","19","186593","0.0-1.0-17.0-0.0","0","0","45180","","null","","","null","1","","","","","","","","","","","","","","","",""
"","ITI","","html-keyboard-response","20","187597","0.0-1.0-18.0","0","0","45180","","null","","","null","1","","","","","","","","","","","","","","","NaN",""
"","S1","","html-keyboard-response","21","187850","0.0-1.0-20.0","0","0","45180","","null","","","null","2","","","","","","","","","","","","","","","",""
"","ISI","","html-keyboard-response","22","188854","0.0-1.0-21.0","0","0","45180","","null","","","null","2","NaN","","","","","","","","","","","","","","",""
"","S2","","html-keyboard-response","23","189108","0.0-1.0-22.0","0","0","45180","","null","","","null","2","","NaN","","","","","","","","","","","","","",""
"","response","","html-keyboard-response","24","189499","0.0-1.0-23.0-0.0","0","0","45180","","387","","","68","2","","","1","2","training","adjacent","BA","2","1","P.jpg","R.jpg","1","0","0","",""
"","feedback","","html-keyboard-response","25","190502","0.0-1.0-24.0-0.0","0","0","45180","","null","","","null","2","","","","","","","","","","","","","","","",""
"","time_out","","html-keyboard-response","26","192506","0.0-1.0-26.0-0.0","0","0","45180","","null","","","null","2","","","","","","","","","","","","","","","",""
"","ITI","","html-keyboard-response","27","193529","0.0-1.0-27.0","0","0","45180","","null","","","null","2","","","","","","","","","","","","","","","NaN",""
"","S1","","html-keyboard-response","28","193782","0.0-1.0-29.0","0","0","45180","","null","","","null","3","","","","","","","","","","","","","","","",""
"","ISI","","html-keyboard-response","29","194801","0.0-1.0-30.0","0","0","45180","","null","","","null","3","NaN","","","","","","","","","","","","","","",""
"","S2","","html-keyboard-response","30","195054","0.0-1.0-31.0","0","0","45180","","null","","","null","3","","NaN","","","","","","","","","","","","","",""
"","response","","html-keyboard-response","31","195228","0.0-1.0-32.0-0.0","0","0","45180","","171","","","68","3","","","1","3","training","adjacent","ED","5","4","O.jpg","M.jpg","1","0","0","",""
"","feedback","","html-keyboard-response","32","196233","0.0-1.0-33.0-0.0","0","0","45180","","null","","","null","3","","","","","","","","","","","","","","","",""
"","time_out","","html-keyboard-response","33","198236","0.0-1.0-35.0-0.0","0","0","45180","","null","","","null","3","","","","","","","","","","","","","","","",""
"","ITI","","html-keyboard-response","34","199242","0.0-1.0-36.0","0","0","45180","","null","","","null","3","","","","","","","","","","","","","","","NaN",""
"","S1","","html-keyboard-response","35","199496","0.0-1.0-38.0","0","0","45180","","null","","","null","4","","","","","","","","","","","","","","","",""
"","ISI","","html-keyboard-response","36","200499","0.0-1.0-39.0","0","0","45180","","null","","","null","4","NaN","","","","","","","","","","","","","","",""
"","S2","","html-keyboard-response","37","200753","0.0-1.0-40.0","0","0","45180","","null","","","null","4","","NaN","","","","","","","","","","","","","",""
"","response","","html-keyboard-response","38","200909","0.0-1.0-41.0-0.0","0","0","45180","","155","","","75","4","","","1","4","training","adjacent","BC","2","3","P.jpg","N.jpg","0","1","0","",""
"","feedback","","html-keyboard-response","39","201913","0.0-1.0-42.0-0.0","0","0","45180","","null","","","null","4","","","","","","","","","","","","","","","",""
"","time_out","","html-keyboard-response","40","203916","0.0-1.0-44.0-0.0","0","0","45180","","null","","","null","4","","","","","","","","","","","","","","","",""
"","ITI","","html-keyboard-response","41","204921","0.0-1.0-45.0","0","0","45180","","null","","","null","4","","","","","","","","","","","","","","","NaN",""
"","S1","","html-keyboard-response","42","205183","0.0-1.0-47.0","0","0","45180","","null","","","null","5","","","","","","","","","","","","","","","",""
"","ISI","","html-keyboard-response","43","206186","0.0-1.0-48.0","0","0","45180","","null","","","null","5","NaN","","","","","","","","","","","","","","",""
"","S2","","html-keyboard-response","44","206440","0.0-1.0-49.0","0","0","45180","","null","","","null","5","","NaN","","","","","","","","","","","","","",""
"","response","","html-keyboard-response","45","206607","0.0-1.0-50.0-0.0","0","0","45180","","165","","","68","5","","","1","5","training","adjacent","GF","7","6","L.jpg","Q.jpg","1","0","0","",""
"","feedback","","html-keyboard-response","46","207610","0.0-1.0-51.0-0.0","0","0","45180","","null","","","null","5","","","","","","","","","","","","","","","",""
"","time_out","","html-keyboard-response","47","209626","0.0-1.0-53.0-0.0","0","0","45180","","null","","","null","5","","","","","","","","","","","","","","","",""
"","ITI","","html-keyboard-response","48","210629","0.0-1.0-54.0","0","0","45180","","null","","","null","5","","","","","","","","","","","","","","","NaN",""
"","S1","","html-keyboard-response","49","210881","0.0-1.0-56.0","0","0","45180","","null","","","null","6","","","","","","","","","","","","","","","",""
"","ISI","","html-keyboard-response","50","211884","0.0-1.0-57.0","0","0","45180","","null","","","null","6","NaN","","","","","","","","","","","","","","",""
"","S2","","html-keyboard-response","51","212140","0.0-1.0-58.0","0","0","45180","","null","","","null","6","","NaN","","","","","","","","","","","","","",""
"","response","","html-keyboard-response","52","212480","0.0-1.0-59.0-0.0","0","0","45180","","339","","","75","6","","","1","6","training","adjacent","BA","2","1","P.jpg","R.jpg","0","0","1","",""
"","feedback","","html-keyboard-response","53","213483","0.0-1.0-60.0-0.0","0","0","45180","","null","","","null","6","","","","","","","","","","","","","","","",""
"","ITI","","html-keyboard-response","54","214485","0.0-1.0-63.0","0","0","45180","","null","","","null","6","","","","","","","","","","","","","","","NaN",""
"","S1","","html-keyboard-response","55","214747","0.0-1.0-65.0","0","0","45180","","null","","","null","7","","","","","","","","","","","","","","","",""
"","ISI","","html-keyboard-response","56","215751","0.0-1.0-66.0","0","0","45180","","null","","","null","7","NaN","","","","","","","","","","","","","","",""
"","S2","","html-keyboard-response","57","216005","0.0-1.0-67.0","0","0","45180","","null","","","null","7","","NaN","","","","","","","","","","","","","",""
"","response","","html-keyboard-response","58","216351","0.0-1.0-68.0-0.0","0","0","45180","","343","","","75","7","","","1","7","training","adjacent","CB","3","2","N.jpg","P.jpg","0","0","1","",""
"","feedback","","html-keyboard-response","59","217353","0.0-1.0-69.0-0.0","0","0","45180","","null","","","null","7","","","","","","","","","","","","","","","",""
"","ITI","","html-keyboard-response","60","218356","0.0-1.0-72.0","0","0","45180","","null","","","null","7","","","","","","","","","","","","","","","NaN",""
"","S1","","html-keyboard-response","61","218610","0.0-1.0-74.0","0","0","45180","","null","","","null","8","","","","","","","","","","","","","","","",""
"","ISI","","html-keyboard-response","62","219613","0.0-1.0-75.0","0","0","45180","","null","","","null","8","NaN","","","","","","","","","","","","","","",""
"","S2","","html-keyboard-response","63","219868","0.0-1.0-76.0","0","0","45180","","null","","","null","8","","NaN","","","","","","","","","","","","","",""
"","response","","html-keyboard-response","64","220104","0.0-1.0-77.0-0.0","0","0","45180","","234","","","68","8","","","1","8","training","adjacent","AB","1","2","R.jpg","P.jpg","1","1","1","",""
"","feedback","","html-keyboard-response","65","221107","0.0-1.0-78.0-0.0","0","0","45180","","null","","","null","8","","","","","","","","","","","","","","","",""
"","ITI","","html-keyboard-response","66","222111","0.0-1.0-81.0","0","0","45180","","null","","","null","8","","","","","","","","","","","","","","","NaN",""
"","S1","","html-keyboard-response","67","222364","0.0-1.0-83.0","0","0","45180","","null","","","null","9","","","","","","","","","","","","","","","",""
"","ISI","","html-keyboard-response","68","223367","0.0-1.0-84.0","0","0","45180","","null","","","null","9","NaN","","","","","","","","","","","","","","",""
"","S2","","html-keyboard-response","69","223619","0.0-1.0-85.0","0","0","45180","","null","","","null","9","","NaN","","","","","","","","","","","","","",""
"","response","","html-keyboard-response","70","223902","0.0-1.0-86.0-0.0","0","0","45180","","281","","","75","9","","","1","9","training","adjacent","AB","1","2","R.jpg","P.jpg","0","1","0","",""
"","feedback","","html-keyboard-response","71","224906","0.0-1.0-87.0-0.0","0","0","45180","","null","","","null","9","","","","","","","","","","","","","","","",""
"","time_out","","html-keyboard-response","72","226909","0.0-1.0-89.0-0.0","0","0","45180","","null","","","null","9","","","","","","","","","","","","","","","",""
"","ITI","","html-keyboard-response","73","227913","0.0-1.0-90.0","0","0","45180","","null","","","null","9","","","","","","","","","","","","","","","NaN",""
"","S1","","html-keyboard-response","74","228167","0.0-1.0-92.0","0","0","45180","","null","","","null","10","","","","","","","","","","","","","","","",""
"","ISI","","html-keyboard-response","75","229170","0.0-1.0-93.0","0","0","45180","","null","","","null","10","NaN","","","","","","","","","","","","","","",""
"","S2","","html-keyboard-response","76","229423","0.0-1.0-94.0","0","0","45180","","null","","","null","10","","NaN","","","","","","","","","","","","","",""
"","response","","html-keyboard-response","77","229664","0.0-1.0-95.0-0.0","0","0","45180","","237","","","68","10","","","1","10","training","adjacent","BC","2","3","P.jpg","N.jpg","1","1","1","",""
"","feedback","","html-keyboard-response","78","230668","0.0-1.0-96.0-0.0","0","0","45180","","null","","","null","10","","","","","","","","","","","","","","","",""
"","ITI","","html-keyboard-response","79","231670","0.0-1.0-99.0","0","0","45180","","null","","","null","10","","","","","","","","","","","","","","","NaN",""
"","S1","","html-keyboard-response","80","231924","0.0-1.0-101.0","0","0","45180","","null","","","null","11","","","","","","","","","","","","","","","",""
"","ISI","","html-keyboard-response","81","232928","0.0-1.0-102.0","0","0","45180","","null","","","null","11","NaN","","","","","","","","","","","","","","",""
"","S2","","html-keyboard-response","82","233180","0.0-1.0-103.0","0","0","45180","","null","","","null","11","","NaN","","","","","","","","","","","","","",""
"","response","","html-keyboard-response","83","233449","0.0-1.0-104.0-0.0","0","0","45180","","267","","","68","11","","","1","11","training","adjacent","CD","3","4","N.jpg","M.jpg","1","1","1","",""
"","feedback","","html-keyboard-response","84","234453","0.0-1.0-105.0-0.0","0","0","45180","","null","","","null","11","","","","","","","","","","","","","","","",""
"","ITI","","html-keyboard-response","85","235458","0.0-1.0-108.0","0","0","45180","","null","","","null","11","","","","","","","","","","","","","","","NaN",""
"","S1","","html-keyboard-response","86","235711","0.0-1.0-110.0","0","0","45180","","null","","","null","12","","","","","","","","","","","","","","","",""
"","ISI","","html-keyboard-response","87","236713","0.0-1.0-111.0","0","0","45180","","null","","","null","12","NaN","","","","","","","","","","","","","","",""
"","S2","","html-keyboard-response","88","236966","0.0-1.0-112.0","0","0","45180","","null","","","null","12","","NaN","","","","","","","","","","","","","",""
"","response","","html-keyboard-response","89","237252","0.0-1.0-113.0-0.0","0","0","45180","","283","","","68","12","","","1","12","training","adjacent","AB","1","2","R.jpg","P.jpg","1","1","1","",""
"","feedback","","html-keyboard-response","90","238256","0.0-1.0-114.0-0.0","0","0","45180","","null","","","null","12","","","","","","","","","","","","","","","",""
"","ITI","","html-keyboard-response","91","239258","0.0-1.0-117.0","0","0","45180","","null","","","null","12","","","","","","","","","","","","","","","NaN",""
"","S1","","html-keyboard-response","92","239511","0.0-1.0-119.0","0","0","45180","","null","","","null","13","","","","","","","","","","","","","","","",""
"","ISI","","html-keyboard-response","93","240514","0.0-1.0-120.0","0","0","45180","","null","","","null","13","NaN","","","","","","","","","","","","","","",""
"","S2","","html-keyboard-response","94","240769","0.0-1.0-121.0","0","0","45180","","null","","","null","13","","NaN","","","","","","","","","","","","","",""
"","response","","html-keyboard-response","95","241060","0.0-1.0-122.0-0.0","0","0","45180","","289","","","68","13","","","1","13","training","adjacent","BC","2","3","P.jpg","N.jpg","1","1","1","",""
"","feedback","","html-keyboard-response","96","242064","0.0-1.0-123.0-0.0","0","0","45180","","null","","","null","13","","","","","","","","","","","","","","","",""
"","ITI","","html-keyboard-response","97","243068","0.0-1.0-126.0","0","0","45180","","null","","","null","13","","","","","","","","","","","","","","","NaN",""
"","S1","","html-keyboard-response","98","243333","0.0-1.0-128.0","0","0","45180","","null","","","null","14","","","","","","","","","","","","","","","",""
"","ISI","","html-keyboard-response","99","244336","0.0-1.0-129.0","0","0","45180","","null","","","null","14","NaN","","","","","","","","","","","","","","",""
"","S2","","html-keyboard-response","100","244589","0.0-1.0-130.0","0","0","45180","","null","","","null","14","","NaN","","","","","","","","","","","","","",""
"","response","","html-keyboard-response","101","244952","0.0-1.0-131.0-0.0","0","0","45180","","359","","","75","14","","","1","14","training","adjacent","BA","2","1","P.jpg","R.jpg","0","0","1","",""
"","feedback","","html-keyboard-response","102","245957","0.0-1.0-132.0-0.0","0","0","45180","","null","","","null","14","","","","","","","","","","","","","","","",""
"","ITI","","html-keyboard-response","103","246979","0.0-1.0-135.0","0","0","45180","","null","","","null","14","","","","","","","","","","","","","","","NaN",""
"","S1","","html-keyboard-response","104","247232","0.0-1.0-137.0","0","0","45180","","null","","","null","15","","","","","","","","","","","","","","","",""
"","ISI","","html-keyboard-response","105","248235","0.0-1.0-138.0","0","0","45180","","null","","","null","15","NaN","","","","","","","","","","","","","","",""
"","S2","","html-keyboard-response","106","248489","0.0-1.0-139.0","0","0","45180","","null","","","null","15","","NaN","","","","","","","","","","","","","",""
"","response","","html-keyboard-response","107","248643","0.0-1.0-140.0-0.0","0","0","45180","","151","","","75","15","","","1","15","training","adjacent","GF","7","6","L.jpg","Q.jpg","0","0","1","",""
"","feedback","","html-keyboard-response","108","249646","0.0-1.0-141.0-0.0","0","0","45180","","null","","","null","15","","","","","","","","","","","","","","","",""
"","ITI","","html-keyboard-response","109","250650","0.0-1.0-144.0","0","0","45180","","null","","","null","15","","","","","","","","","","","","","","","NaN",""
"","S1","","html-keyboard-response","110","250904","0.0-1.0-146.0","0","0","45180","","null","","","null","16","","","","","","","","","","","","","","","",""
"","ISI","","html-keyboard-response","111","251908","0.0-1.0-147.0","0","0","45180","","null","","","null","16","NaN","","","","","","","","","","","","","","",""
"","S2","","html-keyboard-response","112","252163","0.0-1.0-148.0","0","0","45180","","null","","","null","16","","NaN","","","","","","","","","","","","","",""
"","response","","html-keyboard-response","113","252518","0.0-1.0-149.0-0.0","0","0","45180","","352","","","75","16","","","1","16","training","adjacent","EF","5","6","O.jpg","Q.jpg","0","1","0","",""
"","feedback","","html-keyboard-response","114","253524","0.0-1.0-150.0-0.0","0","0","45180","","null","","","null","16","","","","","","","","","","","","","","","",""
"","time_out","","html-keyboard-response","115","255527","0.0-1.0-152.0-0.0","0","0","45180","","null","","","null","16","","","","","","","","","","","","","","","",""
"","ITI","","html-keyboard-response","116","256529","0.0-1.0-153.0","0","0","45180","","null","","","null","16","","","","","","","","","","","","","","","NaN",""
"","S1","","html-keyboard-response","117","256782","0.0-1.0-155.0","0","0","45180","","null","","","null","17","","","","","","","","","","","","","","","",""
"","ISI","","html-keyboard-response","118","257787","0.0-1.0-156.0","0","0","45180","","null","","","null","17","NaN","","","","","","","","","","","","","","",""
"","S2","","html-keyboard-response","119","258041","0.0-1.0-157.0","0","0","45180","","null","","","null","17","","NaN","","","","","","","","","","","","","",""
"","response","","html-keyboard-response","120","258503","0.0-1.0-158.0-0.0","0","0","45180","","460","","","75","17","","","1","17","training","adjacent","CB","3","2","N.jpg","P.jpg","0","0","1","",""
"","feedback","","html-keyboard-response","121","259507","0.0-1.0-159.0-0.0","0","0","45180","","null","","","null","17","","","","","","","","","","","","","","","",""
"","ITI","","html-keyboard-response","122","260510","0.0-1.0-162.0","0","0","45180","","null","","","null","17","","","","","","","","","","","","","","","NaN",""
"","S1","","html-keyboard-response","123","260765","0.0-1.0-164.0","0","0","45180","","null","","","null","18","","","","","","","","","","","","","","","",""
"","ISI","","html-keyboard-response","124","261769","0.0-1.0-165.0","0","0","45180","","null","","","null","18","NaN","","","","","","","","","","","","","","",""
"","S2","","html-keyboard-response","125","262021","0.0-1.0-166.0","0","0","45180","","null","","","null","18","","NaN","","","","","","","","","","","","","",""
"","response","","html-keyboard-response","126","262221","0.0-1.0-167.0-0.0","0","0","45180","","198","","","68","18","","","1","18","training","adjacent","BC","2","3","P.jpg","N.jpg","1","1","1","",""
"","feedback","","html-keyboard-response","127","263224","0.0-1.0-168.0-0.0","0","0","45180","","null","","","null","18","","","","","","","","","","","","","","","",""
"","ITI","","html-keyboard-response","128","264228","0.0-1.0-171.0","0","0","45180","","null","","","null","18","","","","","","","","","","","","","","","NaN",""
"","S1","","html-keyboard-response","129","264481","0.0-1.0-173.0","0","0","45180","","null","","","null","19","","","","","","","","","","","","","","","",""
"","ISI","","html-keyboard-response","130","265486","0.0-1.0-174.0","0","0","45180","","null","","","null","19","NaN","","","","","","","","","","","","","","",""
"","S2","","html-keyboard-response","131","265742","0.0-1.0-175.0","0","0","45180","","null","","","null","19","","NaN","","","","","","","","","","","","","",""
"","response","","html-keyboard-response","132","265841","0.0-1.0-176.0-0.0","0","0","45180","","96","","","75","19","","","1","19","training","adjacent","FE","6","5","Q.jpg","O.jpg","0","0","1","",""
"","feedback","","html-keyboard-response","133","266849","0.0-1.0-177.0-0.0","0","0","45180","","null","","","null","19","","","","","","","","","","","","","","","",""
"","ITI","","html-keyboard-response","134","267877","0.0-1.0-180.0","0","0","45180","","null","","","null","19","","","","","","","","","","","","","","","NaN",""
"","S1","","html-keyboard-response","135","268129","0.0-1.0-182.0","0","0","45180","","null","","","null","20","","","","","","","","","","","","","","","",""
"","ISI","","html-keyboard-response","136","269132","0.0-1.0-183.0","0","0","45180","","null","","","null","20","NaN","","","","","","","","","","","","","","",""
"","S2","","html-keyboard-response","137","269387","0.0-1.0-184.0","0","0","45180","","null","","","null","20","","NaN","","","","","","","","","","","","","",""
"","response","","html-keyboard-response","138","269614","0.0-1.0-185.0-0.0","0","0","45180","","223","","","75","20","","","1","20","training","adjacent","DE","4","5","M.jpg","O.jpg","0","1","0","",""
"","feedback","","html-keyboard-response","139","270617","0.0-1.0-186.0-0.0","0","0","45180","","null","","","null","20","","","","","","","","","","","","","","","",""
"","time_out","","html-keyboard-response","140","272620","0.0-1.0-188.0-0.0","0","0","45180","","null","","","null","20","","","","","","","","","","","","","","","",""
"","ITI","","html-keyboard-response","141","273625","0.0-1.0-189.0","0","0","45180","","null","","","null","20","","","","","","","","","","","","","","","NaN",""
"","S1","","html-keyboard-response","142","273882","0.0-1.0-191.0","0","0","45180","","null","","","null","21","","","","","","","","","","","","","","","",""
"","ISI","","html-keyboard-response","143","274885","0.0-1.0-192.0","0","0","45180","","null","","","null","21","NaN","","","","","","","","","","","","","","",""
"","S2","","html-keyboard-response","144","275139","0.0-1.0-193.0","0","0","45180","","null","","","null","21","","NaN","","","","","","","","","","","","","",""
"","response","","html-keyboard-response","145","275418","0.0-1.0-194.0-0.0","0","0","45180","","278","","","68","21","","","1","21","training","adjacent","DE","4","5","M.jpg","O.jpg","1","1","1","",""
"","feedback","","html-keyboard-response","146","276431","0.0-1.0-195.0-0.0","0","0","45180","","null","","","null","21","","","","","","","","","","","","","","","",""
"","ITI","","html-keyboard-response","147","277440","0.0-1.0-198.0","0","0","45180","","null","","","null","21","","","","","","","","","","","","","","","NaN",""
"","S1","","html-keyboard-response","148","277693","0.0-1.0-200.0","0","0","45180","","null","","","null","22","","","","","","","","","","","","","","","",""
"","ISI","","html-keyboard-response","149","278696","0.0-1.0-201.0","0","0","45180","","null","","","null","22","NaN","","","","","","","","","","","","","","",""
"","S2","","html-keyboard-response","150","278949","0.0-1.0-202.0","0","0","45180","","null","","","null","22","","NaN","","","","","","","","","","","","","",""
"","response","","html-keyboard-response","151","279386","0.0-1.0-203.0-0.0","0","0","45180","","434","","","68","22","","","1","22","training","adjacent","CD","3","4","N.jpg","M.jpg","1","1","1","",""
"","feedback","","html-keyboard-response","152","280389","0.0-1.0-204.0-0.0","0","0","45180","","null","","","null","22","","","","","","","","","","","","","","","",""
"","ITI","","html-keyboard-response","153","281392","0.0-1.0-207.0","0","0","45180","","null","","","null","22","","","","","","","","","","","","","","","NaN",""
"","S1","","html-keyboard-response","154","281652","0.0-1.0-209.0","0","0","45180","","null","","","null","23","","","","","","","","","","","","","","","",""
"","ISI","","html-keyboard-response","155","282654","0.0-1.0-210.0","0","0","45180","","null","","","null","23","NaN","","","","","","","","","","","","","","",""
"","S2","","html-keyboard-response","156","282908","0.0-1.0-211.0","0","0","45180","","null","","","null","23","","NaN","","","","","","","","","","","","","",""
"","response","","html-keyboard-response","157","283242","0.0-1.0-212.0-0.0","0","0","45180","","332","","","68","23","","","1","23","training","adjacent","CD","3","4","N.jpg","M.jpg","1","1","1","",""
"","feedback","","html-keyboard-response","158","284246","0.0-1.0-213.0-0.0","0","0","45180","","null","","","null","23","","","","","","","","","","","","","","","",""
"","ITI","","html-keyboard-response","159","285263","0.0-1.0-216.0","0","0","45180","","null","","","null","23","","","","","","","","","","","","","","","NaN",""
"","S1","","html-keyboard-response","160","285530","0.0-1.0-218.0","0","0","45180","","null","","","null","24","","","","","","","","","","","","","","","",""
"","ISI","","html-keyboard-response","161","286534","0.0-1.0-219.0","0","0","45180","","null","","","null","24","NaN","","","","","","","","","","","","","","",""
"","S2","","html-keyboard-response","162","286788","0.0-1.0-220.0","0","0","45180","","null","","","null","24","","NaN","","","","","","","","","","","","","",""
"","response","","html-keyboard-response","163","287057","0.0-1.0-221.0-0.0","0","0","45180","","267","","","75","24","","","1","24","training","adjacent","CB","3","2","N.jpg","P.jpg","0","0","1","",""
"","feedback","","html-keyboard-response","164","288071","0.0-1.0-222.0-0.0","0","0","45180","","null","","","null","24","","","","","","","","","","","","","","","",""
"","ITI","","html-keyboard-response","165","289075","0.0-1.0-225.0","0","0","45180","","null","","","null","24","","","","","","","","","","","","","","","NaN",""
"","S1","","html-keyboard-response","166","289328","0.0-1.0-227.0","0","0","45180","","null","","","null","25","","","","","","","","","","","","","","","",""
"","ISI","","html-keyboard-response","167","290330","0.0-1.0-228.0","0","0","45180","","null","","","null","25","NaN","","","","","","","","","","","","","","",""
"","S2","","html-keyboard-response","168","290584","0.0-1.0-229.0","0","0","45180","","null","","","null","25","","NaN","","","","","","","","","","","","","",""
"","response","","html-keyboard-response","169","291064","0.0-1.0-230.0-0.0","0","0","45180","","476","","","68","25","","","1","25","training","adjacent","BA","2","1","P.jpg","R.jpg","1","0","0","",""
"","feedback","","html-keyboard-response","170","292067","0.0-1.0-231.0-0.0","0","0","45180","","null","","","null","25","","","","","","","","","","","","","","","",""
"","time_out","","html-keyboard-response","171","294070","0.0-1.0-233.0-0.0","0","0","45180","","null","","","null","25","","","","","","","","","","","","","","","",""
"","ITI","","html-keyboard-response","172","295073","0.0-1.0-234.0","0","0","45180","","null","","","null","25","","","","","","","","","","","","","","","NaN",""
"","S1","","html-keyboard-response","173","295328","0.0-1.0-236.0","0","0","45180","","null","","","null","26","","","","","","","","","","","","","","","",""
"","ISI","","html-keyboard-response","174","296332","0.0-1.0-237.0","0","0","45180","","null","","","null","26","NaN","","","","","","","","","","","","","","",""
"","S2","","html-keyboard-response","175","296585","0.0-1.0-238.0","0","0","45180","","null","","","null","26","","NaN","","","","","","","","","","","","","",""
"","response","","html-keyboard-response","176","296672","0.0-1.0-239.0-0.0","0","0","45180","","83","","","75","26","","","1","26","training","adjacent","GF","7","6","L.jpg","Q.jpg","0","0","1","",""
"","feedback","","html-keyboard-response","177","297676","0.0-1.0-240.0-0.0","0","0","45180","","null","","","null","26","","","","","","","","","","","","","","","",""
"","ITI","","html-keyboard-response","178","298678","0.0-1.0-243.0","0","0","45180","","null","","","null","26","","","","","","","","","","","","","","","NaN",""
"","S1","","html-keyboard-response","179","298932","0.0-1.0-245.0","0","0","45180","","null","","","null","27","","","","","","","","","","","","","","","",""
"","ISI","","html-keyboard-response","180","299950","0.0-1.0-246.0","0","0","45180","","null","","","null","27","NaN","","","","","","","","","","","","","","",""
"","S2","","html-keyboard-response","181","300204","0.0-1.0-247.0","0","0","45180","","null","","","null","27","","NaN","","","","","","","","","","","","","",""
"","response","","html-keyboard-response","182","300234","0.0-1.0-248.0-0.0","0","0","45180","","29","","","75","27","","","1","27","training","adjacent","EF","5","6","O.jpg","Q.jpg","0","1","0","",""
"","feedback","","html-keyboard-response","183","301238","0.0-1.0-249.0-0.0","0","0","45180","","null","","","null","27","","","","","","","","","","","","","","","",""
"","time_out","","html-keyboard-response","184","303241","0.0-1.0-251.0-0.0","0","0","45180","","null","","","null","27","","","","","","","","","","","","","","","",""
"","ITI","","html-keyboard-response","185","304244","0.0-1.0-252.0","0","0","45180","","null","","","null","27","","","","","","","","","","","","","","","NaN",""
"","S1","","html-keyboard-response","186","304497","0.0-1.0-254.0","0","0","45180","","null","","","null","28","","","","","","","","","","","","","","","",""
"","ISI","","html-keyboard-response","187","305501","0.0-1.0-255.0","0","0","45180","","null","","","null","28","NaN","","","","","","","","","","","","","","",""
"","S2","","html-keyboard-response","188","305753","0.0-1.0-256.0","0","0","45180","","null","","","null","28","","NaN","","","","","","","","","","","","","",""
"","response","","html-keyboard-response","189","306031","0.0-1.0-257.0-0.0","0","0","45180","","276","","","68","28","","","1","28","training","adjacent","ED","5","4","O.jpg","M.jpg","1","0","0","",""
"","feedback","","html-keyboard-response","190","307035","0.0-1.0-258.0-0.0","0","0","45180","","null","","","null","28","","","","","","","","","","","","","","","",""
"","time_out","","html-keyboard-response","191","309039","0.0-1.0-260.0-0.0","0","0","45180","","null","","","null","28","","","","","","","","","","","","","","","",""
"","ITI","","html-keyboard-response","192","310043","0.0-1.0-261.0","0","0","45180","","null","","","null","28","","","","","","","","","","","","","","","NaN",""
"","S1","","html-keyboard-response","193","310296","0.0-1.0-263.0","0","0","45180","","null","","","null","29","","","","","","","","","","","","","","","",""
"","ISI","","html-keyboard-response","194","311311","0.0-1.0-264.0","0","0","45180","","null","","","null","29","NaN","","","","","","","","","","","","","","",""
"","S2","","html-keyboard-response","195","311564","0.0-1.0-265.0","0","0","45180","","null","","","null","29","","NaN","","","","","","","","","","","","","",""
"","response","","html-keyboard-response","196","311597","0.0-1.0-266.0-0.0","0","0","45180","","31","","","75","29","","","1","29","training","adjacent","DE","4","5","M.jpg","O.jpg","0","1","0","",""
"","feedback","","html-keyboard-response","197","312600","0.0-1.0-267.0-0.0","0","0","45180","","null","","","null","29","","","","","","","","","","","","","","","",""
"","time_out","","html-keyboard-response","198","314603","0.0-1.0-269.0-0.0","0","0","45180","","null","","","null","29","","","","","","","","","","","","","","","",""
"","ITI","","html-keyboard-response","199","315606","0.0-1.0-270.0","0","0","45180","","null","","","null","29","","","","","","","","","","","","","","","NaN",""
"","S1","","html-keyboard-response","200","315860","0.0-1.0-272.0","0","0","45180","","null","","","null","30","","","","","","","","","","","","","","","",""
"","ISI","","html-keyboard-response","201","316864","0.0-1.0-273.0","0","0","45180","","null","","","null","30","NaN","","","","","","","","","","","","","","",""
"","S2","","html-keyboard-response","202","317118","0.0-1.0-274.0","0","0","45180","","null","","","null","30","","NaN","","","","","","","","","","","","","",""
"","response","","html-keyboard-response","203","317407","0.0-1.0-275.0-0.0","0","0","45180","","287","","","68","30","","","1","30","training","adjacent","ED","5","4","O.jpg","M.jpg","1","0","0","",""
"","feedback","","html-keyboard-response","204","318411","0.0-1.0-276.0-0.0","0","0","45180","","null","","","null","30","","","","","","","","","","","","","","","",""
"","time_out","","html-keyboard-response","205","320414","0.0-1.0-278.0-0.0","0","0","45180","","null","","","null","30","","","","","","","","","","","","","","","",""
"","ITI","","html-keyboard-response","206","321417","0.0-1.0-279.0","0","0","45180","","null","","","null","30","","","","","","","","","","","","","","","NaN",""
"","S1","","html-keyboard-response","207","321674","0.0-1.0-281.0","0","0","45180","","null","","","null","31","","","","","","","","","","","","","","","",""
"","ISI","","html-keyboard-response","208","322677","0.0-1.0-282.0","0","0","45180","","null","","","null","31","NaN","","","","","","","","","","","","","","",""
"","S2","","html-keyboard-response","209","322932","0.0-1.0-283.0","0","0","45180","","null","","","null","31","","NaN","","","","","","","","","","","","","",""
"","response","","html-keyboard-response","210","322984","0.0-1.0-284.0-0.0","0","0","45180","","51","","","75","31","","","1","31","training","adjacent","DC","4","3","M.jpg","N.jpg","0","0","1","",""
"","feedback","","html-keyboard-response","211","323989","0.0-1.0-285.0-0.0","0","0","45180","","null","","","null","31","","","","","","","","","","","","","","","",""
"","ITI","","html-keyboard-response","212","324994","0.0-1.0-288.0","0","0","45180","","null","","","null","31","","","","","","","","","","","","","","","NaN",""
"","S1","","html-keyboard-response","213","325247","0.0-1.0-290.0","0","0","45180","","null","","","null","32","","","","","","","","","","","","","","","",""
"","ISI","","html-keyboard-response","214","326249","0.0-1.0-291.0","0","0","45180","","null","","","null","32","NaN","","","","","","","","","","","","","","",""
"","S2","","html-keyboard-response","215","326505","0.0-1.0-292.0","0","0","45180","","null","","","null","32","","NaN","","","","","","","","","","","","","",""
"","response","","html-keyboard-response","216","326624","0.0-1.0-293.0-0.0","0","0","45180","","116","","","75","32","","","1","32","training","adjacent","DC","4","3","M.jpg","N.jpg","0","0","1","",""
"","feedback","","html-keyboard-response","217","327629","0.0-1.0-294.0-0.0","0","0","45180","","null","","","null","32","","","","","","","","","","","","","","","",""
"","ITI","","html-keyboard-response","218","328633","0.0-1.0-297.0","0","0","45180","","null","","","null","32","","","","","","","","","","","","","","","NaN",""
"","S1","","html-keyboard-response","219","328887","0.0-1.0-299.0","0","0","45180","","null","","","null","33","","","","","","","","","","","","","","","",""
"","ISI","","html-keyboard-response","220","329891","0.0-1.0-300.0","0","0","45180","","null","","","null","33","NaN","","","","","","","","","","","","","","",""
"","S2","","html-keyboard-response","221","330156","0.0-1.0-301.0","0","0","45180","","null","","","null","33","","NaN","","","","","","","","","","","","","",""
"","response","","html-keyboard-response","222","330575","0.0-1.0-302.0-0.0","0","0","45180","","417","","","75","33","","","1","33","training","adjacent","AB","1","2","R.jpg","P.jpg","0","1","0","",""
"","feedback","","html-keyboard-response","223","331579","0.0-1.0-303.0-0.0","0","0","45180","","null","","","null","33","","","","","","","","","","","","","","","",""
"","time_out","","html-keyboard-response","224","333581","0.0-1.0-305.0-0.0","0","0","45180","","null","","","null","33","","","","","","","","","","","","","","","",""
"","ITI","","html-keyboard-response","225","334583","0.0-1.0-306.0","0","0","45180","","null","","","null","33","","","","","","","","","","","","","","","NaN",""
"","S1","","html-keyboard-response","226","334836","0.0-1.0-308.0","0","0","45180","","null","","","null","34","","","","","","","","","","","","","","","",""
"","ISI","","html-keyboard-response","227","335840","0.0-1.0-309.0","0","0","45180","","null","","","null","34","NaN","","","","","","","","","","","","","","",""
"","S2","","html-keyboard-response","228","336115","0.0-1.0-310.0","0","0","45180","","null","","","null","34","","NaN","","","","","","","","","","","","","",""
"","response","","html-keyboard-response","229","336328","0.0-1.0-311.0-0.0","0","0","45180","","211","","","68","34","","","1","34","training","adjacent","FG","6","7","Q.jpg","L.jpg","1","1","1","",""
"","feedback","","html-keyboard-response","230","337332","0.0-1.0-312.0-0.0","0","0","45180","","null","","","null","34","","","","","","","","","","","","","","","",""
"","ITI","","html-keyboard-response","231","338334","0.0-1.0-315.0","0","0","45180","","null","","","null","34","","","","","","","","","","","","","","","NaN",""
"","S1","","html-keyboard-response","232","338586","0.0-1.0-317.0","0","0","45180","","null","","","null","35","","","","","","","","","","","","","","","",""
"","ISI","","html-keyboard-response","233","339590","0.0-1.0-318.0","0","0","45180","","null","","","null","35","NaN","","","","","","","","","","","","","","",""
"","S2","","html-keyboard-response","234","339846","0.0-1.0-319.0","0","0","45180","","null","","","null","35","","NaN","","","","","","","","","","","","","",""
"","response","","html-keyboard-response","235","339906","0.0-1.0-320.0-0.0","0","0","45180","","56","","","68","35","","","1","35","training","adjacent","FE","6","5","Q.jpg","O.jpg","1","0","0","",""
"","feedback","","html-keyboard-response","236","340910","0.0-1.0-321.0-0.0","0","0","45180","","null","","","null","35","","","","","","","","","","","","","","","",""
"","time_out","","html-keyboard-response","237","342912","0.0-1.0-323.0-0.0","0","0","45180","","null","","","null","35","","","","","","","","","","","","","","","",""
"","ITI","","html-keyboard-response","238","343914","0.0-1.0-324.0","0","0","45180","","null","","","null","35","","","","","","","","","","","","","","","NaN",""
"","S1","","html-keyboard-response","239","344167","0.0-1.0-326.0","0","0","45180","","null","","","null","36","","","","","","","","","","","","","","","",""
"","ISI","","html-keyboard-response","240","345191","0.0-1.0-327.0","0","0","45180","","null","","","null","36","NaN","","","","","","","","","","","","","","",""
"","S2","","html-keyboard-response","241","345445","0.0-1.0-328.0","0","0","45180","","null","","","null","36","","NaN","","","","","","","","","","","","","",""
"","response","","html-keyboard-response","242","345448","0.0-1.0-329.0-0.0","0","0","45180","","0","","","75","36","","","1","36","training","adjacent","DC","4","3","M.jpg","N.jpg","0","0","1","",""
"","feedback","","html-keyboard-response","243","346461","0.0-1.0-330.0-0.0","0","0","45180","","null","","","null","36","","","","","","","","","","","","","","","",""
"","ITI","","html-keyboard-response","244","347464","0.0-1.0-333.0","0","0","45180","","null","","","null","36","","","","","","","","","","","","","","","NaN",""
"","S1","","html-keyboard-response","245","347719","0.0-1.0-335.0","0","0","45180","","null","","","null","37","","","","","","","","","","","","","","","",""
"","ISI","","html-keyboard-response","246","348723","0.0-1.0-336.0","0","0","45180","","null","","","null","37","NaN","","","","","","","","","","","","","","",""
"","S2","","html-keyboard-response","247","348976","0.0-1.0-337.0","0","0","45180","","null","","","null","37","","NaN","","","","","","","","","","","","","",""
"","response","","html-keyboard-response","248","349026","0.0-1.0-338.0-0.0","0","0","45180","","48","","","75","37","","","1","37","training","adjacent","FG","6","7","Q.jpg","L.jpg","0","1","0","",""
"","feedback","","html-keyboard-response","249","350030","0.0-1.0-339.0-0.0","0","0","45180","","null","","","null","37","","","","","","","","","","","","","","","",""
"","time_out","","html-keyboard-response","250","352034","0.0-1.0-341.0-0.0","0","0","45180","","null","","","null","37","","","","","","","","","","","","","","","",""
"","ITI","","html-keyboard-response","251","353037","0.0-1.0-342.0","0","0","45180","","null","","","null","37","","","","","","","","","","","","","","","NaN",""
"","S1","","html-keyboard-response","252","353291","0.0-1.0-344.0","0","0","45180","","null","","","null","38","","","","","","","","","","","","","","","",""
"","ISI","","html-keyboard-response","253","354310","0.0-1.0-345.0","0","0","45180","","null","","","null","38","NaN","","","","","","","","","","","","","","",""
"","S2","","html-keyboard-response","254","354564","0.0-1.0-346.0","0","0","45180","","null","","","null","38","","NaN","","","","","","","","","","","","","",""
"","response","","html-keyboard-response","255","354575","0.0-1.0-347.0-0.0","0","0","45180","","9","","","68","38","","","1","38","training","adjacent","FG","6","7","Q.jpg","L.jpg","1","1","1","",""
"","feedback","","html-keyboard-response","256","355581","0.0-1.0-348.0-0.0","0","0","45180","","null","","","null","38","","","","","","","","","","","","","","","",""
"","ITI","","html-keyboard-response","257","356584","0.0-1.0-351.0","0","0","45180","","640","","","75","38","","","","","","","","","","","","","","","k",""
"","S1","","html-keyboard-response","258","356839","0.0-1.0-353.0","0","0","45180","","null","","","null","39","","","","","","","","","","","","","","","",""
"","ISI","","html-keyboard-response","259","357841","0.0-1.0-354.0","0","0","45180","","null","","","null","39","NaN","","","","","","","","","","","","","","",""
"","S2","","html-keyboard-response","260","358094","0.0-1.0-355.0","0","0","45180","","null","","","null","39","","NaN","","","","","","","","","","","","","",""
"","response","","html-keyboard-response","261","358374","0.0-1.0-356.0-0.0","0","0","45180","","278","","","68","39","","","1","39","training","adjacent","EF","5","6","O.jpg","Q.jpg","1","1","1","",""
"","feedback","","html-keyboard-response","262","359378","0.0-1.0-357.0-0.0","0","0","45180","","null","","","null","39","","","","","","","","","","","","","","","",""
"","ITI","","html-keyboard-response","263","360381","0.0-1.0-360.0","0","0","45180","","null","","","null","39","","","","","","","","","","","","","","","NaN",""
"","S1","","html-keyboard-response","264","360636","0.0-1.0-362.0","0","0","45180","","null","","","null","40","","","","","","","","","","","","","","","",""
"","ISI","","html-keyboard-response","265","361642","0.0-1.0-363.0","0","0","45180","","null","","","null","40","NaN","","","","","","","","","","","","","","",""
"","S2","","html-keyboard-response","266","361897","0.0-1.0-364.0","0","0","45180","","null","","","null","40","","NaN","","","","","","","","","","","","","",""
"","response","","html-keyboard-response","267","362046","0.0-1.0-365.0-0.0","0","0","45180","","147","","","75","40","","","1","40","training","adjacent","FE","6","5","Q.jpg","O.jpg","0","0","1","",""
"","feedback","","html-keyboard-response","268","363049","0.0-1.0-366.0-0.0","0","0","45180","","null","","","null","40","","","","","","","","","","","","","","","",""
"","ITI","","html-keyboard-response","269","364053","0.0-1.0-369.0","0","0","45180","","null","","","null","40","","","","","","","","","","","","","","","NaN",""
"","S1","","html-keyboard-response","270","364305","0.0-1.0-371.0","0","0","45180","","null","","","null","41","","","","","","","","","","","","","","","",""
"","ISI","","html-keyboard-response","271","365313","0.0-1.0-372.0","0","0","45180","","null","","","null","41","NaN","","","","","","","","","","","","","","",""
"","S2","","html-keyboard-response","272","365566","0.0-1.0-373.0","0","0","45180","","null","","","null","41","","NaN","","","","","","","","","","","","","",""
"","response","","html-keyboard-response","273","365833","0.0-1.0-374.0-0.0","0","0","45180","","266","","","75","41","","","1","41","training","adjacent","DE","4","5","M.jpg","O.jpg","0","1","0","",""
"","feedback","","html-keyboard-response","274","366836","0.0-1.0-375.0-0.0","0","0","45180","","null","","","null","41","","","","","","","","","","","","","","","",""
"","time_out","","html-keyboard-response","275","368838","0.0-1.0-377.0-0.0","0","0","45180","","null","","","null","41","","","","","","","","","","","","","","","",""
"","ITI","","html-keyboard-response","276","369842","0.0-1.0-378.0","0","0","45180","","null","","","null","41","","","","","","","","","","","","","","","NaN",""
"","S1","","html-keyboard-response","277","370095","0.0-1.0-380.0","0","0","45180","","null","","","null","42","","","","","","","","","","","","","","","",""
"","ISI","","html-keyboard-response","278","371102","0.0-1.0-381.0","0","0","45180","","null","","","null","42","NaN","","","","","","","","","","","","","","",""
"","S2","","html-keyboard-response","279","371357","0.0-1.0-382.0","0","0","45180","","null","","","null","42","","NaN","","","","","","","","","","","","","",""
"","response","","html-keyboard-response","280","371688","0.0-1.0-383.0-0.0","0","0","45180","","329","","","68","42","","","1","42","training","adjacent","EF","5","6","O.jpg","Q.jpg","1","1","1","",""
"","feedback","","html-keyboard-response","281","372701","0.0-1.0-384.0-0.0","0","0","45180","","null","","","null","42","","","","","","","","","","","","","","","",""
"","ITI","","html-keyboard-response","282","373705","0.0-1.0-387.0","0","0","45180","","null","","","null","42","","","","","","","","","","","","","","","NaN",""
"","S1","","html-keyboard-response","283","373959","0.0-1.0-389.0","0","0","45180","","null","","","null","43","","","","","","","","","","","","","","","",""
"","ISI","","html-keyboard-response","284","374963","0.0-1.0-390.0","0","0","45180","","null","","","null","43","NaN","","","","","","","","","","","","","","",""
"","S2","","html-keyboard-response","285","375216","0.0-1.0-391.0","0","0","45180","","null","","","null","43","","NaN","","","","","","","","","","","","","",""
"","response","","html-keyboard-response","286","375664","0.0-1.0-392.0-0.0","0","0","45180","","445","","","68","43","","","1","43","training","adjacent","CB","3","2","N.jpg","P.jpg","1","0","0","",""
"","feedback","","html-keyboard-response","287","376669","0.0-1.0-393.0-0.0","0","0","45180","","null","","","null","43","","","","","","","","","","","","","","","",""
"","time_out","","html-keyboard-response","288","378673","0.0-1.0-395.0-0.0","0","0","45180","","null","","","null","43","","","","","","","","","","","","","","","",""
"","ITI","","html-keyboard-response","289","379675","0.0-1.0-396.0","0","0","45180","","null","","","null","43","","","","","","","","","","","","","","","NaN",""
"","S1","","html-keyboard-response","290","379928","0.0-1.0-398.0","0","0","45180","","null","","","null","44","","","","","","","","","","","","","","","",""
"","ISI","","html-keyboard-response","291","380931","0.0-1.0-399.0","0","0","45180","","null","","","null","44","NaN","","","","","","","","","","","","","","",""
"","S2","","html-keyboard-response","292","381185","0.0-1.0-400.0","0","0","45180","","null","","","null","44","","NaN","","","","","","","","","","","","","",""
"","response","","html-keyboard-response","293","381341","0.0-1.0-401.0-0.0","0","0","45180","","154","","","75","44","","","1","44","training","adjacent","DC","4","3","M.jpg","N.jpg","0","0","1","",""
"","feedback","","html-keyboard-response","294","382345","0.0-1.0-402.0-0.0","0","0","45180","","null","","","null","44","","","","","","","","","","","","","","","",""
"","ITI","","html-keyboard-response","295","383350","0.0-1.0-405.0","0","0","45180","","null","","","null","44","","","","","","","","","","","","","","","NaN",""
"","S1","","html-keyboard-response","296","383603","0.0-1.0-407.0","0","0","45180","","null","","","null","45","","","","","","","","","","","","","","","",""
"","ISI","","html-keyboard-response","297","384618","0.0-1.0-408.0","0","0","45180","","null","","","null","45","NaN","","","","","","","","","","","","","","",""
"","S2","","html-keyboard-response","298","384871","0.0-1.0-409.0","0","0","45180","","null","","","null","45","","NaN","","","","","","","","","","","","","",""
"","response","","html-keyboard-response","299","385115","0.0-1.0-410.0-0.0","0","0","45180","","241","","","75","45","","","1","45","training","adjacent","FG","6","7","Q.jpg","L.jpg","0","1","0","",""
"","feedback","","html-keyboard-response","300","386118","0.0-1.0-411.0-0.0","0","0","45180","","null","","","null","45","","","","","","","","","","","","","","","",""
"","time_out","","html-keyboard-response","301","388121","0.0-1.0-413.0-0.0","0","0","45180","","null","","","null","45","","","","","","","","","","","","","","","",""
"","ITI","","html-keyboard-response","302","389123","0.0-1.0-414.0","0","0","45180","","null","","","null","45","","","","","","","","","","","","","","","NaN",""
"","S1","","html-keyboard-response","303","389389","0.0-1.0-416.0","0","0","45180","","null","","","null","46","","","","","","","","","","","","","","","",""
"","ISI","","html-keyboard-response","304","390393","0.0-1.0-417.0","0","0","45180","","null","","","null","46","NaN","","","","","","","","","","","","","","",""
"","S2","","html-keyboard-response","305","390647","0.0-1.0-418.0","0","0","45180","","null","","","null","46","","NaN","","","","","","","","","","","","","",""
"","response","","html-keyboard-response","306","390937","0.0-1.0-419.0-0.0","0","0","45180","","288","","","68","46","","","1","46","training","adjacent","ED","5","4","O.jpg","M.jpg","1","0","0","",""
"","feedback","","html-keyboard-response","307","391940","0.0-1.0-420.0-0.0","0","0","45180","","null","","","null","46","","","","","","","","","","","","","","","",""
"","time_out","","html-keyboard-response","308","393944","0.0-1.0-422.0-0.0","0","0","45180","","null","","","null","46","","","","","","","","","","","","","","","",""
"","ITI","","html-keyboard-response","309","394961","0.0-1.0-423.0","0","0","45180","","null","","","null","46","","","","","","","","","","","","","","","NaN",""
"","S1","","html-keyboard-response","310","395214","0.0-1.0-425.0","0","0","45180","","null","","","null","47","","","","","","","","","","","","","","","",""
"","ISI","","html-keyboard-response","311","396216","0.0-1.0-426.0","0","0","45180","","null","","","null","47","NaN","","","","","","","","","","","","","","",""
"","S2","","html-keyboard-response","312","396470","0.0-1.0-427.0","0","0","45180","","null","","","null","47","","NaN","","","","","","","","","","","","","",""
"","response","","html-keyboard-response","313","396767","0.0-1.0-428.0-0.0","0","0","45180","","295","","","75","47","","","1","47","training","adjacent","GF","7","6","L.jpg","Q.jpg","0","0","1","",""
"","feedback","","html-keyboard-response","314","397770","0.0-1.0-429.0-0.0","0","0","45180","","null","","","null","47","","","","","","","","","","","","","","","",""
"","ITI","","html-keyboard-response","315","398773","0.0-1.0-432.0","0","0","45180","","null","","","null","47","","","","","","","","","","","","","","","NaN",""
"","block_over","","html-keyboard-response","316","410578","0.0-1.0-433.0-0.0","0","0","45180","","11803","","","32","47","","","","","","","","","","","","","","","",""
"","S1","","html-keyboard-response","317","410836","0.0-1.0-434.0","0","0","45180","","null","","","null","48","","","","","","","","","","","","","","","",""
"","ISI","","html-keyboard-response","318","411839","0.0-1.0-435.0","0","0","45180","","null","","","null","48","NaN","","","","","","","","","","","","","","",""
"","S2","","html-keyboard-response","319","412092","0.0-1.0-436.0","0","0","45180","","null","","","null","48","","NaN","","","","","","","","","","","","","",""
"","response","","html-keyboard-response","320","412382","0.0-1.0-437.0-0.0","0","0","45180","","288","","","75","48","","","2","48","training","adjacent","FG","6","7","Q.jpg","L.jpg","0","1","0","",""
"","feedback","","html-keyboard-response","321","413386","0.0-1.0-438.0-0.0","0","0","45180","","null","","","null","48","","","","","","","","","","","","","","","",""
"","time_out","","html-keyboard-response","322","415388","0.0-1.0-440.0-0.0","0","0","45180","","null","","","null","48","","","","","","","","","","","","","","","",""
"","ITI","","html-keyboard-response","323","416392","0.0-1.0-441.0","0","0","45180","","null","","","null","48","","","","","","","","","","","","","","","NaN",""
"","S1","","html-keyboard-response","324","416644","0.0-1.0-443.0","0","0","45180","","null","","","null","49","","","","","","","","","","","","","","","",""
"","ISI","","html-keyboard-response","325","417648","0.0-1.0-444.0","0","0","45180","","null","","","null","49","NaN","","","","","","","","","","","","","","",""
"","S2","","html-keyboard-response","326","417902","0.0-1.0-445.0","0","0","45180","","null","","","null","49","","NaN","","","","","","","","","","","","","",""
"","response","","html-keyboard-response","327","418113","0.0-1.0-446.0-0.0","0","0","45180","","208","","","75","49","","","2","49","training","adjacent","AB","1","2","R.jpg","P.jpg","0","1","0","",""
"","feedback","","html-keyboard-response","328","419117","0.0-1.0-447.0-0.0","0","0","45180","","null","","","null","49","","","","","","","","","","","","","","","",""
"","time_out","","html-keyboard-response","329","421120","0.0-1.0-449.0-0.0","0","0","45180","","null","","","null","49","","","","","","","","","","","","","","","",""
"","ITI","","html-keyboard-response","330","422124","0.0-1.0-450.0","0","0","45180","","null","","","null","49","","","","","","","","","","","","","","","NaN",""
"","S1","","html-keyboard-response","331","422378","0.0-1.0-452.0","0","0","45180","","null","","","null","50","","","","","","","","","","","","","","","",""
"","ISI","","html-keyboard-response","332","423381","0.0-1.0-453.0","0","0","45180","","null","","","null","50","NaN","","","","","","","","","","","","","","",""
"","S2","","html-keyboard-response","333","423634","0.0-1.0-454.0","0","0","45180","","null","","","null","50","","NaN","","","","","","","","","","","","","",""
"","response","","html-keyboard-response","334","423688","0.0-1.0-455.0-0.0","0","0","45180","","53","","","68","50","","","2","50","training","adjacent","FE","6","5","Q.jpg","O.jpg","1","0","0","",""
"","feedback","","html-keyboard-response","335","424691","0.0-1.0-456.0-0.0","0","0","45180","","null","","","null","50","","","","","","","","","","","","","","","",""
"","time_out","","html-keyboard-response","336","426693","0.0-1.0-458.0-0.0","0","0","45180","","null","","","null","50","","","","","","","","","","","","","","","",""
"","ITI","","html-keyboard-response","337","427696","0.0-1.0-459.0","0","0","45180","","null","","","null","50","","","","","","","","","","","","","","","NaN",""
"","S1","","html-keyboard-response","338","427948","0.0-1.0-461.0","0","0","45180","","null","","","null","51","","","","","","","","","","","","","","","",""
"","ISI","","html-keyboard-response","339","428951","0.0-1.0-462.0","0","0","45180","","null","","","null","51","NaN","","","","","","","","","","","","","","",""
"","S2","","html-keyboard-response","340","429203","0.0-1.0-463.0","0","0","45180","","null","","","null","51","","NaN","","","","","","","","","","","","","",""
"","response","","html-keyboard-response","341","429226","0.0-1.0-464.0-0.0","0","0","45180","","22","","","75","51","","","2","51","training","adjacent","DE","4","5","M.jpg","O.jpg","0","1","0","",""
"","feedback","","html-keyboard-response","342","430230","0.0-1.0-465.0-0.0","0","0","45180","","null","","","null","51","","","","","","","","","","","","","","","",""
"","time_out","","html-keyboard-response","343","432235","0.0-1.0-467.0-0.0","0","0","45180","","null","","","null","51","","","","","","","","","","","","","","","",""
"","ITI","","html-keyboard-response","344","433238","0.0-1.0-468.0","0","0","45180","","null","","","null","51","","","","","","","","","","","","","","","NaN",""
"","S1","","html-keyboard-response","345","433491","0.0-1.0-470.0","0","0","45180","","null","","","null","52","","","","","","","","","","","","","","","",""
"","ISI","","html-keyboard-response","346","434493","0.0-1.0-471.0","0","0","45180","","null","","","null","52","NaN","","","","","","","","","","","","","","",""
"","S2","","html-keyboard-response","347","434747","0.0-1.0-472.0","0","0","45180","","null","","","null","52","","NaN","","","","","","","","","","","","","",""
"","response","","html-keyboard-response","348","434854","0.0-1.0-473.0-0.0","0","0","45180","","103","","","68","52","","","2","52","training","adjacent","DC","4","3","M.jpg","N.jpg","1","0","0","",""
"","feedback","","html-keyboard-response","349","435857","0.0-1.0-474.0-0.0","0","0","45180","","null","","","null","52","","","","","","","","","","","","","","","",""
"","time_out","","html-keyboard-response","350","437860","0.0-1.0-476.0-0.0","0","0","45180","","null","","","null","52","","","","","","","","","","","","","","","",""
"","ITI","","html-keyboard-response","351","438863","0.0-1.0-477.0","0","0","45180","","null","","","null","52","","","","","","","","","","","","","","","NaN",""
"","S1","","html-keyboard-response","352","439116","0.0-1.0-479.0","0","0","45180","","null","","","null","53","","","","","","","","","","","","","","","",""
"","ISI","","html-keyboard-response","353","440119","0.0-1.0-480.0","0","0","45180","","null","","","null","53","NaN","","","","","","","","","","","","","","",""
"","S2","","html-keyboard-response","354","440373","0.0-1.0-481.0","0","0","45180","","null","","","null","53","","NaN","","","","","","","","","","","","","",""
"","response","","html-keyboard-response","355","440869","0.0-1.0-482.0-0.0","0","0","45180","","493","","","75","53","","","2","53","training","adjacent","EF","5","6","O.jpg","Q.jpg","0","1","0","",""
"","feedback","","html-keyboard-response","356","441872","0.0-1.0-483.0-0.0","0","0","45180","","null","","","null","53","","","","","","","","","","","","","","","",""
"","time_out","","html-keyboard-response","357","443875","0.0-1.0-485.0-0.0","0","0","45180","","null","","","null","53","","","","","","","","","","","","","","","",""
"","ITI","","html-keyboard-response","358","444878","0.0-1.0-486.0","0","0","45180","","null","","","null","53","","","","","","","","","","","","","","","NaN",""
"","S1","","html-keyboard-response","359","445130","0.0-1.0-488.0","0","0","45180","","null","","","null","54","","","","","","","","","","","","","","","",""
"","ISI","","html-keyboard-response","360","446133","0.0-1.0-489.0","0","0","45180","","null","","","null","54","NaN","","","","","","","","","","","","","","",""
"","S2","","html-keyboard-response","361","446386","0.0-1.0-490.0","0","0","45180","","null","","","null","54","","NaN","","","","","","","","","","","","","",""
"","response","","html-keyboard-response","362","446651","0.0-1.0-491.0-0.0","0","0","45180","","262","","","75","54","","","2","54","training","adjacent","DC","4","3","M.jpg","N.jpg","0","0","1","",""
"","feedback","","html-keyboard-response","363","447654","0.0-1.0-492.0-0.0","0","0","45180","","null","","","null","54","","","","","","","","","","","","","","","",""
"","ITI","","html-keyboard-response","364","448659","0.0-1.0-495.0","0","0","45180","","null","","","null","54","","","","","","","","","","","","","","","NaN",""
"","S1","","html-keyboard-response","365","448912","0.0-1.0-497.0","0","0","45180","","null","","","null","55","","","","","","","","","","","","","","","",""
"","ISI","","html-keyboard-response","366","449926","0.0-1.0-498.0","0","0","45180","","null","","","null","55","NaN","","","","","","","","","","","","","","",""
"","S2","","html-keyboard-response","367","450178","0.0-1.0-499.0","0","0","45180","","null","","","null","55","","NaN","","","","","","","","","","","","","",""
"","response","","html-keyboard-response","368","450302","0.0-1.0-500.0-0.0","0","0","45180","","121","","","75","55","","","2","55","training","adjacent","FG","6","7","Q.jpg","L.jpg","0","1","0","",""
"","feedback","","html-keyboard-response","369","451307","0.0-1.0-501.0-0.0","0","0","45180","","null","","","null","55","","","","","","","","","","","","","","","",""
"","time_out","","html-keyboard-response","370","453311","0.0-1.0-503.0-0.0","0","0","45180","","null","","","null","55","","","","","","","","","","","","","","","",""
"","ITI","","html-keyboard-response","371","454326","0.0-1.0-504.0","0","0","45180","","null","","","null","55","","","","","","","","","","","","","","","NaN",""
"","S1","","html-keyboard-response","372","454579","0.0-1.0-506.0","0","0","45180","","null","","","null","56","","","","","","","","","","","","","","","",""
"","ISI","","html-keyboard-response","373","455588","0.0-1.0-507.0","0","0","45180","","null","","","null","56","NaN","","","","","","","","","","","","","","",""
"","S2","","html-keyboard-response","374","455841","0.0-1.0-508.0","0","0","45180","","null","","","null","56","","NaN","","","","","","","","","","","","","",""
"","response","","html-keyboard-response","375","455893","0.0-1.0-509.0-0.0","0","0","45180","","49","","","68","56","","","2","56","training","adjacent","CB","3","2","N.jpg","P.jpg","1","0","0","",""
"","feedback","","html-keyboard-response","376","456897","0.0-1.0-510.0-0.0","0","0","45180","","null","","","null","56","","","","","","","","","","","","","","","",""
"","time_out","","html-keyboard-response","377","458901","0.0-1.0-512.0-0.0","0","0","45180","","null","","","null","56","","","","","","","","","","","","","","","",""
"","ITI","","html-keyboard-response","378","459904","0.0-1.0-513.0","0","0","45180","","null","","","null","56","","","","","","","","","","","","","","","NaN",""
"","S1","","html-keyboard-response","379","460157","0.0-1.0-515.0","0","0","45180","","null","","","null","57","","","","","","","","","","","","","","","",""
"","ISI","","html-keyboard-response","380","461159","0.0-1.0-516.0","0","0","45180","","null","","","null","57","NaN","","","","","","","","","","","","","","",""
"","S2","","html-keyboard-response","381","461413","0.0-1.0-517.0","0","0","45180","","null","","","null","57","","NaN","","","","","","","","","","","","","",""
"","response","","html-keyboard-response","382","461888","0.0-1.0-518.0-0.0","0","0","45180","","474","","","68","57","","","2","57","training","adjacent","FG","6","7","Q.jpg","L.jpg","1","1","1","",""
"","feedback","","html-keyboard-response","383","462892","0.0-1.0-519.0-0.0","0","0","45180","","null","","","null","57","","","","","","","","","","","","","","","",""
"","ITI","","html-keyboard-response","384","463895","0.0-1.0-522.0","0","0","45180","","null","","","null","57","","","","","","","","","","","","","","","NaN",""
"","S1","","html-keyboard-response","385","464148","0.0-1.0-524.0","0","0","45180","","null","","","null","58","","","","","","","","","","","","","","","",""
"","ISI","","html-keyboard-response","386","465153","0.0-1.0-525.0","0","0","45180","","null","","","null","58","NaN","","","","","","","","","","","","","","",""
"","S2","","html-keyboard-response","387","465406","0.0-1.0-526.0","0","0","45180","","null","","","null","58","","NaN","","","","","","","","","","","","","",""
"","response","","html-keyboard-response","388","465640","0.0-1.0-527.0-0.0","0","0","45180","","232","","","68","58","","","2","58","training","adjacent","CD","3","4","N.jpg","M.jpg","1","1","1","",""
"","feedback","","html-keyboard-response","389","466643","0.0-1.0-528.0-0.0","0","0","45180","","null","","","null","58","","","","","","","","","","","","","","","",""
"","ITI","","html-keyboard-response","390","467647","0.0-1.0-531.0","0","0","45180","","null","","","null","58","","","","","","","","","","","","","","","NaN",""
"","S1","","html-keyboard-response","391","467902","0.0-1.0-533.0","0","0","45180","","null","","","null","59","","","","","","","","","","","","","","","",""
"","ISI","","html-keyboard-response","392","468904","0.0-1.0-534.0","0","0","45180","","null","","","null","59","NaN","","","","","","","","","","","","","","",""
"","S2","","html-keyboard-response","393","469157","0.0-1.0-535.0","0","0","45180","","null","","","null","59","","NaN","","","","","","","","","","","","","",""
"","response","","html-keyboard-response","394","469395","0.0-1.0-536.0-0.0","0","0","45180","","236","","","75","59","","","2","59","training","adjacent","BC","2","3","P.jpg","N.jpg","0","1","0","",""
"","feedback","","html-keyboard-response","395","470400","0.0-1.0-537.0-0.0","0","0","45180","","null","","","null","59","","","","","","","","","","","","","","","",""
"","time_out","","html-keyboard-response","396","472404","0.0-1.0-539.0-0.0","0","0","45180","","null","","","null","59","","","","","","","","","","","","","","","",""
"","ITI","","html-keyboard-response","397","473414","0.0-1.0-540.0","0","0","45180","","null","","","null","59","","","","","","","","","","","","","","","NaN",""
"","S1","","html-keyboard-response","398","473667","0.0-1.0-542.0","0","0","45180","","null","","","null","60","","","","","","","","","","","","","","","",""
"","ISI","","html-keyboard-response","399","474670","0.0-1.0-543.0","0","0","45180","","null","","","null","60","NaN","","","","","","","","","","","","","","",""
"","S2","","html-keyboard-response","400","474922","0.0-1.0-544.0","0","0","45180","","null","","","null","60","","NaN","","","","","","","","","","","","","",""
"","response","","html-keyboard-response","401","475113","0.0-1.0-545.0-0.0","0","0","45180","","188","","","68","60","","","2","60","training","adjacent","EF","5","6","O.jpg","Q.jpg","1","1","1","",""
"","feedback","","html-keyboard-response","402","476117","0.0-1.0-546.0-0.0","0","0","45180","","null","","","null","60","","","","","","","","","","","","","","","",""
"","ITI","","html-keyboard-response","403","477120","0.0-1.0-549.0","0","0","45180","","null","","","null","60","","","","","","","","","","","","","","","NaN",""
"","S1","","html-keyboard-response","404","477388","0.0-1.0-551.0","0","0","45180","","null","","","null","61","","","","","","","","","","","","","","","",""
"","ISI","","html-keyboard-response","405","478391","0.0-1.0-552.0","0","0","45180","","null","","","null","61","NaN","","","","","","","","","","","","","","",""
"","S2","","html-keyboard-response","406","478646","0.0-1.0-553.0","0","0","45180","","null","","","null","61","","NaN","","","","","","","","","","","","","",""
"","response","","html-keyboard-response","407","478851","0.0-1.0-554.0-0.0","0","0","45180","","202","","","68","61","","","2","61","training","adjacent","EF","5","6","O.jpg","Q.jpg","1","1","1","",""
"","feedback","","html-keyboard-response","408","479854","0.0-1.0-555.0-0.0","0","0","45180","","null","","","null","61","","","","","","","","","","","","","","","",""
"","ITI","","html-keyboard-response","409","480857","0.0-1.0-558.0","0","0","45180","","null","","","null","61","","","","","","","","","","","","","","","NaN",""
"","S1","","html-keyboard-response","410","481114","0.0-1.0-560.0","0","0","45180","","null","","","null","62","","","","","","","","","","","","","","","",""
"","ISI","","html-keyboard-response","411","482117","0.0-1.0-561.0","0","0","45180","","null","","","null","62","NaN","","","","","","","","","","","","","","",""
"","S2","","html-keyboard-response","412","482370","0.0-1.0-562.0","0","0","45180","","null","","","null","62","","NaN","","","","","","","","","","","","","",""
"","response","","html-keyboard-response","413","482475","0.0-1.0-563.0-0.0","0","0","45180","","103","","","75","62","","","2","62","training","adjacent","AB","1","2","R.jpg","P.jpg","0","1","0","",""
"","feedback","","html-keyboard-response","414","483479","0.0-1.0-564.0-0.0","0","0","45180","","null","","","null","62","","","","","","","","","","","","","","","",""
"","time_out","","html-keyboard-response","415","485483","0.0-1.0-566.0-0.0","0","0","45180","","null","","","null","62","","","","","","","","","","","","","","","",""
"","ITI","","html-keyboard-response","416","486486","0.0-1.0-567.0","0","0","45180","","null","","","null","62","","","","","","","","","","","","","","","NaN",""
"","S1","","html-keyboard-response","417","486738","0.0-1.0-569.0","0","0","45180","","null","","","null","63","","","","","","","","","","","","","","","",""
"","ISI","","html-keyboard-response","418","487742","0.0-1.0-570.0","0","0","45180","","null","","","null","63","NaN","","","","","","","","","","","","","","",""
"","S2","","html-keyboard-response","419","488002","0.0-1.0-571.0","0","0","45180","","null","","","null","63","","NaN","","","","","","","","","","","","","",""
"","response","","html-keyboard-response","420","488172","0.0-1.0-572.0-0.0","0","0","45180","","168","","","75","63","","","2","63","training","adjacent","ED","5","4","O.jpg","M.jpg","0","0","1","",""
"","feedback","","html-keyboard-response","421","489176","0.0-1.0-573.0-0.0","0","0","45180","","null","","","null","63","","","","","","","","","","","","","","","",""
"","ITI","","html-keyboard-response","422","490178","0.0-1.0-576.0","0","0","45180","","null","","","null","63","","","","","","","","","","","","","","","NaN",""
"","S1","","html-keyboard-response","423","490448","0.0-1.0-578.0","0","0","45180","","null","","","null","64","","","","","","","","","","","","","","","",""
"","ISI","","html-keyboard-response","424","491451","0.0-1.0-579.0","0","0","45180","","null","","","null","64","NaN","","","","","","","","","","","","","","",""
"","S2","","html-keyboard-response","425","491704","0.0-1.0-580.0","0","0","45180","","null","","","null","64","","NaN","","","","","","","","","","","","","",""
"","response","","html-keyboard-response","426","492020","0.0-1.0-581.0-0.0","0","0","45180","","313","","","75","64","","","2","64","training","adjacent","BC","2","3","P.jpg","N.jpg","0","1","0","",""
"","feedback","","html-keyboard-response","427","493025","0.0-1.0-582.0-0.0","0","0","45180","","null","","","null","64","","","","","","","","","","","","","","","",""
"","time_out","","html-keyboard-response","428","495033","0.0-1.0-584.0-0.0","0","0","45180","","null","","","null","64","","","","","","","","","","","","","","","",""
"","ITI","","html-keyboard-response","429","496037","0.0-1.0-585.0","0","0","45180","","null","","","null","64","","","","","","","","","","","","","","","NaN",""
"","S1","","html-keyboard-response","430","496290","0.0-1.0-587.0","0","0","45180","","null","","","null","65","","","","","","","","","","","","","","","",""
"","ISI","","html-keyboard-response","431","497291","0.0-1.0-588.0","0","0","45180","","null","","","null","65","NaN","","","","","","","","","","","","","","",""
"","S2","","html-keyboard-response","432","497544","0.0-1.0-589.0","0","0","45180","","null","","","null","65","","NaN","","","","","","","","","","","","","",""
"","response","","html-keyboard-response","433","497869","0.0-1.0-590.0-0.0","0","0","45180","","322","","","75","65","","","2","65","training","adjacent","BC","2","3","P.jpg","N.jpg","0","1","0","",""
"","feedback","","html-keyboard-response","434","498872","0.0-1.0-591.0-0.0","0","0","45180","","null","","","null","65","","","","","","","","","","","","","","","",""
"","time_out","","html-keyboard-response","435","500876","0.0-1.0-593.0-0.0","0","0","45180","","null","","","null","65","","","","","","","","","","","","","","","",""
"","ITI","","html-keyboard-response","436","501880","0.0-1.0-594.0","0","0","45180","","null","","","null","65","","","","","","","","","","","","","","","NaN",""
"","S1","","html-keyboard-response","437","502133","0.0-1.0-596.0","0","0","45180","","null","","","null","66","","","","","","","","","","","","","","","",""
"","ISI","","html-keyboard-response","438","503136","0.0-1.0-597.0","0","0","45180","","null","","","null","66","NaN","","","","","","","","","","","","","","",""
"","S2","","html-keyboard-response","439","503389","0.0-1.0-598.0","0","0","45180","","null","","","null","66","","NaN","","","","","","","","","","","","","",""
"","response","","html-keyboard-response","440","503511","0.0-1.0-599.0-0.0","0","0","45180","","119","","","68","66","","","2","66","training","adjacent","GF","7","6","L.jpg","Q.jpg","1","0","0","",""
"","feedback","","html-keyboard-response","441","504514","0.0-1.0-600.0-0.0","0","0","45180","","null","","","null","66","","","","","","","","","","","","","","","",""
"","time_out","","html-keyboard-response","442","506520","0.0-1.0-602.0-0.0","0","0","45180","","null","","","null","66","","","","","","","","","","","","","","","",""
"","ITI","","html-keyboard-response","443","507523","0.0-1.0-603.0","0","0","45180","","null","","","null","66","","","","","","","","","","","","","","","NaN",""
"","S1","","html-keyboard-response","444","507776","0.0-1.0-605.0","0","0","45180","","null","","","null","67","","","","","","","","","","","","","","","",""
"","ISI","","html-keyboard-response","445","508779","0.0-1.0-606.0","0","0","45180","","null","","","null","67","NaN","","","","","","","","","","","","","","",""
"","S2","","html-keyboard-response","446","509033","0.0-1.0-607.0","0","0","45180","","null","","","null","67","","NaN","","","","","","","","","","","","","",""
"","response","","html-keyboard-response","447","509054","0.0-1.0-608.0-0.0","0","0","45180","","19","","","75","67","","","2","67","training","adjacent","GF","7","6","L.jpg","Q.jpg","0","0","1","",""
"","feedback","","html-keyboard-response","448","510068","0.0-1.0-609.0-0.0","0","0","45180","","null","","","null","67","","","","","","","","","","","","","","","",""
"","ITI","","html-keyboard-response","449","511073","0.0-1.0-612.0","0","0","45180","","null","","","null","67","","","","","","","","","","","","","","","NaN",""
"","S1","","html-keyboard-response","450","511333","0.0-1.0-614.0","0","0","45180","","null","","","null","68","","","","","","","","","","","","","","","",""
"","ISI","","html-keyboard-response","451","512338","0.0-1.0-615.0","0","0","45180","","null","","","null","68","NaN","","","","","","","","","","","","","","",""
"","S2","","html-keyboard-response","452","512596","0.0-1.0-616.0","0","0","45180","","null","","","null","68","","NaN","","","","","","","","","","","","","",""
"","response","","html-keyboard-response","453","512807","0.0-1.0-617.0-0.0","0","0","45180","","209","","","75","68","","","2","68","training","adjacent","ED","5","4","O.jpg","M.jpg","0","0","1","",""
"","feedback","","html-keyboard-response","454","513809","0.0-1.0-618.0-0.0","0","0","45180","","null","","","null","68","","","","","","","","","","","","","","","",""
"","ITI","","html-keyboard-response","455","514813","0.0-1.0-621.0","0","0","45180","","null","","","null","68","","","","","","","","","","","","","","","NaN",""
"","S1","","html-keyboard-response","456","515068","0.0-1.0-623.0","0","0","45180","","null","","","null","69","","","","","","","","","","","","","","","",""
"","ISI","","html-keyboard-response","457","516070","0.0-1.0-624.0","0","0","45180","","null","","","null","69","NaN","","","","","","","","","","","","","","",""
"","S2","","html-keyboard-response","458","516322","0.0-1.0-625.0","0","0","45180","","null","","","null","69","","NaN","","","","","","","","","","","","","",""
"","response","","html-keyboard-response","459","516412","0.0-1.0-626.0-0.0","0","0","45180","","86","","","75","69","","","2","69","training","adjacent","BC","2","3","P.jpg","N.jpg","0","1","0","",""
"","feedback","","html-keyboard-response","460","517416","0.0-1.0-627.0-0.0","0","0","45180","","null","","","null","69","","","","","","","","","","","","","","","",""
"","time_out","","html-keyboard-response","461","519419","0.0-1.0-629.0-0.0","0","0","45180","","null","","","null","69","","","","","","","","","","","","","","","",""
"","ITI","","html-keyboard-response","462","520423","0.0-1.0-630.0","0","0","45180","","null","","","null","69","","","","","","","","","","","","","","","NaN",""
"","S1","","html-keyboard-response","463","520679","0.0-1.0-632.0","0","0","45180","","null","","","null","70","","","","","","","","","","","","","","","",""
"","ISI","","html-keyboard-response","464","521682","0.0-1.0-633.0","0","0","45180","","null","","","null","70","NaN","","","","","","","","","","","","","","",""
"","S2","","html-keyboard-response","465","521936","0.0-1.0-634.0","0","0","45180","","null","","","null","70","","NaN","","","","","","","","","","","","","",""
"","response","","html-keyboard-response","466","521954","0.0-1.0-635.0-0.0","0","0","45180","","17","","","68","70","","","2","70","training","adjacent","DE","4","5","M.jpg","O.jpg","1","1","1","",""
"","feedback","","html-keyboard-response","467","522957","0.0-1.0-636.0-0.0","0","0","45180","","null","","","null","70","","","","","","","","","","","","","","","",""
"","ITI","","html-keyboard-response","468","523959","0.0-1.0-639.0","0","0","45180","","null","","","null","70","","","","","","","","","","","","","","","NaN",""
"","S1","","html-keyboard-response","469","524211","0.0-1.0-641.0","0","0","45180","","null","","","null","71","","","","","","","","","","","","","","","",""
"","ISI","","html-keyboard-response","470","525214","0.0-1.0-642.0","0","0","45180","","null","","","null","71","NaN","","","","","","","","","","","","","","",""
"","S2","","html-keyboard-response","471","525466","0.0-1.0-643.0","0","0","45180","","null","","","null","71","","NaN","","","","","","","","","","","","","",""
"","response","","html-keyboard-response","472","525591","0.0-1.0-644.0-0.0","0","0","45180","","123","","","68","71","","","2","71","training","adjacent","FE","6","5","Q.jpg","O.jpg","1","0","0","",""
"","feedback","","html-keyboard-response","473","526598","0.0-1.0-645.0-0.0","0","0","45180","","null","","","null","71","","","","","","","","","","","","","","","",""
"","time_out","","html-keyboard-response","474","528601","0.0-1.0-647.0-0.0","0","0","45180","","null","","","null","71","","","","","","","","","","","","","","","",""
"","ITI","","html-keyboard-response","475","529605","0.0-1.0-648.0","0","0","45180","","null","","","null","71","","","","","","","","","","","","","","","NaN",""
"","S1","","html-keyboard-response","476","529859","0.0-1.0-650.0","0","0","45180","","null","","","null","72","","","","","","","","","","","","","","","",""
"","ISI","","html-keyboard-response","477","530863","0.0-1.0-651.0","0","0","45180","","null","","","null","72","NaN","","","","","","","","","","","","","","",""
"","S2","","html-keyboard-response","478","531127","0.0-1.0-652.0","0","0","45180","","null","","","null","72","","NaN","","","","","","","","","","","","","",""
"","response","","html-keyboard-response","479","531503","0.0-1.0-653.0-0.0","0","0","45180","","374","","","68","72","","","2","72","training","adjacent","CB","3","2","N.jpg","P.jpg","1","0","0","",""
"","feedback","","html-keyboard-response","480","532505","0.0-1.0-654.0-0.0","0","0","45180","","null","","","null","72","","","","","","","","","","","","","","","",""
"","time_out","","html-keyboard-response","481","534508","0.0-1.0-656.0-0.0","0","0","45180","","null","","","null","72","","","","","","","","","","","","","","","",""
"","ITI","","html-keyboard-response","482","535510","0.0-1.0-657.0","0","0","45180","","null","","","null","72","","","","","","","","","","","","","","","NaN",""
"","S1","","html-keyboard-response","483","535763","0.0-1.0-659.0","0","0","45180","","null","","","null","73","","","","","","","","","","","","","","","",""
"","ISI","","html-keyboard-response","484","536767","0.0-1.0-660.0","0","0","45180","","null","","","null","73","NaN","","","","","","","","","","","","","","",""
"","S2","","html-keyboard-response","485","537020","0.0-1.0-661.0","0","0","45180","","null","","","null","73","","NaN","","","","","","","","","","","","","",""
"","response","","html-keyboard-response","486","537088","0.0-1.0-662.0-0.0","0","0","45180","","64","","","75","73","","","2","73","training","adjacent","AB","1","2","R.jpg","P.jpg","0","1","0","",""
"","feedback","","html-keyboard-response","487","538091","0.0-1.0-663.0-0.0","0","0","45180","","null","","","null","73","","","","","","","","","","","","","","","",""
"","time_out","","html-keyboard-response","488","540095","0.0-1.0-665.0-0.0","0","0","45180","","null","","","null","73","","","","","","","","","","","","","","","",""
"","ITI","","html-keyboard-response","489","541098","0.0-1.0-666.0","0","0","45180","","null","","","null","73","","","","","","","","","","","","","","","NaN",""
"","S1","","html-keyboard-response","490","541351","0.0-1.0-668.0","0","0","45180","","null","","","null","74","","","","","","","","","","","","","","","",""
"","ISI","","html-keyboard-response","491","542355","0.0-1.0-669.0","0","0","45180","","null","","","null","74","NaN","","","","","","","","","","","","","","",""
"","S2","","html-keyboard-response","492","542608","0.0-1.0-670.0","0","0","45180","","null","","","null","74","","NaN","","","","","","","","","","","","","",""
"","response","","html-keyboard-response","493","542857","0.0-1.0-671.0-0.0","0","0","45180","","246","","","68","74","","","2","74","training","adjacent","ED","5","4","O.jpg","M.jpg","1","0","0","",""
"","feedback","","html-keyboard-response","494","543861","0.0-1.0-672.0-0.0","0","0","45180","","null","","","null","74","","","","","","","","","","","","","","","",""
"","time_out","","html-keyboard-response","495","545863","0.0-1.0-674.0-0.0","0","0","45180","","null","","","null","74","","","","","","","","","","","","","","","",""
"","ITI","","html-keyboard-response","496","546867","0.0-1.0-675.0","0","0","45180","","null","","","null","74","","","","","","","","","","","","","","","NaN",""
"","S1","","html-keyboard-response","497","547119","0.0-1.0-677.0","0","0","45180","","null","","","null","75","","","","","","","","","","","","","","","",""
"","ISI","","html-keyboard-response","498","548123","0.0-1.0-678.0","0","0","45180","","null","","","null","75","NaN","","","","","","","","","","","","","","",""
"","S2","","html-keyboard-response","499","548377","0.0-1.0-679.0","0","0","45180","","null","","","null","75","","NaN","","","","","","","","","","","","","",""
"","response","","html-keyboard-response","500","548538","0.0-1.0-680.0-0.0","0","0","45180","","157","","","75","75","","","2","75","training","adjacent","BA","2","1","P.jpg","R.jpg","0","0","1","",""
"","feedback","","html-keyboard-response","501","549542","0.0-1.0-681.0-0.0","0","0","45180","","null","","","null","75","","","","","","","","","","","","","","","",""
"","ITI","","html-keyboard-response","502","550545","0.0-1.0-684.0","0","0","45180","","null","","","null","75","","","","","","","","","","","","","","","NaN",""
"","S1","","html-keyboard-response","503","550807","0.0-1.0-686.0","0","0","45180","","null","","","null","76","","","","","","","","","","","","","","","",""
"","ISI","","html-keyboard-response","504","551837","0.0-1.0-687.0","0","0","45180","","null","","","null","76","NaN","","","","","","","","","","","","","","",""
"","S2","","html-keyboard-response","505","552090","0.0-1.0-688.0","0","0","45180","","null","","","null","76","","NaN","","","","","","","","","","","","","",""
"","response","","html-keyboard-response","506","552152","0.0-1.0-689.0-0.0","0","0","45180","","59","","","75","76","","","2","76","training","adjacent","ED","5","4","O.jpg","M.jpg","0","0","1","",""
"","feedback","","html-keyboard-response","507","553156","0.0-1.0-690.0-0.0","0","0","45180","","null","","","null","76","","","","","","","","","","","","","","","",""
"","ITI","","html-keyboard-response","508","554160","0.0-1.0-693.0","0","0","45180","","null","","","null","76","","","","","","","","","","","","","","","NaN",""
"","S1","","html-keyboard-response","509","554415","0.0-1.0-695.0","0","0","45180","","null","","","null","77","","","","","","","","","","","","","","","",""
"","ISI","","html-keyboard-response","510","555419","0.0-1.0-696.0","0","0","45180","","null","","","null","77","NaN","","","","","","","","","","","","","","",""
"","S2","","html-keyboard-response","511","555677","0.0-1.0-697.0","0","0","45180","","null","","","null","77","","NaN","","","","","","","","","","","","","",""
"","response","","html-keyboard-response","512","555797","0.0-1.0-698.0-0.0","0","0","45180","","117","","","75","77","","","2","77","training","adjacent","BA","2","1","P.jpg","R.jpg","0","0","1","",""
"","feedback","","html-keyboard-response","513","556800","0.0-1.0-699.0-0.0","0","0","45180","","null","","","null","77","","","","","","","","","","","","","","","",""
"","ITI","","html-keyboard-response","514","557804","0.0-1.0-702.0","0","0","45180","","null","","","null","77","","","","","","","","","","","","","","","NaN",""
"","S1","","html-keyboard-response","515","558057","0.0-1.0-704.0","0","0","45180","","null","","","null","78","","","","","","","","","","","","","","","",""
"","ISI","","html-keyboard-response","516","559067","0.0-1.0-705.0","0","0","45180","","null","","","null","78","NaN","","","","","","","","","","","","","","",""
"","S2","","html-keyboard-response","517","559321","0.0-1.0-706.0","0","0","45180","","null","","","null","78","","NaN","","","","","","","","","","","","","",""
"","response","","html-keyboard-response","518","559580","0.0-1.0-707.0-0.0","0","0","45180","","256","","","68","78","","","2","78","training","adjacent","GF","7","6","L.jpg","Q.jpg","1","0","0","",""
"","feedback","","html-keyboard-response","519","560583","0.0-1.0-708.0-0.0","0","0","45180","","null","","","null","78","","","","","","","","","","","","","","","",""
"","time_out","","html-keyboard-response","520","562585","0.0-1.0-710.0-0.0","0","0","45180","","null","","","null","78","","","","","","","","","","","","","","","",""
"","ITI","","html-keyboard-response","521","563590","0.0-1.0-711.0","0","0","45180","","null","","","null","78","","","","","","","","","","","","","","","NaN",""
"","S1","","html-keyboard-response","522","563844","0.0-1.0-713.0","0","0","45180","","null","","","null","79","","","","","","","","","","","","","","","",""
"","ISI","","html-keyboard-response","523","564848","0.0-1.0-714.0","0","0","45180","","null","","","null","79","NaN","","","","","","","","","","","","","","",""
"","S2","","html-keyboard-response","524","565101","0.0-1.0-715.0","0","0","45180","","null","","","null","79","","NaN","","","","","","","","","","","","","",""
"","response","","html-keyboard-response","525","565408","0.0-1.0-716.0-0.0","0","0","45180","","301","","","68","79","","","2","79","training","adjacent","AB","1","2","R.jpg","P.jpg","1","1","1","",""
"","feedback","","html-keyboard-response","526","566418","0.0-1.0-717.0-0.0","0","0","45180","","null","","","null","79","","","","","","","","","","","","","","","",""
"","ITI","","html-keyboard-response","527","567421","0.0-1.0-720.0","0","0","45180","","null","","","null","79","","","","","","","","","","","","","","","NaN",""
"","S1","","html-keyboard-response","528","567676","0.0-1.0-722.0","0","0","45180","","null","","","null","80","","","","","","","","","","","","","","","",""
"","ISI","","html-keyboard-response","529","568679","0.0-1.0-723.0","0","0","45180","","null","","","null","80","NaN","","","","","","","","","","","","","","",""
"","S2","","html-keyboard-response","530","568932","0.0-1.0-724.0","0","0","45180","","null","","","null","80","","NaN","","","","","","","","","","","","","",""
"","response","","html-keyboard-response","531","569235","0.0-1.0-725.0-0.0","0","0","45180","","302","","","75","80","","","2","80","training","adjacent","FG","6","7","Q.jpg","L.jpg","0","1","0","",""
"","feedback","","html-keyboard-response","532","570237","0.0-1.0-726.0-0.0","0","0","45180","","null","","","null","80","","","","","","","","","","","","","","","",""
"","time_out","","html-keyboard-response","533","572241","0.0-1.0-728.0-0.0","0","0","45180","","null","","","null","80","","","","","","","","","","","","","","","",""
"","ITI","","html-keyboard-response","534","573244","0.0-1.0-729.0","0","0","45180","","null","","","null","80","","","","","","","","","","","","","","","NaN",""
"","S1","","html-keyboard-response","535","573499","0.0-1.0-731.0","0","0","45180","","null","","","null","81","","","","","","","","","","","","","","","",""
"","ISI","","html-keyboard-response","536","574502","0.0-1.0-732.0","0","0","45180","","null","","","null","81","NaN","","","","","","","","","","","","","","",""
"","S2","","html-keyboard-response","537","574757","0.0-1.0-733.0","0","0","45180","","null","","","null","81","","NaN","","","","","","","","","","","","","",""
"","response","","html-keyboard-response","538","574789","0.0-1.0-734.0-0.0","0","0","45180","","30","","","75","81","","","2","81","training","adjacent","BA","2","1","P.jpg","R.jpg","0","0","1","",""
"","feedback","","html-keyboard-response","539","575793","0.0-1.0-735.0-0.0","0","0","45180","","null","","","null","81","","","","","","","","","","","","","","","",""
"","ITI","","html-keyboard-response","540","576796","0.0-1.0-738.0","0","0","45180","","null","","","null","81","","","","","","","","","","","","","","","NaN",""
"","S1","","html-keyboard-response","541","577050","0.0-1.0-740.0","0","0","45180","","null","","","null","82","","","","","","","","","","","","","","","",""
"","ISI","","html-keyboard-response","542","578053","0.0-1.0-741.0","0","0","45180","","null","","","null","82","NaN","","","","","","","","","","","","","","",""
"","S2","","html-keyboard-response","543","578305","0.0-1.0-742.0","0","0","45180","","null","","","null","82","","NaN","","","","","","","","","","","","","",""
"","response","","html-keyboard-response","544","578353","0.0-1.0-743.0-0.0","0","0","45180","","46","","","75","82","","","2","82","training","adjacent","EF","5","6","O.jpg","Q.jpg","0","1","0","",""
"","feedback","","html-keyboard-response","545","579357","0.0-1.0-744.0-0.0","0","0","45180","","null","","","null","82","","","","","","","","","","","","","","","",""
"","time_out","","html-keyboard-response","546","581360","0.0-1.0-746.0-0.0","0","0","45180","","null","","","null","82","","","","","","","","","","","","","","","",""
"","ITI","","html-keyboard-response","547","582363","0.0-1.0-747.0","0","0","45180","","null","","","null","82","","","","","","","","","","","","","","","NaN",""
"","S1","","html-keyboard-response","548","582625","0.0-1.0-749.0","0","0","45180","","null","","","null","83","","","","","","","","","","","","","","","",""
"","ISI","","html-keyboard-response","549","583628","0.0-1.0-750.0","0","0","45180","","null","","","null","83","NaN","","","","","","","","","","","","","","",""
"","S2","","html-keyboard-response","550","583882","0.0-1.0-751.0","0","0","45180","","null","","","null","83","","NaN","","","","","","","","","","","","","",""
"","response","","html-keyboard-response","551","584093","0.0-1.0-752.0-0.0","0","0","45180","","207","","","68","83","","","2","83","training","adjacent","FE","6","5","Q.jpg","O.jpg","1","0","0","",""
"","feedback","","html-keyboard-response","552","585098","0.0-1.0-753.0-0.0","0","0","45180","","null","","","null","83","","","","","","","","","","","","","","","",""
"","time_out","","html-keyboard-response","553","587101","0.0-1.0-755.0-0.0","0","0","45180","","null","","","null","83","","","","","","","","","","","","","","","",""
"","ITI","","html-keyboard-response","554","588124","0.0-1.0-756.0","0","0","45180","","null","","","null","83","","","","","","","","","","","","","","","NaN",""
"","S1","","html-keyboard-response","555","588377","0.0-1.0-758.0","0","0","45180","","null","","","null","84","","","","","","","","","","","","","","","",""
"","ISI","","html-keyboard-response","556","589380","0.0-1.0-759.0","0","0","45180","","null","","","null","84","NaN","","","","","","","","","","","","","","",""
"","S2","","html-keyboard-response","557","589633","0.0-1.0-760.0","0","0","45180","","null","","","null","84","","NaN","","","","","","","","","","","","","",""
"","response","","html-keyboard-response","558","590149","0.0-1.0-761.0-0.0","0","0","45180","","512","","","68","84","","","2","84","training","adjacent","GF","7","6","L.jpg","Q.jpg","1","0","0","",""
"","feedback","","html-keyboard-response","559","591160","0.0-1.0-762.0-0.0","0","0","45180","","null","","","null","84","","","","","","","","","","","","","","","",""
"","time_out","","html-keyboard-response","560","593165","0.0-1.0-764.0-0.0","0","0","45180","","null","","","null","84","","","","","","","","","","","","","","","",""
"","ITI","","html-keyboard-response","561","594167","0.0-1.0-765.0","0","0","45180","","null","","","null","84","","","","","","","","","","","","","","","NaN",""
"","S1","","html-keyboard-response","562","594420","0.0-1.0-767.0","0","0","45180","","null","","","null","85","","","","","","","","","","","","","","","",""
"","ISI","","html-keyboard-response","563","595422","0.0-1.0-768.0","0","0","45180","","null","","","null","85","NaN","","","","","","","","","","","","","","",""
"","S2","","html-keyboard-response","564","595677","0.0-1.0-769.0","0","0","45180","","null","","","null","85","","NaN","","","","","","","","","","","","","",""
"","response","","html-keyboard-response","565","595958","0.0-1.0-770.0-0.0","0","0","45180","","279","","","75","85","","","2","85","training","adjacent","DC","4","3","M.jpg","N.jpg","0","0","1","",""
"","feedback","","html-keyboard-response","566","596961","0.0-1.0-771.0-0.0","0","0","45180","","null","","","null","85","","","","","","","","","","","","","","","",""
"","ITI","","html-keyboard-response","567","597966","0.0-1.0-774.0","0","0","45180","","null","","","null","85","","","","","","","","","","","","","","","NaN",""
"","S1","","html-keyboard-response","568","598219","0.0-1.0-776.0","0","0","45180","","null","","","null","86","","","","","","","","","","","","","","","",""
"","ISI","","html-keyboard-response","569","599222","0.0-1.0-777.0","0","0","45180","","null","","","null","86","NaN","","","","","","","","","","","","","","",""
"","S2","","html-keyboard-response","570","599476","0.0-1.0-778.0","0","0","45180","","null","","","null","86","","NaN","","","","","","","","","","","","","",""
"","response","","html-keyboard-response","571","599742","0.0-1.0-779.0-0.0","0","0","45180","","263","","","68","86","","","2","86","training","adjacent","CD","3","4","N.jpg","M.jpg","1","1","1","",""
"","feedback","","html-keyboard-response","572","600747","0.0-1.0-780.0-0.0","0","0","45180","","null","","","null","86","","","","","","","","","","","","","","","",""
"","ITI","","html-keyboard-response","573","601769","0.0-1.0-783.0","0","0","45180","","null","","","null","86","","","","","","","","","","","","","","","NaN",""
"","S1","","html-keyboard-response","574","602023","0.0-1.0-785.0","0","0","45180","","null","","","null","87","","","","","","","","","","","","","","","",""
"","ISI","","html-keyboard-response","575","603030","0.0-1.0-786.0","0","0","45180","","null","","","null","87","NaN","","","","","","","","","","","","","","",""
"","S2","","html-keyboard-response","576","603284","0.0-1.0-787.0","0","0","45180","","null","","","null","87","","NaN","","","","","","","","","","","","","",""
"","response","","html-keyboard-response","577","603786","0.0-1.0-788.0-0.0","0","0","45180","","499","","","68","87","","","2","87","training","adjacent","CB","3","2","N.jpg","P.jpg","1","0","0","",""
"","feedback","","html-keyboard-response","578","604790","0.0-1.0-789.0-0.0","0","0","45180","","null","","","null","87","","","","","","","","","","","","","","","",""
"","time_out","","html-keyboard-response","579","606812","0.0-1.0-791.0-0.0","0","0","45180","","null","","","null","87","","","","","","","","","","","","","","","",""
"","ITI","","html-keyboard-response","580","607814","0.0-1.0-792.0","0","0","45180","","null","","","null","87","","","","","","","","","","","","","","","NaN",""
"","S1","","html-keyboard-response","581","608080","0.0-1.0-794.0","0","0","45180","","null","","","null","88","","","","","","","","","","","","","","","",""
