"success","ttype","start_time","trial_type","trial_index","time_elapsed","internal_node_id","warning","missed_checkup","PID","view_history","rt","responses","repeat_instructions","key_press","index","keypress_isi","keypress_S2","block","trial_num","phase","group_type","pair_type","S1_stim","S2_stim","S1_img","S2_img","S1_chosen","S1_higher","accuracy","keypress_iti","total_bonus_tally"
"true","full_screen","d04072023hr0026","fullscreen","0","803137","0.0-0.0","0","0","19196","","","","","","","","","","","","","","","","","","","","","",""
"","instructions","","instructions","1","846575","0.0-1.0-0.0-0.0","0","0","19196","[{""page_index"":0,""viewing_time"":5258},{""page_index"":1,""viewing_time"":19672},{""page_index"":2,""viewing_time"":14729},{""page_index"":3,""viewing_time"":3775}]","43435","","","","","","","","","","","","","","","","","","","",""
"","comprehension_check","","survey-multi-choice","2","881408","0.0-1.0-0.0-1.0","0","0","19196","","34830","{""Q0"":""True"",""Q1"":""D"",""Q2"":""Once the second image appears and while the screen 'MAKE A CHOICE' is shown"",""Q3"":""Green mark"",""Q4"":""either D or K""}","0","","","","","","","","","","","","","","","","","",""
"","start_exp","","html-keyboard-response","3","886319","0.0-1.0-1.0","0","0","19196","","4908","","","32","","","","","","","","","","","","","","","","",""
"","S1","","html-keyboard-response","4","886484","0.0-1.0-2.0","0","0","19196","","null","","","null","0","","","","","","","","","","","","","","","",""
"","ISI","","html-keyboard-response","5","888486","0.0-1.0-3.0","0","0","19196","","401","","","68","0","d","","","","","","","","","","","","","","",""
"","S2","","html-keyboard-response","6","888640","0.0-1.0-4.0","0","0","19196","","null","","","null","0","","NaN","","","","","","","","","","","","","",""
"","response","","html-keyboard-response","7","889215","0.0-1.0-5.0-0.0","0","0","19196","","574","","","68","0","","","1","0","training","adjacent","EF","5","6","R.jpg","P.jpg","1","1","1","",""
"","feedback","","html-keyboard-response","8","890218","0.0-1.0-6.0-0.0","0","0","19196","","null","","","null","0","","","","","","","","","","","","","","","",""
"","ITI","","html-keyboard-response","9","891221","0.0-1.0-9.0","0","0","19196","","null","","","null","0","","","","","","","","","","","","","","","NaN",""
"","S1","","html-keyboard-response","10","891374","0.0-1.0-11.0","0","0","19196","","null","","","null","1","","","","","","","","","","","","","","","",""
"","ISI","","html-keyboard-response","11","893377","0.0-1.0-12.0","0","0","19196","","null","","","null","1","NaN","","","","","","","","","","","","","","",""
"","S2","","html-keyboard-response","12","893530","0.0-1.0-13.0","0","0","19196","","null","","","null","1","","NaN","","","","","","","","","","","","","",""
"","response","","html-keyboard-response","13","893977","0.0-1.0-14.0-0.0","0","0","19196","","444","","","75","1","","","1","1","training","adjacent","GF","7","6","N.jpg","P.jpg","0","0","1","",""
"","feedback","","html-keyboard-response","14","894980","0.0-1.0-15.0-0.0","0","0","19196","","null","","","null","1","","","","","","","","","","","","","","","",""
"","ITI","","html-keyboard-response","15","895985","0.0-1.0-18.0","0","0","19196","","null","","","null","1","","","","","","","","","","","","","","","NaN",""
"","S1","","html-keyboard-response","16","896138","0.0-1.0-20.0","0","0","19196","","null","","","null","2","","","","","","","","","","","","","","","",""
"","ISI","","html-keyboard-response","17","898142","0.0-1.0-21.0","0","0","19196","","null","","","null","2","NaN","","","","","","","","","","","","","","",""
"","S2","","html-keyboard-response","18","898296","0.0-1.0-22.0","0","0","19196","","null","","","null","2","","NaN","","","","","","","","","","","","","",""
"","response","","html-keyboard-response","19","898735","0.0-1.0-23.0-0.0","0","0","19196","","437","","","68","2","","","1","2","training","adjacent","BA","2","1","M.jpg","L.jpg","1","0","0","",""
"","feedback","","html-keyboard-response","20","899739","0.0-1.0-24.0-0.0","0","0","19196","","null","","","null","2","","","","","","","","","","","","","","","",""
"","time_out","","html-keyboard-response","21","901745","0.0-1.0-26.0-0.0","0","0","19196","","null","","","null","2","","","","","","","","","","","","","","","",""
"","ITI","","html-keyboard-response","22","902756","0.0-1.0-27.0","0","0","19196","","null","","","null","2","","","","","","","","","","","","","","","NaN",""
"","S1","","html-keyboard-response","23","902910","0.0-1.0-29.0","0","0","19196","","null","","","null","3","","","","","","","","","","","","","","","",""
"","ISI","","html-keyboard-response","24","904914","0.0-1.0-30.0","0","0","19196","","null","","","null","3","NaN","","","","","","","","","","","","","","",""
"","S2","","html-keyboard-response","25","905069","0.0-1.0-31.0","0","0","19196","","null","","","null","3","","NaN","","","","","","","","","","","","","",""
"","response","","html-keyboard-response","26","905496","0.0-1.0-32.0-0.0","0","0","19196","","424","","","75","3","","","1","3","training","adjacent","AB","1","2","L.jpg","M.jpg","0","1","0","",""
"","feedback","","html-keyboard-response","27","906499","0.0-1.0-33.0-0.0","0","0","19196","","null","","","null","3","","","","","","","","","","","","","","","",""
"","time_out","","html-keyboard-response","28","908501","0.0-1.0-35.0-0.0","0","0","19196","","null","","","null","3","","","","","","","","","","","","","","","",""
"","ITI","","html-keyboard-response","29","909504","0.0-1.0-36.0","0","0","19196","","null","","","null","3","","","","","","","","","","","","","","","NaN",""
"","S1","","html-keyboard-response","30","909657","0.0-1.0-38.0","0","0","19196","","null","","","null","4","","","","","","","","","","","","","","","",""
"","ISI","","html-keyboard-response","31","911659","0.0-1.0-39.0","0","0","19196","","null","","","null","4","NaN","","","","","","","","","","","","","","",""
"","S2","","html-keyboard-response","32","911811","0.0-1.0-40.0","0","0","19196","","null","","","null","4","","NaN","","","","","","","","","","","","","",""
"","response","","html-keyboard-response","33","912215","0.0-1.0-41.0-0.0","0","0","19196","","402","","","75","4","","","1","4","training","adjacent","ED","5","4","R.jpg","Q.jpg","0","0","1","",""
"","feedback","","html-keyboard-response","34","913219","0.0-1.0-42.0-0.0","0","0","19196","","null","","","null","4","","","","","","","","","","","","","","","",""
"","ITI","","html-keyboard-response","35","914223","0.0-1.0-45.0","0","0","19196","","null","","","null","4","","","","","","","","","","","","","","","NaN",""
"","S1","","html-keyboard-response","36","914377","0.0-1.0-47.0","0","0","19196","","null","","","null","5","","","","","","","","","","","","","","","",""
"","ISI","","html-keyboard-response","37","916381","0.0-1.0-48.0","0","0","19196","","null","","","null","5","NaN","","","","","","","","","","","","","","",""
"","S2","","html-keyboard-response","38","916534","0.0-1.0-49.0","0","0","19196","","null","","","null","5","","NaN","","","","","","","","","","","","","",""
"","response","","html-keyboard-response","39","917096","0.0-1.0-50.0-0.0","0","0","19196","","559","","","75","5","","","1","5","training","adjacent","ED","5","4","R.jpg","Q.jpg","0","0","1","",""
"","feedback","","html-keyboard-response","40","918098","0.0-1.0-51.0-0.0","0","0","19196","","null","","","null","5","","","","","","","","","","","","","","","",""
"","ITI","","html-keyboard-response","41","919100","0.0-1.0-54.0","0","0","19196","","null","","","null","5","","","","","","","","","","","","","","","NaN",""
"","S1","","html-keyboard-response","42","919253","0.0-1.0-56.0","0","0","19196","","null","","","null","6","","","","","","","","","","","","","","","",""
"","ISI","","html-keyboard-response","43","921255","0.0-1.0-57.0","0","0","19196","","null","","","null","6","NaN","","","","","","","","","","","","","","",""
"","S2","","html-keyboard-response","44","921408","0.0-1.0-58.0","0","0","19196","","null","","","null","6","","NaN","","","","","","","","","","","","","",""
"","response","","html-keyboard-response","45","921886","0.0-1.0-59.0-0.0","0","0","19196","","477","","","68","6","","","1","6","training","adjacent","FG","6","7","P.jpg","N.jpg","1","1","1","",""
"","feedback","","html-keyboard-response","46","922891","0.0-1.0-60.0-0.0","0","0","19196","","null","","","null","6","","","","","","","","","","","","","","","",""
"","ITI","","html-keyboard-response","47","923895","0.0-1.0-63.0","0","0","19196","","null","","","null","6","","","","","","","","","","","","","","","NaN",""
"","S1","","html-keyboard-response","48","924060","0.0-1.0-65.0","0","0","19196","","null","","","null","7","","","","","","","","","","","","","","","",""
"","ISI","","html-keyboard-response","49","926075","0.0-1.0-66.0","0","0","19196","","null","","","null","7","NaN","","","","","","","","","","","","","","",""
"","S2","","html-keyboard-response","50","926229","0.0-1.0-67.0","0","0","19196","","null","","","null","7","","NaN","","","","","","","","","","","","","",""
"","response","","html-keyboard-response","51","927015","0.0-1.0-68.0-0.0","0","0","19196","","785","","","68","7","","","1","7","training","adjacent","BA","2","1","M.jpg","L.jpg","1","0","0","",""
"","feedback","","html-keyboard-response","52","928018","0.0-1.0-69.0-0.0","0","0","19196","","null","","","null","7","","","","","","","","","","","","","","","",""
"","time_out","","html-keyboard-response","53","930021","0.0-1.0-71.0-0.0","0","0","19196","","null","","","null","7","","","","","","","","","","","","","","","",""
"","ITI","","html-keyboard-response","54","931025","0.0-1.0-72.0","0","0","19196","","null","","","null","7","","","","","","","","","","","","","","","NaN",""
"","S1","","html-keyboard-response","55","931178","0.0-1.0-74.0","0","0","19196","","null","","","null","8","","","","","","","","","","","","","","","",""
"","ISI","","html-keyboard-response","56","933187","0.0-1.0-75.0","0","0","19196","","null","","","null","8","NaN","","","","","","","","","","","","","","",""
"","S2","","html-keyboard-response","57","933342","0.0-1.0-76.0","0","0","19196","","null","","","null","8","","NaN","","","","","","","","","","","","","",""
"","response","","html-keyboard-response","58","933750","0.0-1.0-77.0-0.0","0","0","19196","","406","","","68","8","","","1","8","training","adjacent","AB","1","2","L.jpg","M.jpg","1","1","1","",""
"","feedback","","html-keyboard-response","59","934752","0.0-1.0-78.0-0.0","0","0","19196","","null","","","null","8","","","","","","","","","","","","","","","",""
"","ITI","","html-keyboard-response","60","935756","0.0-1.0-81.0","0","0","19196","","null","","","null","8","","","","","","","","","","","","","","","NaN",""
"","S1","","html-keyboard-response","61","935909","0.0-1.0-83.0","0","0","19196","","null","","","null","9","","","","","","","","","","","","","","","",""
"","ISI","","html-keyboard-response","62","937932","0.0-1.0-84.0","0","0","19196","","null","","","null","9","NaN","","","","","","","","","","","","","","",""
"","S2","","html-keyboard-response","63","938088","0.0-1.0-85.0","0","0","19196","","null","","","null","9","","NaN","","","","","","","","","","","","","",""
"","response","","html-keyboard-response","64","938557","0.0-1.0-86.0-0.0","0","0","19196","","468","","","68","9","","","1","9","training","adjacent","CD","3","4","O.jpg","Q.jpg","1","1","1","",""
"","feedback","","html-keyboard-response","65","939560","0.0-1.0-87.0-0.0","0","0","19196","","null","","","null","9","","","","","","","","","","","","","","","",""
"","ITI","","html-keyboard-response","66","940563","0.0-1.0-90.0","0","0","19196","","null","","","null","9","","","","","","","","","","","","","","","NaN",""
"","S1","","html-keyboard-response","67","940716","0.0-1.0-92.0","0","0","19196","","null","","","null","10","","","","","","","","","","","","","","","",""
"","ISI","","html-keyboard-response","68","942720","0.0-1.0-93.0","0","0","19196","","null","","","null","10","NaN","","","","","","","","","","","","","","",""
"","S2","","html-keyboard-response","69","942876","0.0-1.0-94.0","0","0","19196","","null","","","null","10","","NaN","","","","","","","","","","","","","",""
"","response","","html-keyboard-response","70","943401","0.0-1.0-95.0-0.0","0","0","19196","","522","","","68","10","","","1","10","training","adjacent","BC","2","3","M.jpg","O.jpg","1","1","1","",""
"","feedback","","html-keyboard-response","71","944404","0.0-1.0-96.0-0.0","0","0","19196","","null","","","null","10","","","","","","","","","","","","","","","",""
"","ITI","","html-keyboard-response","72","945406","0.0-1.0-99.0","0","0","19196","","null","","","null","10","","","","","","","","","","","","","","","NaN",""
"","S1","","html-keyboard-response","73","945560","0.0-1.0-101.0","0","0","19196","","null","","","null","11","","","","","","","","","","","","","","","",""
"","ISI","","html-keyboard-response","74","947562","0.0-1.0-102.0","0","0","19196","","null","","","null","11","NaN","","","","","","","","","","","","","","",""
"","S2","","html-keyboard-response","75","947716","0.0-1.0-103.0","0","0","19196","","null","","","null","11","","NaN","","","","","","","","","","","","","",""
"","response","","html-keyboard-response","76","948142","0.0-1.0-104.0-0.0","0","0","19196","","425","","","75","11","","","1","11","training","adjacent","ED","5","4","R.jpg","Q.jpg","0","0","1","",""
"","feedback","","html-keyboard-response","77","949145","0.0-1.0-105.0-0.0","0","0","19196","","null","","","null","11","","","","","","","","","","","","","","","",""
"","ITI","","html-keyboard-response","78","950147","0.0-1.0-108.0","0","0","19196","","null","","","null","11","","","","","","","","","","","","","","","NaN",""
"","S1","","html-keyboard-response","79","950301","0.0-1.0-110.0","0","0","19196","","null","","","null","12","","","","","","","","","","","","","","","",""
"","ISI","","html-keyboard-response","80","952303","0.0-1.0-111.0","0","0","19196","","null","","","null","12","NaN","","","","","","","","","","","","","","",""
"","S2","","html-keyboard-response","81","952457","0.0-1.0-112.0","0","0","19196","","null","","","null","12","","NaN","","","","","","","","","","","","","",""
"","response","","html-keyboard-response","82","952902","0.0-1.0-113.0-0.0","0","0","19196","","444","","","68","12","","","1","12","training","adjacent","CB","3","2","O.jpg","M.jpg","1","0","0","",""
"","feedback","","html-keyboard-response","83","953913","0.0-1.0-114.0-0.0","0","0","19196","","null","","","null","12","","","","","","","","","","","","","","","",""
"","time_out","","html-keyboard-response","84","955918","0.0-1.0-116.0-0.0","0","0","19196","","null","","","null","12","","","","","","","","","","","","","","","",""
"","ITI","","html-keyboard-response","85","956922","0.0-1.0-117.0","0","0","19196","","null","","","null","12","","","","","","","","","","","","","","","NaN",""
"","S1","","html-keyboard-response","86","957077","0.0-1.0-119.0","0","0","19196","","null","","","null","13","","","","","","","","","","","","","","","",""
"","ISI","","html-keyboard-response","87","959096","0.0-1.0-120.0","0","0","19196","","null","","","null","13","NaN","","","","","","","","","","","","","","",""
"","S2","","html-keyboard-response","88","959250","0.0-1.0-121.0","0","0","19196","","null","","","null","13","","NaN","","","","","","","","","","","","","",""
"","response","","html-keyboard-response","89","959577","0.0-1.0-122.0-0.0","0","0","19196","","323","","","68","13","","","1","13","training","adjacent","CB","3","2","O.jpg","M.jpg","1","0","0","",""
"","feedback","","html-keyboard-response","90","960581","0.0-1.0-123.0-0.0","0","0","19196","","null","","","null","13","","","","","","","","","","","","","","","",""
"","time_out","","html-keyboard-response","91","962584","0.0-1.0-125.0-0.0","0","0","19196","","null","","","null","13","","","","","","","","","","","","","","","",""
"","ITI","","html-keyboard-response","92","963595","0.0-1.0-126.0","0","0","19196","","null","","","null","13","","","","","","","","","","","","","","","NaN",""
"","S1","","html-keyboard-response","93","963748","0.0-1.0-128.0","0","0","19196","","null","","","null","14","","","","","","","","","","","","","","","",""
"","ISI","","html-keyboard-response","94","965752","0.0-1.0-129.0","0","0","19196","","null","","","null","14","NaN","","","","","","","","","","","","","","",""
"","S2","","html-keyboard-response","95","965906","0.0-1.0-130.0","0","0","19196","","null","","","null","14","","NaN","","","","","","","","","","","","","",""
"","response","","html-keyboard-response","96","966400","0.0-1.0-131.0-0.0","0","0","19196","","491","","","68","14","","","1","14","training","adjacent","FE","6","5","P.jpg","R.jpg","1","0","0","",""
"","feedback","","html-keyboard-response","97","967404","0.0-1.0-132.0-0.0","0","0","19196","","null","","","null","14","","","","","","","","","","","","","","","",""
"","time_out","","html-keyboard-response","98","969408","0.0-1.0-134.0-0.0","0","0","19196","","null","","","null","14","","","","","","","","","","","","","","","",""
"","ITI","","html-keyboard-response","99","970411","0.0-1.0-135.0","0","0","19196","","null","","","null","14","","","","","","","","","","","","","","","NaN",""
"","S1","","html-keyboard-response","100","970565","0.0-1.0-137.0","0","0","19196","","null","","","null","15","","","","","","","","","","","","","","","",""
"","ISI","","html-keyboard-response","101","972567","0.0-1.0-138.0","0","0","19196","","null","","","null","15","NaN","","","","","","","","","","","","","","",""
"","S2","","html-keyboard-response","102","972733","0.0-1.0-139.0","0","0","19196","","null","","","null","15","","NaN","","","","","","","","","","","","","",""
"","response","","html-keyboard-response","103","973208","0.0-1.0-140.0-0.0","0","0","19196","","472","","","68","15","","","1","15","training","adjacent","DE","4","5","Q.jpg","R.jpg","1","1","1","",""
"","feedback","","html-keyboard-response","104","974212","0.0-1.0-141.0-0.0","0","0","19196","","null","","","null","15","","","","","","","","","","","","","","","",""
"","ITI","","html-keyboard-response","105","975216","0.0-1.0-144.0","0","0","19196","","null","","","null","15","","","","","","","","","","","","","","","NaN",""
"","S1","","html-keyboard-response","106","975380","0.0-1.0-146.0","0","0","19196","","null","","","null","16","","","","","","","","","","","","","","","",""
"","ISI","","html-keyboard-response","107","977382","0.0-1.0-147.0","0","0","19196","","null","","","null","16","NaN","","","","","","","","","","","","","","",""
"","S2","","html-keyboard-response","108","977540","0.0-1.0-148.0","0","0","19196","","null","","","null","16","","NaN","","","","","","","","","","","","","",""
"","response","","html-keyboard-response","109","978031","0.0-1.0-149.0-0.0","0","0","19196","","488","","","68","16","","","1","16","training","adjacent","AB","1","2","L.jpg","M.jpg","1","1","1","",""
"","feedback","","html-keyboard-response","110","979033","0.0-1.0-150.0-0.0","0","0","19196","","null","","","null","16","","","","","","","","","","","","","","","",""
"","ITI","","html-keyboard-response","111","980037","0.0-1.0-153.0","0","0","19196","","null","","","null","16","","","","","","","","","","","","","","","NaN",""
"","S1","","html-keyboard-response","112","980190","0.0-1.0-155.0","0","0","19196","","null","","","null","17","","","","","","","","","","","","","","","",""
"","ISI","","html-keyboard-response","113","982193","0.0-1.0-156.0","0","0","19196","","null","","","null","17","NaN","","","","","","","","","","","","","","",""
"","S2","","html-keyboard-response","114","982346","0.0-1.0-157.0","0","0","19196","","null","","","null","17","","NaN","","","","","","","","","","","","","",""
"","response","","html-keyboard-response","115","982889","0.0-1.0-158.0-0.0","0","0","19196","","540","","","68","17","","","1","17","training","adjacent","GF","7","6","N.jpg","P.jpg","1","0","0","",""
"","feedback","","html-keyboard-response","116","983893","0.0-1.0-159.0-0.0","0","0","19196","","null","","","null","17","","","","","","","","","","","","","","","",""
"","time_out","","html-keyboard-response","117","985896","0.0-1.0-161.0-0.0","0","0","19196","","null","","","null","17","","","","","","","","","","","","","","","",""
"","ITI","","html-keyboard-response","118","986899","0.0-1.0-162.0","0","0","19196","","null","","","null","17","","","","","","","","","","","","","","","NaN",""
"","S1","","html-keyboard-response","119","987053","0.0-1.0-164.0","0","0","19196","","null","","","null","18","","","","","","","","","","","","","","","",""
"","ISI","","html-keyboard-response","120","989056","0.0-1.0-165.0","0","0","19196","","null","","","null","18","NaN","","","","","","","","","","","","","","",""
"","S2","","html-keyboard-response","121","989221","0.0-1.0-166.0","0","0","19196","","null","","","null","18","","NaN","","","","","","","","","","","","","",""
"","response","","html-keyboard-response","122","989448","0.0-1.0-167.0-0.0","0","0","19196","","225","","","68","18","","","1","18","training","adjacent","CD","3","4","O.jpg","Q.jpg","1","1","1","",""
"","feedback","","html-keyboard-response","123","990452","0.0-1.0-168.0-0.0","0","0","19196","","null","","","null","18","","","","","","","","","","","","","","","",""
"","ITI","","html-keyboard-response","124","991456","0.0-1.0-171.0","0","0","19196","","null","","","null","18","","","","","","","","","","","","","","","NaN",""
"","S1","","html-keyboard-response","125","991609","0.0-1.0-173.0","0","0","19196","","null","","","null","19","","","","","","","","","","","","","","","",""
"","ISI","","html-keyboard-response","126","993613","0.0-1.0-174.0","0","0","19196","","null","","","null","19","NaN","","","","","","","","","","","","","","",""
"","S2","","html-keyboard-response","127","993768","0.0-1.0-175.0","0","0","19196","","null","","","null","19","","NaN","","","","","","","","","","","","","",""
"","response","","html-keyboard-response","128","994201","0.0-1.0-176.0-0.0","0","0","19196","","429","","","75","19","","","1","19","training","adjacent","BC","2","3","M.jpg","O.jpg","0","1","0","",""
"","feedback","","html-keyboard-response","129","995206","0.0-1.0-177.0-0.0","0","0","19196","","null","","","null","19","","","","","","","","","","","","","","","",""
"","time_out","","html-keyboard-response","130","997209","0.0-1.0-179.0-0.0","0","0","19196","","null","","","null","19","","","","","","","","","","","","","","","",""
"","ITI","","html-keyboard-response","131","998211","0.0-1.0-180.0","0","0","19196","","null","","","null","19","","","","","","","","","","","","","","","NaN",""
"","S1","","html-keyboard-response","132","998376","0.0-1.0-182.0","0","0","19196","","null","","","null","20","","","","","","","","","","","","","","","",""
"","ISI","","html-keyboard-response","133","1000380","0.0-1.0-183.0","0","0","19196","","null","","","null","20","NaN","","","","","","","","","","","","","","",""
"","S2","","html-keyboard-response","134","1000533","0.0-1.0-184.0","0","0","19196","","null","","","null","20","","NaN","","","","","","","","","","","","","",""
"","response","","html-keyboard-response","135","1000944","0.0-1.0-185.0-0.0","0","0","19196","","408","","","75","20","","","1","20","training","adjacent","BC","2","3","M.jpg","O.jpg","0","1","0","",""
"","feedback","","html-keyboard-response","136","1001949","0.0-1.0-186.0-0.0","0","0","19196","","null","","","null","20","","","","","","","","","","","","","","","",""
"","time_out","","html-keyboard-response","137","1003952","0.0-1.0-188.0-0.0","0","0","19196","","null","","","null","20","","","","","","","","","","","","","","","",""
"","ITI","","html-keyboard-response","138","1004956","0.0-1.0-189.0","0","0","19196","","null","","","null","20","","","","","","","","","","","","","","","NaN",""
"","S1","","html-keyboard-response","139","1005109","0.0-1.0-191.0","0","0","19196","","null","","","null","21","","","","","","","","","","","","","","","",""
"","ISI","","html-keyboard-response","140","1007112","0.0-1.0-192.0","0","0","19196","","null","","","null","21","NaN","","","","","","","","","","","","","","",""
"","S2","","html-keyboard-response","141","1007265","0.0-1.0-193.0","0","0","19196","","null","","","null","21","","NaN","","","","","","","","","","","","","",""
"","response","","html-keyboard-response","142","1007647","0.0-1.0-194.0-0.0","0","0","19196","","380","","","68","21","","","1","21","training","adjacent","GF","7","6","N.jpg","P.jpg","1","0","0","",""
"","feedback","","html-keyboard-response","143","1008650","0.0-1.0-195.0-0.0","0","0","19196","","null","","","null","21","","","","","","","","","","","","","","","",""
"","time_out","","html-keyboard-response","144","1010652","0.0-1.0-197.0-0.0","0","0","19196","","null","","","null","21","","","","","","","","","","","","","","","",""
"","ITI","","html-keyboard-response","145","1011655","0.0-1.0-198.0","0","0","19196","","null","","","null","21","","","","","","","","","","","","","","","NaN",""
"","S1","","html-keyboard-response","146","1011807","0.0-1.0-200.0","0","0","19196","","null","","","null","22","","","","","","","","","","","","","","","",""
"","ISI","","html-keyboard-response","147","1013815","0.0-1.0-201.0","0","0","19196","","null","","","null","22","NaN","","","","","","","","","","","","","","",""
"","S2","","html-keyboard-response","148","1013970","0.0-1.0-202.0","0","0","19196","","null","","","null","22","","NaN","","","","","","","","","","","","","",""
"","response","","html-keyboard-response","149","1014314","0.0-1.0-203.0-0.0","0","0","19196","","341","","","75","22","","","1","22","training","adjacent","FG","6","7","P.jpg","N.jpg","0","1","0","",""
"","feedback","","html-keyboard-response","150","1015319","0.0-1.0-204.0-0.0","0","0","19196","","null","","","null","22","","","","","","","","","","","","","","","",""
"","time_out","","html-keyboard-response","151","1017322","0.0-1.0-206.0-0.0","0","0","19196","","null","","","null","22","","","","","","","","","","","","","","","",""
"","ITI","","html-keyboard-response","152","1018326","0.0-1.0-207.0","0","0","19196","","null","","","null","22","","","","","","","","","","","","","","","NaN",""
"","S1","","html-keyboard-response","153","1018480","0.0-1.0-209.0","0","0","19196","","null","","","null","23","","","","","","","","","","","","","","","",""
"","ISI","","html-keyboard-response","154","1020484","0.0-1.0-210.0","0","0","19196","","null","","","null","23","NaN","","","","","","","","","","","","","","",""
"","S2","","html-keyboard-response","155","1020637","0.0-1.0-211.0","0","0","19196","","null","","","null","23","","NaN","","","","","","","","","","","","","",""
"","response","","html-keyboard-response","156","1021065","0.0-1.0-212.0-0.0","0","0","19196","","425","","","75","23","","","1","23","training","adjacent","FE","6","5","P.jpg","R.jpg","0","0","1","",""
"","feedback","","html-keyboard-response","157","1022069","0.0-1.0-213.0-0.0","0","0","19196","","null","","","null","23","","","","","","","","","","","","","","","",""
"","ITI","","html-keyboard-response","158","1023073","0.0-1.0-216.0","0","0","19196","","null","","","null","23","","","","","","","","","","","","","","","NaN",""
"","S1","","html-keyboard-response","159","1023226","0.0-1.0-218.0","0","0","19196","","null","","","null","24","","","","","","","","","","","","","","","",""
"","ISI","","html-keyboard-response","160","1025230","0.0-1.0-219.0","0","0","19196","","null","","","null","24","NaN","","","","","","","","","","","","","","",""
"","S2","","html-keyboard-response","161","1025384","0.0-1.0-220.0","0","0","19196","","null","","","null","24","","NaN","","","","","","","","","","","","","",""
"","response","","html-keyboard-response","162","1025848","0.0-1.0-221.0-0.0","0","0","19196","","461","","","75","24","","","1","24","training","adjacent","EF","5","6","R.jpg","P.jpg","0","1","0","",""
"","feedback","","html-keyboard-response","163","1026852","0.0-1.0-222.0-0.0","0","0","19196","","null","","","null","24","","","","","","","","","","","","","","","",""
"","time_out","","html-keyboard-response","164","1028857","0.0-1.0-224.0-0.0","0","0","19196","","null","","","null","24","","","","","","","","","","","","","","","",""
"","ITI","","html-keyboard-response","165","1029860","0.0-1.0-225.0","0","0","19196","","null","","","null","24","","","","","","","","","","","","","","","NaN",""
"","S1","","html-keyboard-response","166","1030014","0.0-1.0-227.0","0","0","19196","","null","","","null","25","","","","","","","","","","","","","","","",""
"","ISI","","html-keyboard-response","167","1032017","0.0-1.0-228.0","0","0","19196","","null","","","null","25","NaN","","","","","","","","","","","","","","",""
"","S2","","html-keyboard-response","168","1032171","0.0-1.0-229.0","0","0","19196","","null","","","null","25","","NaN","","","","","","","","","","","","","",""
"","response","","html-keyboard-response","169","1032458","0.0-1.0-230.0-0.0","0","0","19196","","283","","","75","25","","","1","25","training","adjacent","CD","3","4","O.jpg","Q.jpg","0","1","0","",""
"","feedback","","html-keyboard-response","170","1033462","0.0-1.0-231.0-0.0","0","0","19196","","null","","","null","25","","","","","","","","","","","","","","","",""
"","time_out","","html-keyboard-response","171","1035466","0.0-1.0-233.0-0.0","0","0","19196","","null","","","null","25","","","","","","","","","","","","","","","",""
"","ITI","","html-keyboard-response","172","1036470","0.0-1.0-234.0","0","0","19196","","null","","","null","25","","","","","","","","","","","","","","","NaN",""
"","S1","","html-keyboard-response","173","1036624","0.0-1.0-236.0","0","0","19196","","null","","","null","26","","","","","","","","","","","","","","","",""
"","ISI","","html-keyboard-response","174","1038627","0.0-1.0-237.0","0","0","19196","","null","","","null","26","NaN","","","","","","","","","","","","","","",""
"","S2","","html-keyboard-response","175","1038781","0.0-1.0-238.0","0","0","19196","","null","","","null","26","","NaN","","","","","","","","","","","","","",""
"","response","","html-keyboard-response","176","1039200","0.0-1.0-239.0-0.0","0","0","19196","","416","","","68","26","","","1","26","training","adjacent","DC","4","3","Q.jpg","O.jpg","1","0","0","",""
"","feedback","","html-keyboard-response","177","1040205","0.0-1.0-240.0-0.0","0","0","19196","","null","","","null","26","","","","","","","","","","","","","","","",""
"","time_out","","html-keyboard-response","178","1042209","0.0-1.0-242.0-0.0","0","0","19196","","null","","","null","26","","","","","","","","","","","","","","","",""
"","ITI","","html-keyboard-response","179","1043213","0.0-1.0-243.0","0","0","19196","","null","","","null","26","","","","","","","","","","","","","","","NaN",""
"","S1","","html-keyboard-response","180","1043366","0.0-1.0-245.0","0","0","19196","","null","","","null","27","","","","","","","","","","","","","","","",""
"","ISI","","html-keyboard-response","181","1045381","0.0-1.0-246.0","0","0","19196","","null","","","null","27","NaN","","","","","","","","","","","","","","",""
"","S2","","html-keyboard-response","182","1045535","0.0-1.0-247.0","0","0","19196","","null","","","null","27","","NaN","","","","","","","","","","","","","",""
"","response","","html-keyboard-response","183","1045983","0.0-1.0-248.0-0.0","0","0","19196","","445","","","75","27","","","1","27","training","adjacent","EF","5","6","R.jpg","P.jpg","0","1","0","",""
"","feedback","","html-keyboard-response","184","1046987","0.0-1.0-249.0-0.0","0","0","19196","","null","","","null","27","","","","","","","","","","","","","","","",""
"","time_out","","html-keyboard-response","185","1048989","0.0-1.0-251.0-0.0","0","0","19196","","null","","","null","27","","","","","","","","","","","","","","","",""
"","ITI","","html-keyboard-response","186","1049993","0.0-1.0-252.0","0","0","19196","","23","","","68","27","","","","","","","","","","","","","","","d",""
"","S1","","html-keyboard-response","187","1050147","0.0-1.0-254.0","0","0","19196","","null","","","null","28","","","","","","","","","","","","","","","",""
"","ISI","","html-keyboard-response","188","1052150","0.0-1.0-255.0","0","0","19196","","null","","","null","28","NaN","","","","","","","","","","","","","","",""
"","S2","","html-keyboard-response","189","1052304","0.0-1.0-256.0","0","0","19196","","null","","","null","28","","NaN","","","","","","","","","","","","","",""
"","response","","html-keyboard-response","190","1052753","0.0-1.0-257.0-0.0","0","0","19196","","446","","","68","28","","","1","28","training","adjacent","BA","2","1","M.jpg","L.jpg","1","0","0","",""
"","feedback","","html-keyboard-response","191","1053757","0.0-1.0-258.0-0.0","0","0","19196","","null","","","null","28","","","","","","","","","","","","","","","",""
"","time_out","","html-keyboard-response","192","1055775","0.0-1.0-260.0-0.0","0","0","19196","","null","","","null","28","","","","","","","","","","","","","","","",""
"","ITI","","html-keyboard-response","193","1056779","0.0-1.0-261.0","0","0","19196","","null","","","null","28","","","","","","","","","","","","","","","NaN",""
"","S1","","html-keyboard-response","194","1056933","0.0-1.0-263.0","0","0","19196","","null","","","null","29","","","","","","","","","","","","","","","",""
"","ISI","","html-keyboard-response","195","1058936","0.0-1.0-264.0","0","0","19196","","null","","","null","29","NaN","","","","","","","","","","","","","","",""
"","S2","","html-keyboard-response","196","1059091","0.0-1.0-265.0","0","0","19196","","null","","","null","29","","NaN","","","","","","","","","","","","","",""
"","response","","html-keyboard-response","197","1059551","0.0-1.0-266.0-0.0","0","0","19196","","457","","","68","29","","","1","29","training","adjacent","DE","4","5","Q.jpg","R.jpg","1","1","1","",""
"","feedback","","html-keyboard-response","198","1060554","0.0-1.0-267.0-0.0","0","0","19196","","null","","","null","29","","","","","","","","","","","","","","","",""
"","ITI","","html-keyboard-response","199","1061570","0.0-1.0-270.0","0","0","19196","","null","","","null","29","","","","","","","","","","","","","","","NaN",""
"","S1","","html-keyboard-response","200","1061724","0.0-1.0-272.0","0","0","19196","","null","","","null","30","","","","","","","","","","","","","","","",""
"","ISI","","html-keyboard-response","201","1063728","0.0-1.0-273.0","0","0","19196","","null","","","null","30","NaN","","","","","","","","","","","","","","",""
"","S2","","html-keyboard-response","202","1063881","0.0-1.0-274.0","0","0","19196","","null","","","null","30","","NaN","","","","","","","","","","","","","",""
"","response","","html-keyboard-response","203","1064345","0.0-1.0-275.0-0.0","0","0","19196","","460","","","68","30","","","1","30","training","adjacent","BA","2","1","M.jpg","L.jpg","1","0","0","",""
"","feedback","","html-keyboard-response","204","1065348","0.0-1.0-276.0-0.0","0","0","19196","","null","","","null","30","","","","","","","","","","","","","","","",""
"","time_out","","html-keyboard-response","205","1067351","0.0-1.0-278.0-0.0","0","0","19196","","null","","","null","30","","","","","","","","","","","","","","","",""
"","ITI","","html-keyboard-response","206","1068355","0.0-1.0-279.0","0","0","19196","","null","","","null","30","","","","","","","","","","","","","","","NaN",""
"","S1","","html-keyboard-response","207","1068507","0.0-1.0-281.0","0","0","19196","","null","","","null","31","","","","","","","","","","","","","","","",""
"","ISI","","html-keyboard-response","208","1070510","0.0-1.0-282.0","0","0","19196","","null","","","null","31","NaN","","","","","","","","","","","","","","",""
"","S2","","html-keyboard-response","209","1070664","0.0-1.0-283.0","0","0","19196","","null","","","null","31","","NaN","","","","","","","","","","","","","",""
"","response","","html-keyboard-response","210","1070920","0.0-1.0-284.0-0.0","0","0","19196","","253","","","68","31","","","1","31","training","adjacent","EF","5","6","R.jpg","P.jpg","1","1","1","",""
"","feedback","","html-keyboard-response","211","1071925","0.0-1.0-285.0-0.0","0","0","19196","","null","","","null","31","","","","","","","","","","","","","","","",""
"","ITI","","html-keyboard-response","212","1072930","0.0-1.0-288.0","0","0","19196","","null","","","null","31","","","","","","","","","","","","","","","NaN",""
"","S1","","html-keyboard-response","213","1073083","0.0-1.0-290.0","0","0","19196","","null","","","null","32","","","","","","","","","","","","","","","",""
"","ISI","","html-keyboard-response","214","1075087","0.0-1.0-291.0","0","0","19196","","null","","","null","32","NaN","","","","","","","","","","","","","","",""
"","S2","","html-keyboard-response","215","1075246","0.0-1.0-292.0","0","0","19196","","null","","","null","32","","NaN","","","","","","","","","","","","","",""
"","response","","html-keyboard-response","216","1075745","0.0-1.0-293.0-0.0","0","0","19196","","496","","","68","32","","","1","32","training","adjacent","DE","4","5","Q.jpg","R.jpg","1","1","1","",""
"","feedback","","html-keyboard-response","217","1076749","0.0-1.0-294.0-0.0","0","0","19196","","null","","","null","32","","","","","","","","","","","","","","","",""
"","ITI","","html-keyboard-response","218","1077753","0.0-1.0-297.0","0","0","19196","","null","","","null","32","","","","","","","","","","","","","","","NaN",""
"","S1","","html-keyboard-response","219","1077907","0.0-1.0-299.0","0","0","19196","","null","","","null","33","","","","","","","","","","","","","","","",""
"","ISI","","html-keyboard-response","220","1079911","0.0-1.0-300.0","0","0","19196","","null","","","null","33","NaN","","","","","","","","","","","","","","",""
"","S2","","html-keyboard-response","221","1080065","0.0-1.0-301.0","0","0","19196","","null","","","null","33","","NaN","","","","","","","","","","","","","",""
"","response","","html-keyboard-response","222","1080552","0.0-1.0-302.0-0.0","0","0","19196","","484","","","75","33","","","1","33","training","adjacent","CD","3","4","O.jpg","Q.jpg","0","1","0","",""
"","feedback","","html-keyboard-response","223","1081556","0.0-1.0-303.0-0.0","0","0","19196","","null","","","null","33","","","","","","","","","","","","","","","",""
"","time_out","","html-keyboard-response","224","1083559","0.0-1.0-305.0-0.0","0","0","19196","","null","","","null","33","","","","","","","","","","","","","","","",""
"","ITI","","html-keyboard-response","225","1084562","0.0-1.0-306.0","0","0","19196","","null","","","null","33","","","","","","","","","","","","","","","NaN",""
"","S1","","html-keyboard-response","226","1084715","0.0-1.0-308.0","0","0","19196","","null","","","null","34","","","","","","","","","","","","","","","",""
"","ISI","","html-keyboard-response","227","1086717","0.0-1.0-309.0","0","0","19196","","null","","","null","34","NaN","","","","","","","","","","","","","","",""
"","S2","","html-keyboard-response","228","1086876","0.0-1.0-310.0","0","0","19196","","null","","","null","34","","NaN","","","","","","","","","","","","","",""
"","response","","html-keyboard-response","229","1087041","0.0-1.0-311.0-0.0","0","0","19196","","162","","","75","34","","","1","34","training","adjacent","BC","2","3","M.jpg","O.jpg","0","1","0","",""
"","feedback","","html-keyboard-response","230","1088047","0.0-1.0-312.0-0.0","0","0","19196","","null","","","null","34","","","","","","","","","","","","","","","",""
"","time_out","","html-keyboard-response","231","1090051","0.0-1.0-314.0-0.0","0","0","19196","","null","","","null","34","","","","","","","","","","","","","","","",""
"","ITI","","html-keyboard-response","232","1091055","0.0-1.0-315.0","0","0","19196","","null","","","null","34","","","","","","","","","","","","","","","NaN",""
"","S1","","html-keyboard-response","233","1091209","0.0-1.0-317.0","0","0","19196","","null","","","null","35","","","","","","","","","","","","","","","",""
"","ISI","","html-keyboard-response","234","1093212","0.0-1.0-318.0","0","0","19196","","null","","","null","35","NaN","","","","","","","","","","","","","","",""
"","S2","","html-keyboard-response","235","1093367","0.0-1.0-319.0","0","0","19196","","null","","","null","35","","NaN","","","","","","","","","","","","","",""
"","response","","html-keyboard-response","236","1093744","0.0-1.0-320.0-0.0","0","0","19196","","374","","","75","35","","","1","35","training","adjacent","FG","6","7","P.jpg","N.jpg","0","1","0","",""
"","feedback","","html-keyboard-response","237","1094749","0.0-1.0-321.0-0.0","0","0","19196","","null","","","null","35","","","","","","","","","","","","","","","",""
"","time_out","","html-keyboard-response","238","1096752","0.0-1.0-323.0-0.0","0","0","19196","","null","","","null","35","","","","","","","","","","","","","","","",""
"","ITI","","html-keyboard-response","239","1097754","0.0-1.0-324.0","0","0","19196","","null","","","null","35","","","","","","","","","","","","","","","NaN",""
"","S1","","html-keyboard-response","240","1097907","0.0-1.0-326.0","0","0","19196","","null","","","null","36","","","","","","","","","","","","","","","",""
"","ISI","","html-keyboard-response","241","1099909","0.0-1.0-327.0","0","0","19196","","null","","","null","36","NaN","","","","","","","","","","","","","","",""
"","S2","","html-keyboard-response","242","1100062","0.0-1.0-328.0","0","0","19196","","null","","","null","36","","NaN","","","","","","","","","","","","","",""
"","response","","html-keyboard-response","243","1100343","0.0-1.0-329.0-0.0","0","0","19196","","279","","","75","36","","","1","36","training","adjacent","ED","5","4","R.jpg","Q.jpg","0","0","1","",""
"","feedback","","html-keyboard-response","244","1101347","0.0-1.0-330.0-0.0","0","0","19196","","null","","","null","36","","","","","","","","","","","","","","","",""
"","ITI","","html-keyboard-response","245","1102351","0.0-1.0-333.0","0","0","19196","","null","","","null","36","","","","","","","","","","","","","","","NaN",""
"","S1","","html-keyboard-response","246","1102505","0.0-1.0-335.0","0","0","19196","","null","","","null","37","","","","","","","","","","","","","","","",""
"","ISI","","html-keyboard-response","247","1104519","0.0-1.0-336.0","0","0","19196","","null","","","null","37","NaN","","","","","","","","","","","","","","",""
"","S2","","html-keyboard-response","248","1104672","0.0-1.0-337.0","0","0","19196","","null","","","null","37","","NaN","","","","","","","","","","","","","",""
"","response","","html-keyboard-response","249","1105120","0.0-1.0-338.0-0.0","0","0","19196","","445","","","75","37","","","1","37","training","adjacent","GF","7","6","N.jpg","P.jpg","0","0","1","",""
"","feedback","","html-keyboard-response","250","1106124","0.0-1.0-339.0-0.0","0","0","19196","","null","","","null","37","","","","","","","","","","","","","","","",""
"","ITI","","html-keyboard-response","251","1107128","0.0-1.0-342.0","0","0","19196","","null","","","null","37","","","","","","","","","","","","","","","NaN",""
"","S1","","html-keyboard-response","252","1107283","0.0-1.0-344.0","0","0","19196","","null","","","null","38","","","","","","","","","","","","","","","",""
"","ISI","","html-keyboard-response","253","1109287","0.0-1.0-345.0","0","0","19196","","null","","","null","38","NaN","","","","","","","","","","","","","","",""
"","S2","","html-keyboard-response","254","1109448","0.0-1.0-346.0","0","0","19196","","null","","","null","38","","NaN","","","","","","","","","","","","","",""
"","response","","html-keyboard-response","255","1109904","0.0-1.0-347.0-0.0","0","0","19196","","453","","","75","38","","","1","38","training","adjacent","CB","3","2","O.jpg","M.jpg","0","0","1","",""
"","feedback","","html-keyboard-response","256","1110908","0.0-1.0-348.0-0.0","0","0","19196","","null","","","null","38","","","","","","","","","","","","","","","",""
"","ITI","","html-keyboard-response","257","1111913","0.0-1.0-351.0","0","0","19196","","null","","","null","38","","","","","","","","","","","","","","","NaN",""
"","S1","","html-keyboard-response","258","1112070","0.0-1.0-353.0","0","0","19196","","null","","","null","39","","","","","","","","","","","","","","","",""
"","ISI","","html-keyboard-response","259","1114074","0.0-1.0-354.0","0","0","19196","","null","","","null","39","NaN","","","","","","","","","","","","","","",""
"","S2","","html-keyboard-response","260","1114228","0.0-1.0-355.0","0","0","19196","","null","","","null","39","","NaN","","","","","","","","","","","","","",""
"","response","","html-keyboard-response","261","1114624","0.0-1.0-356.0-0.0","0","0","19196","","393","","","68","39","","","1","39","training","adjacent","FE","6","5","P.jpg","R.jpg","1","0","0","",""
"","feedback","","html-keyboard-response","262","1115628","0.0-1.0-357.0-0.0","0","0","19196","","null","","","null","39","","","","","","","","","","","","","","","",""
"","time_out","","html-keyboard-response","263","1117633","0.0-1.0-359.0-0.0","0","0","19196","","null","","","null","39","","","","","","","","","","","","","","","",""
"","ITI","","html-keyboard-response","264","1118636","0.0-1.0-360.0","0","0","19196","","null","","","null","39","","","","","","","","","","","","","","","NaN",""
"","S1","","html-keyboard-response","265","1118790","0.0-1.0-362.0","0","0","19196","","null","","","null","40","","","","","","","","","","","","","","","",""
"","ISI","","html-keyboard-response","266","1120794","0.0-1.0-363.0","0","0","19196","","null","","","null","40","NaN","","","","","","","","","","","","","","",""
"","S2","","html-keyboard-response","267","1120948","0.0-1.0-364.0","0","0","19196","","null","","","null","40","","NaN","","","","","","","","","","","","","",""
"","response","","html-keyboard-response","268","1121304","0.0-1.0-365.0-0.0","0","0","19196","","353","","","68","40","","","1","40","training","adjacent","DE","4","5","Q.jpg","R.jpg","1","1","1","",""
"","feedback","","html-keyboard-response","269","1122309","0.0-1.0-366.0-0.0","0","0","19196","","null","","","null","40","","","","","","","","","","","","","","","",""
"","ITI","","html-keyboard-response","270","1123314","0.0-1.0-369.0","0","0","19196","","null","","","null","40","","","","","","","","","","","","","","","NaN",""
"","S1","","html-keyboard-response","271","1123469","0.0-1.0-371.0","0","0","19196","","null","","","null","41","","","","","","","","","","","","","","","",""
"","ISI","","html-keyboard-response","272","1125474","0.0-1.0-372.0","0","0","19196","","null","","","null","41","NaN","","","","","","","","","","","","","","",""
"","S2","","html-keyboard-response","273","1125628","0.0-1.0-373.0","0","0","19196","","null","","","null","41","","NaN","","","","","","","","","","","","","",""
"","response","","html-keyboard-response","274","1126097","0.0-1.0-374.0-0.0","0","0","19196","","466","","","68","41","","","1","41","training","adjacent","CB","3","2","O.jpg","M.jpg","1","0","0","",""
"","feedback","","html-keyboard-response","275","1127100","0.0-1.0-375.0-0.0","0","0","19196","","null","","","null","41","","","","","","","","","","","","","","","",""
"","time_out","","html-keyboard-response","276","1129103","0.0-1.0-377.0-0.0","0","0","19196","","null","","","null","41","","","","","","","","","","","","","","","",""
"","ITI","","html-keyboard-response","277","1130106","0.0-1.0-378.0","0","0","19196","","null","","","null","41","","","","","","","","","","","","","","","NaN",""
"","S1","","html-keyboard-response","278","1130266","0.0-1.0-380.0","0","0","19196","","null","","","null","42","","","","","","","","","","","","","","","",""
"","ISI","","html-keyboard-response","279","1132269","0.0-1.0-381.0","0","0","19196","","null","","","null","42","NaN","","","","","","","","","","","","","","",""
"","S2","","html-keyboard-response","280","1132425","0.0-1.0-382.0","0","0","19196","","null","","","null","42","","NaN","","","","","","","","","","","","","",""
"","response","","html-keyboard-response","281","1132848","0.0-1.0-383.0-0.0","0","0","19196","","420","","","75","42","","","1","42","training","adjacent","DC","4","3","Q.jpg","O.jpg","0","0","1","",""
"","feedback","","html-keyboard-response","282","1133852","0.0-1.0-384.0-0.0","0","0","19196","","null","","","null","42","","","","","","","","","","","","","","","",""
"","ITI","","html-keyboard-response","283","1134856","0.0-1.0-387.0","0","0","19196","","null","","","null","42","","","","","","","","","","","","","","","NaN",""
"","S1","","html-keyboard-response","284","1135010","0.0-1.0-389.0","0","0","19196","","null","","","null","43","","","","","","","","","","","","","","","",""
"","ISI","","html-keyboard-response","285","1137013","0.0-1.0-390.0","0","0","19196","","null","","","null","43","NaN","","","","","","","","","","","","","","",""
"","S2","","html-keyboard-response","286","1137167","0.0-1.0-391.0","0","0","19196","","null","","","null","43","","NaN","","","","","","","","","","","","","",""
"","response","","html-keyboard-response","287","1137543","0.0-1.0-392.0-0.0","0","0","19196","","373","","","68","43","","","1","43","training","adjacent","FG","6","7","P.jpg","N.jpg","1","1","1","",""
"","feedback","","html-keyboard-response","288","1138546","0.0-1.0-393.0-0.0","0","0","19196","","null","","","null","43","","","","","","","","","","","","","","","",""
"","ITI","","html-keyboard-response","289","1139549","0.0-1.0-396.0","0","0","19196","","null","","","null","43","","","","","","","","","","","","","","","NaN",""
"","S1","","html-keyboard-response","290","1139704","0.0-1.0-398.0","0","0","19196","","null","","","null","44","","","","","","","","","","","","","","","",""
"","ISI","","html-keyboard-response","291","1141707","0.0-1.0-399.0","0","0","19196","","null","","","null","44","NaN","","","","","","","","","","","","","","",""
"","S2","","html-keyboard-response","292","1141860","0.0-1.0-400.0","0","0","19196","","null","","","null","44","","NaN","","","","","","","","","","","","","",""
"","response","","html-keyboard-response","293","1142304","0.0-1.0-401.0-0.0","0","0","19196","","442","","","68","44","","","1","44","training","adjacent","DC","4","3","Q.jpg","O.jpg","1","0","0","",""
"","feedback","","html-keyboard-response","294","1143307","0.0-1.0-402.0-0.0","0","0","19196","","null","","","null","44","","","","","","","","","","","","","","","",""
"","time_out","","html-keyboard-response","295","1145311","0.0-1.0-404.0-0.0","0","0","19196","","null","","","null","44","","","","","","","","","","","","","","","",""
"","ITI","","html-keyboard-response","296","1146315","0.0-1.0-405.0","0","0","19196","","null","","","null","44","","","","","","","","","","","","","","","NaN",""
"","S1","","html-keyboard-response","297","1146468","0.0-1.0-407.0","0","0","19196","","null","","","null","45","","","","","","","","","","","","","","","",""
"","ISI","","html-keyboard-response","298","1148472","0.0-1.0-408.0","0","0","19196","","null","","","null","45","NaN","","","","","","","","","","","","","","",""
"","S2","","html-keyboard-response","299","1148625","0.0-1.0-409.0","0","0","19196","","null","","","null","45","","NaN","","","","","","","","","","","","","",""
"","response","","html-keyboard-response","300","1148992","0.0-1.0-410.0-0.0","0","0","19196","","364","","","68","45","","","1","45","training","adjacent","AB","1","2","L.jpg","M.jpg","1","1","1","",""
"","feedback","","html-keyboard-response","301","1149996","0.0-1.0-411.0-0.0","0","0","19196","","null","","","null","45","","","","","","","","","","","","","","","",""
"","ITI","","html-keyboard-response","302","1150999","0.0-1.0-414.0","0","0","19196","","null","","","null","45","","","","","","","","","","","","","","","NaN",""
"","S1","","html-keyboard-response","303","1151153","0.0-1.0-416.0","0","0","19196","","null","","","null","46","","","","","","","","","","","","","","","",""
"","ISI","","html-keyboard-response","304","1153156","0.0-1.0-417.0","0","0","19196","","null","","","null","46","NaN","","","","","","","","","","","","","","",""
"","S2","","html-keyboard-response","305","1153309","0.0-1.0-418.0","0","0","19196","","null","","","null","46","","NaN","","","","","","","","","","","","","",""
"","response","","html-keyboard-response","306","1153681","0.0-1.0-419.0-0.0","0","0","19196","","368","","","68","46","","","1","46","training","adjacent","DC","4","3","Q.jpg","O.jpg","1","0","0","",""
"","feedback","","html-keyboard-response","307","1154686","0.0-1.0-420.0-0.0","0","0","19196","","null","","","null","46","","","","","","","","","","","","","","","",""
"","time_out","","html-keyboard-response","308","1156690","0.0-1.0-422.0-0.0","0","0","19196","","null","","","null","46","","","","","","","","","","","","","","","",""
"","ITI","","html-keyboard-response","309","1157693","0.0-1.0-423.0","0","0","19196","","null","","","null","46","","","","","","","","","","","","","","","NaN",""
"","S1","","html-keyboard-response","310","1157845","0.0-1.0-425.0","0","0","19196","","null","","","null","47","","","","","","","","","","","","","","","",""
"","ISI","","html-keyboard-response","311","1159848","0.0-1.0-426.0","0","0","19196","","null","","","null","47","NaN","","","","","","","","","","","","","","",""
"","S2","","html-keyboard-response","312","1160000","0.0-1.0-427.0","0","0","19196","","null","","","null","47","","NaN","","","","","","","","","","","","","",""
"","response","","html-keyboard-response","313","1160455","0.0-1.0-428.0-0.0","0","0","19196","","453","","","75","47","","","1","47","training","adjacent","FE","6","5","P.jpg","R.jpg","0","0","1","",""
"","feedback","","html-keyboard-response","314","1161457","0.0-1.0-429.0-0.0","0","0","19196","","null","","","null","47","","","","","","","","","","","","","","","",""
"","ITI","","html-keyboard-response","315","1162462","0.0-1.0-432.0","0","0","19196","","null","","","null","47","","","","","","","","","","","","","","","NaN",""
"","block_over","","html-keyboard-response","316","1244698","0.0-1.0-433.0-0.0","0","0","19196","","82230","","","32","47","","","","","","","","","","","","","","","",""
"","S1","","html-keyboard-response","317","1244852","0.0-1.0-434.0","0","0","19196","","null","","","null","48","","","","","","","","","","","","","","","",""
"","ISI","","html-keyboard-response","318","1246855","0.0-1.0-435.0","0","0","19196","","null","","","null","48","NaN","","","","","","","","","","","","","","",""
"","S2","","html-keyboard-response","319","1247009","0.0-1.0-436.0","0","0","19196","","null","","","null","48","","NaN","","","","","","","","","","","","","",""
"","response","","html-keyboard-response","320","1247360","0.0-1.0-437.0-0.0","0","0","19196","","349","","","68","48","","","2","48","training","adjacent","BA","2","1","M.jpg","L.jpg","1","0","0","",""
"","feedback","","html-keyboard-response","321","1248364","0.0-1.0-438.0-0.0","0","0","19196","","null","","","null","48","","","","","","","","","","","","","","","",""
"","time_out","","html-keyboard-response","322","1250367","0.0-1.0-440.0-0.0","0","0","19196","","null","","","null","48","","","","","","","","","","","","","","","",""
"","ITI","","html-keyboard-response","323","1251370","0.0-1.0-441.0","0","0","19196","","null","","","null","48","","","","","","","","","","","","","","","NaN",""
"","S1","","html-keyboard-response","324","1251523","0.0-1.0-443.0","0","0","19196","","null","","","null","49","","","","","","","","","","","","","","","",""
"","ISI","","html-keyboard-response","325","1253527","0.0-1.0-444.0","0","0","19196","","null","","","null","49","NaN","","","","","","","","","","","","","","",""
"","S2","","html-keyboard-response","326","1253680","0.0-1.0-445.0","0","0","19196","","null","","","null","49","","NaN","","","","","","","","","","","","","",""
"","response","","html-keyboard-response","327","1254104","0.0-1.0-446.0-0.0","0","0","19196","","422","","","68","49","","","2","49","training","adjacent","EF","5","6","R.jpg","P.jpg","1","1","1","",""
"","feedback","","html-keyboard-response","328","1255108","0.0-1.0-447.0-0.0","0","0","19196","","null","","","null","49","","","","","","","","","","","","","","","",""
"","ITI","","html-keyboard-response","329","1256112","0.0-1.0-450.0","0","0","19196","","null","","","null","49","","","","","","","","","","","","","","","NaN",""
"","S1","","html-keyboard-response","330","1256266","0.0-1.0-452.0","0","0","19196","","null","","","null","50","","","","","","","","","","","","","","","",""
"","ISI","","html-keyboard-response","331","1258270","0.0-1.0-453.0","0","0","19196","","null","","","null","50","NaN","","","","","","","","","","","","","","",""
"","S2","","html-keyboard-response","332","1258424","0.0-1.0-454.0","0","0","19196","","null","","","null","50","","NaN","","","","","","","","","","","","","",""
"","response","","html-keyboard-response","333","1258985","0.0-1.0-455.0-0.0","0","0","19196","","558","","","68","50","","","2","50","training","adjacent","FE","6","5","P.jpg","R.jpg","1","0","0","",""
"","feedback","","html-keyboard-response","334","1259999","0.0-1.0-456.0-0.0","0","0","19196","","null","","","null","50","","","","","","","","","","","","","","","",""
"","time_out","","html-keyboard-response","335","1262002","0.0-1.0-458.0-0.0","0","0","19196","","null","","","null","50","","","","","","","","","","","","","","","",""
"","ITI","","html-keyboard-response","336","1263005","0.0-1.0-459.0","0","0","19196","","null","","","null","50","","","","","","","","","","","","","","","NaN",""
"","S1","","html-keyboard-response","337","1263158","0.0-1.0-461.0","0","0","19196","","null","","","null","51","","","","","","","","","","","","","","","",""
"","ISI","","html-keyboard-response","338","1265163","0.0-1.0-462.0","0","0","19196","","null","","","null","51","NaN","","","","","","","","","","","","","","",""
"","S2","","html-keyboard-response","339","1265316","0.0-1.0-463.0","0","0","19196","","null","","","null","51","","NaN","","","","","","","","","","","","","",""
"","response","","html-keyboard-response","340","1265551","0.0-1.0-464.0-0.0","0","0","19196","","233","","","68","51","","","2","51","training","adjacent","BC","2","3","M.jpg","O.jpg","1","1","1","",""
"","feedback","","html-keyboard-response","341","1266554","0.0-1.0-465.0-0.0","0","0","19196","","null","","","null","51","","","","","","","","","","","","","","","",""
"","ITI","","html-keyboard-response","342","1267569","0.0-1.0-468.0","0","0","19196","","null","","","null","51","","","","","","","","","","","","","","","NaN",""
"","S1","","html-keyboard-response","343","1267723","0.0-1.0-470.0","0","0","19196","","null","","","null","52","","","","","","","","","","","","","","","",""
"","ISI","","html-keyboard-response","344","1269727","0.0-1.0-471.0","0","0","19196","","null","","","null","52","NaN","","","","","","","","","","","","","","",""
"","S2","","html-keyboard-response","345","1269882","0.0-1.0-472.0","0","0","19196","","null","","","null","52","","NaN","","","","","","","","","","","","","",""
"","response","","html-keyboard-response","346","1270289","0.0-1.0-473.0-0.0","0","0","19196","","404","","","75","52","","","2","52","training","adjacent","CB","3","2","O.jpg","M.jpg","0","0","1","",""
"","feedback","","html-keyboard-response","347","1271294","0.0-1.0-474.0-0.0","0","0","19196","","null","","","null","52","","","","","","","","","","","","","","","",""
"","ITI","","html-keyboard-response","348","1272309","0.0-1.0-477.0","0","0","19196","","null","","","null","52","","","","","","","","","","","","","","","NaN",""
"","S1","","html-keyboard-response","349","1272464","0.0-1.0-479.0","0","0","19196","","null","","","null","53","","","","","","","","","","","","","","","",""
"","ISI","","html-keyboard-response","350","1274466","0.0-1.0-480.0","0","0","19196","","null","","","null","53","NaN","","","","","","","","","","","","","","",""
"","S2","","html-keyboard-response","351","1274619","0.0-1.0-481.0","0","0","19196","","null","","","null","53","","NaN","","","","","","","","","","","","","",""
"","response","","html-keyboard-response","352","1275015","0.0-1.0-482.0-0.0","0","0","19196","","394","","","68","53","","","2","53","training","adjacent","DC","4","3","Q.jpg","O.jpg","1","0","0","",""
"","feedback","","html-keyboard-response","353","1276019","0.0-1.0-483.0-0.0","0","0","19196","","null","","","null","53","","","","","","","","","","","","","","","",""
"","time_out","","html-keyboard-response","354","1278022","0.0-1.0-485.0-0.0","0","0","19196","","null","","","null","53","","","","","","","","","","","","","","","",""
"","ITI","","html-keyboard-response","355","1279024","0.0-1.0-486.0","0","0","19196","","null","","","null","53","","","","","","","","","","","","","","","NaN",""
"","S1","","html-keyboard-response","356","1279178","0.0-1.0-488.0","0","0","19196","","null","","","null","54","","","","","","","","","","","","","","","",""
"","ISI","","html-keyboard-response","357","1281180","0.0-1.0-489.0","0","0","19196","","null","","","null","54","NaN","","","","","","","","","","","","","","",""
"","S2","","html-keyboard-response","358","1281334","0.0-1.0-490.0","0","0","19196","","null","","","null","54","","NaN","","","","","","","","","","","","","",""
"","response","","html-keyboard-response","359","1281762","0.0-1.0-491.0-0.0","0","0","19196","","425","","","68","54","","","2","54","training","adjacent","CB","3","2","O.jpg","M.jpg","1","0","0","",""
"","feedback","","html-keyboard-response","360","1282770","0.0-1.0-492.0-0.0","0","0","19196","","null","","","null","54","","","","","","","","","","","","","","","",""
"","time_out","","html-keyboard-response","361","1284774","0.0-1.0-494.0-0.0","0","0","19196","","null","","","null","54","","","","","","","","","","","","","","","",""
"","ITI","","html-keyboard-response","362","1285777","0.0-1.0-495.0","0","0","19196","","null","","","null","54","","","","","","","","","","","","","","","NaN",""
"","S1","","html-keyboard-response","363","1285931","0.0-1.0-497.0","0","0","19196","","null","","","null","55","","","","","","","","","","","","","","","",""
"","ISI","","html-keyboard-response","364","1287935","0.0-1.0-498.0","0","0","19196","","null","","","null","55","NaN","","","","","","","","","","","","","","",""
"","S2","","html-keyboard-response","365","1288089","0.0-1.0-499.0","0","0","19196","","null","","","null","55","","NaN","","","","","","","","","","","","","",""
"","response","","html-keyboard-response","366","1288400","0.0-1.0-500.0-0.0","0","0","19196","","309","","","75","55","","","2","55","training","adjacent","GF","7","6","N.jpg","P.jpg","0","0","1","",""
"","feedback","","html-keyboard-response","367","1289406","0.0-1.0-501.0-0.0","0","0","19196","","null","","","null","55","","","","","","","","","","","","","","","",""
"","ITI","","html-keyboard-response","368","1290410","0.0-1.0-504.0","0","0","19196","","null","","","null","55","","","","","","","","","","","","","","","NaN",""
"","S1","","html-keyboard-response","369","1290565","0.0-1.0-506.0","0","0","19196","","null","","","null","56","","","","","","","","","","","","","","","",""
"","ISI","","html-keyboard-response","370","1292568","0.0-1.0-507.0","0","0","19196","","null","","","null","56","NaN","","","","","","","","","","","","","","",""
"","S2","","html-keyboard-response","371","1292723","0.0-1.0-508.0","0","0","19196","","null","","","null","56","","NaN","","","","","","","","","","","","","",""
"","response","","html-keyboard-response","372","1293107","0.0-1.0-509.0-0.0","0","0","19196","","382","","","68","56","","","2","56","training","adjacent","BC","2","3","M.jpg","O.jpg","1","1","1","",""
"","feedback","","html-keyboard-response","373","1294124","0.0-1.0-510.0-0.0","0","0","19196","","null","","","null","56","","","","","","","","","","","","","","","",""
"","ITI","","html-keyboard-response","374","1295129","0.0-1.0-513.0","0","0","19196","","null","","","null","56","","","","","","","","","","","","","","","NaN",""
"","S1","","html-keyboard-response","375","1295283","0.0-1.0-515.0","0","0","19196","","null","","","null","57","","","","","","","","","","","","","","","",""
"","ISI","","html-keyboard-response","376","1297287","0.0-1.0-516.0","0","0","19196","","null","","","null","57","NaN","","","","","","","","","","","","","","",""
"","S2","","html-keyboard-response","377","1297441","0.0-1.0-517.0","0","0","19196","","null","","","null","57","","NaN","","","","","","","","","","","","","",""
"","response","","html-keyboard-response","378","1297833","0.0-1.0-518.0-0.0","0","0","19196","","389","","","68","57","","","2","57","training","adjacent","BC","2","3","M.jpg","O.jpg","1","1","1","",""
"","feedback","","html-keyboard-response","379","1298847","0.0-1.0-519.0-0.0","0","0","19196","","null","","","null","57","","","","","","","","","","","","","","","",""
"","ITI","","html-keyboard-response","380","1299862","0.0-1.0-522.0","0","0","19196","","null","","","null","57","","","","","","","","","","","","","","","NaN",""
"","S1","","html-keyboard-response","381","1300015","0.0-1.0-524.0","0","0","19196","","null","","","null","58","","","","","","","","","","","","","","","",""
"","ISI","","html-keyboard-response","382","1302018","0.0-1.0-525.0","0","0","19196","","null","","","null","58","NaN","","","","","","","","","","","","","","",""
"","S2","","html-keyboard-response","383","1302171","0.0-1.0-526.0","0","0","19196","","null","","","null","58","","NaN","","","","","","","","","","","","","",""
"","response","","html-keyboard-response","384","1302578","0.0-1.0-527.0-0.0","0","0","19196","","404","","","68","58","","","2","58","training","adjacent","FG","6","7","P.jpg","N.jpg","1","1","1","",""
"","feedback","","html-keyboard-response","385","1303581","0.0-1.0-528.0-0.0","0","0","19196","","null","","","null","58","","","","","","","","","","","","","","","",""
"","ITI","","html-keyboard-response","386","1304584","0.0-1.0-531.0","0","0","19196","","null","","","null","58","","","","","","","","","","","","","","","NaN",""
"","S1","","html-keyboard-response","387","1304738","0.0-1.0-533.0","0","0","19196","","null","","","null","59","","","","","","","","","","","","","","","",""
"","ISI","","html-keyboard-response","388","1306740","0.0-1.0-534.0","0","0","19196","","null","","","null","59","NaN","","","","","","","","","","","","","","",""
"","S2","","html-keyboard-response","389","1306893","0.0-1.0-535.0","0","0","19196","","null","","","null","59","","NaN","","","","","","","","","","","","","",""
"","response","","html-keyboard-response","390","1307256","0.0-1.0-536.0-0.0","0","0","19196","","360","","","75","59","","","2","59","training","adjacent","DC","4","3","Q.jpg","O.jpg","0","0","1","",""
"","feedback","","html-keyboard-response","391","1308259","0.0-1.0-537.0-0.0","0","0","19196","","null","","","null","59","","","","","","","","","","","","","","","",""
"","ITI","","html-keyboard-response","392","1309262","0.0-1.0-540.0","0","0","19196","","null","","","null","59","","","","","","","","","","","","","","","NaN",""
"","S1","","html-keyboard-response","393","1309415","0.0-1.0-542.0","0","0","19196","","null","","","null","60","","","","","","","","","","","","","","","",""
"","ISI","","html-keyboard-response","394","1311418","0.0-1.0-543.0","0","0","19196","","null","","","null","60","NaN","","","","","","","","","","","","","","",""
"","S2","","html-keyboard-response","395","1311572","0.0-1.0-544.0","0","0","19196","","null","","","null","60","","NaN","","","","","","","","","","","","","",""
"","response","","html-keyboard-response","396","1311974","0.0-1.0-545.0-0.0","0","0","19196","","400","","","75","60","","","2","60","training","adjacent","BC","2","3","M.jpg","O.jpg","0","1","0","",""
"","feedback","","html-keyboard-response","397","1312977","0.0-1.0-546.0-0.0","0","0","19196","","null","","","null","60","","","","","","","","","","","","","","","",""
"","time_out","","html-keyboard-response","398","1314980","0.0-1.0-548.0-0.0","0","0","19196","","null","","","null","60","","","","","","","","","","","","","","","",""
"","ITI","","html-keyboard-response","399","1315984","0.0-1.0-549.0","0","0","19196","","null","","","null","60","","","","","","","","","","","","","","","NaN",""
"","S1","","html-keyboard-response","400","1316138","0.0-1.0-551.0","0","0","19196","","null","","","null","61","","","","","","","","","","","","","","","",""
"","ISI","","html-keyboard-response","401","1318141","0.0-1.0-552.0","0","0","19196","","null","","","null","61","NaN","","","","","","","","","","","","","","",""
"","S2","","html-keyboard-response","402","1318296","0.0-1.0-553.0","0","0","19196","","null","","","null","61","","NaN","","","","","","","","","","","","","",""
"","response","","html-keyboard-response","403","1318714","0.0-1.0-554.0-0.0","0","0","19196","","414","","","68","61","","","2","61","training","adjacent","ED","5","4","R.jpg","Q.jpg","1","0","0","",""
"","feedback","","html-keyboard-response","404","1319720","0.0-1.0-555.0-0.0","0","0","19196","","null","","","null","61","","","","","","","","","","","","","","","",""
"","time_out","","html-keyboard-response","405","1321724","0.0-1.0-557.0-0.0","0","0","19196","","null","","","null","61","","","","","","","","","","","","","","","",""
"","ITI","","html-keyboard-response","406","1322728","0.0-1.0-558.0","0","0","19196","","null","","","null","61","","","","","","","","","","","","","","","NaN",""
"","S1","","html-keyboard-response","407","1322888","0.0-1.0-560.0","0","0","19196","","null","","","null","62","","","","","","","","","","","","","","","",""
"","ISI","","html-keyboard-response","408","1324891","0.0-1.0-561.0","0","0","19196","","null","","","null","62","NaN","","","","","","","","","","","","","","",""
"","S2","","html-keyboard-response","409","1325045","0.0-1.0-562.0","0","0","19196","","null","","","null","62","","NaN","","","","","","","","","","","","","",""
"","response","","html-keyboard-response","410","1325456","0.0-1.0-563.0-0.0","0","0","19196","","409","","","75","62","","","2","62","training","adjacent","GF","7","6","N.jpg","P.jpg","0","0","1","",""
"","feedback","","html-keyboard-response","411","1326461","0.0-1.0-564.0-0.0","0","0","19196","","null","","","null","62","","","","","","","","","","","","","","","",""
"","ITI","","html-keyboard-response","412","1327466","0.0-1.0-567.0","0","0","19196","","null","","","null","62","","","","","","","","","","","","","","","NaN",""
"","S1","","html-keyboard-response","413","1327620","0.0-1.0-569.0","0","0","19196","","null","","","null","63","","","","","","","","","","","","","","","",""
"","ISI","","html-keyboard-response","414","1329624","0.0-1.0-570.0","0","0","19196","","null","","","null","63","NaN","","","","","","","","","","","","","","",""
"","S2","","html-keyboard-response","415","1329778","0.0-1.0-571.0","0","0","19196","","null","","","null","63","","NaN","","","","","","","","","","","","","",""
"","response","","html-keyboard-response","416","1330169","0.0-1.0-572.0-0.0","0","0","19196","","388","","","75","63","","","2","63","training","adjacent","EF","5","6","R.jpg","P.jpg","0","1","0","",""
"","feedback","","html-keyboard-response","417","1331173","0.0-1.0-573.0-0.0","0","0","19196","","null","","","null","63","","","","","","","","","","","","","","","",""
"","time_out","","html-keyboard-response","418","1333177","0.0-1.0-575.0-0.0","0","0","19196","","null","","","null","63","","","","","","","","","","","","","","","",""
"","ITI","","html-keyboard-response","419","1334187","0.0-1.0-576.0","0","0","19196","","null","","","null","63","","","","","","","","","","","","","","","NaN",""
"","S1","","html-keyboard-response","420","1334340","0.0-1.0-578.0","0","0","19196","","null","","","null","64","","","","","","","","","","","","","","","",""
"","ISI","","html-keyboard-response","421","1336343","0.0-1.0-579.0","0","0","19196","","null","","","null","64","NaN","","","","","","","","","","","","","","",""
"","S2","","html-keyboard-response","422","1336497","0.0-1.0-580.0","0","0","19196","","null","","","null","64","","NaN","","","","","","","","","","","","","",""
"","response","","html-keyboard-response","423","1336896","0.0-1.0-581.0-0.0","0","0","19196","","396","","","68","64","","","2","64","training","adjacent","CB","3","2","O.jpg","M.jpg","1","0","0","",""
"","feedback","","html-keyboard-response","424","1337901","0.0-1.0-582.0-0.0","0","0","19196","","null","","","null","64","","","","","","","","","","","","","","","",""
"","time_out","","html-keyboard-response","425","1339906","0.0-1.0-584.0-0.0","0","0","19196","","null","","","null","64","","","","","","","","","","","","","","","",""
"","ITI","","html-keyboard-response","426","1340909","0.0-1.0-585.0","0","0","19196","","null","","","null","64","","","","","","","","","","","","","","","NaN",""
"","S1","","html-keyboard-response","427","1341061","0.0-1.0-587.0","0","0","19196","","null","","","null","65","","","","","","","","","","","","","","","",""
"","ISI","","html-keyboard-response","428","1343064","0.0-1.0-588.0","0","0","19196","","null","","","null","65","NaN","","","","","","","","","","","","","","",""
"","S2","","html-keyboard-response","429","1343218","0.0-1.0-589.0","0","0","19196","","null","","","null","65","","NaN","","","","","","","","","","","","","",""
"","response","","html-keyboard-response","430","1343664","0.0-1.0-590.0-0.0","0","0","19196","","442","","","68","65","","","2","65","training","adjacent","FG","6","7","P.jpg","N.jpg","1","1","1","",""
"","feedback","","html-keyboard-response","431","1344669","0.0-1.0-591.0-0.0","0","0","19196","","null","","","null","65","","","","","","","","","","","","","","","",""
"","ITI","","html-keyboard-response","432","1345673","0.0-1.0-594.0","0","0","19196","","null","","","null","65","","","","","","","","","","","","","","","NaN",""
"","S1","","html-keyboard-response","433","1345827","0.0-1.0-596.0","0","0","19196","","null","","","null","66","","","","","","","","","","","","","","","",""
"","ISI","","html-keyboard-response","434","1347829","0.0-1.0-597.0","0","0","19196","","null","","","null","66","NaN","","","","","","","","","","","","","","",""
"","S2","","html-keyboard-response","435","1347983","0.0-1.0-598.0","0","0","19196","","null","","","null","66","","NaN","","","","","","","","","","","","","",""
"","response","","html-keyboard-response","436","1348496","0.0-1.0-599.0-0.0","0","0","19196","","510","","","75","66","","","2","66","training","adjacent","DE","4","5","Q.jpg","R.jpg","0","1","0","",""
"","feedback","","html-keyboard-response","437","1349499","0.0-1.0-600.0-0.0","0","0","19196","","null","","","null","66","","","","","","","","","","","","","","","",""
"","time_out","","html-keyboard-response","438","1351501","0.0-1.0-602.0-0.0","0","0","19196","","null","","","null","66","","","","","","","","","","","","","","","",""
"","ITI","","html-keyboard-response","439","1352504","0.0-1.0-603.0","0","0","19196","","null","","","null","66","","","","","","","","","","","","","","","NaN",""
"","S1","","html-keyboard-response","440","1352658","0.0-1.0-605.0","0","0","19196","","null","","","null","67","","","","","","","","","","","","","","","",""
"","ISI","","html-keyboard-response","441","1354660","0.0-1.0-606.0","0","0","19196","","null","","","null","67","NaN","","","","","","","","","","","","","","",""
"","S2","","html-keyboard-response","442","1354812","0.0-1.0-607.0","0","0","19196","","null","","","null","67","","NaN","","","","","","","","","","","","","",""
"","response","","html-keyboard-response","443","1355280","0.0-1.0-608.0-0.0","0","0","19196","","465","","","68","67","","","2","67","training","adjacent","AB","1","2","L.jpg","M.jpg","1","1","1","",""
"","feedback","","html-keyboard-response","444","1356286","0.0-1.0-609.0-0.0","0","0","19196","","null","","","null","67","","","","","","","","","","","","","","","",""
"","ITI","","html-keyboard-response","445","1357289","0.0-1.0-612.0","0","0","19196","","null","","","null","67","","","","","","","","","","","","","","","NaN",""
"","S1","","html-keyboard-response","446","1357443","0.0-1.0-614.0","0","0","19196","","null","","","null","68","","","","","","","","","","","","","","","",""
"","ISI","","html-keyboard-response","447","1359448","0.0-1.0-615.0","0","0","19196","","null","","","null","68","NaN","","","","","","","","","","","","","","",""
"","S2","","html-keyboard-response","448","1359602","0.0-1.0-616.0","0","0","19196","","null","","","null","68","","NaN","","","","","","","","","","","","","",""
"","response","","html-keyboard-response","449","1360137","0.0-1.0-617.0-0.0","0","0","19196","","533","","","68","68","","","2","68","training","adjacent","FG","6","7","P.jpg","N.jpg","1","1","1","",""
"","feedback","","html-keyboard-response","450","1361142","0.0-1.0-618.0-0.0","0","0","19196","","null","","","null","68","","","","","","","","","","","","","","","",""
"","ITI","","html-keyboard-response","451","1362147","0.0-1.0-621.0","0","0","19196","","null","","","null","68","","","","","","","","","","","","","","","NaN",""
"","S1","","html-keyboard-response","452","1362300","0.0-1.0-623.0","0","0","19196","","null","","","null","69","","","","","","","","","","","","","","","",""
"","ISI","","html-keyboard-response","453","1364304","0.0-1.0-624.0","0","0","19196","","null","","","null","69","NaN","","","","","","","","","","","","","","",""
"","S2","","html-keyboard-response","454","1364458","0.0-1.0-625.0","0","0","19196","","null","","","null","69","","NaN","","","","","","","","","","","","","",""
"","response","","html-keyboard-response","455","1364905","0.0-1.0-626.0-0.0","0","0","19196","","444","","","75","69","","","2","69","training","adjacent","FE","6","5","P.jpg","R.jpg","0","0","1","",""
"","feedback","","html-keyboard-response","456","1365908","0.0-1.0-627.0-0.0","0","0","19196","","null","","","null","69","","","","","","","","","","","","","","","",""
"","ITI","","html-keyboard-response","457","1366912","0.0-1.0-630.0","0","0","19196","","null","","","null","69","","","","","","","","","","","","","","","NaN",""
"","S1","","html-keyboard-response","458","1367065","0.0-1.0-632.0","0","0","19196","","null","","","null","70","","","","","","","","","","","","","","","",""
"","ISI","","html-keyboard-response","459","1369067","0.0-1.0-633.0","0","0","19196","","null","","","null","70","NaN","","","","","","","","","","","","","","",""
"","S2","","html-keyboard-response","460","1369219","0.0-1.0-634.0","0","0","19196","","null","","","null","70","","NaN","","","","","","","","","","","","","",""
"","response","","html-keyboard-response","461","1369686","0.0-1.0-635.0-0.0","0","0","19196","","465","","","75","70","","","2","70","training","adjacent","ED","5","4","R.jpg","Q.jpg","0","0","1","",""
"","feedback","","html-keyboard-response","462","1370690","0.0-1.0-636.0-0.0","0","0","19196","","null","","","null","70","","","","","","","","","","","","","","","",""
"","ITI","","html-keyboard-response","463","1371693","0.0-1.0-639.0","0","0","19196","","null","","","null","70","","","","","","","","","","","","","","","NaN",""
"","S1","","html-keyboard-response","464","1371848","0.0-1.0-641.0","0","0","19196","","null","","","null","71","","","","","","","","","","","","","","","",""
"","ISI","","html-keyboard-response","465","1373864","0.0-1.0-642.0","0","0","19196","","null","","","null","71","NaN","","","","","","","","","","","","","","",""
"","S2","","html-keyboard-response","466","1374018","0.0-1.0-643.0","0","0","19196","","null","","","null","71","","NaN","","","","","","","","","","","","","",""
"","response","","html-keyboard-response","467","1374472","0.0-1.0-644.0-0.0","0","0","19196","","451","","","75","71","","","2","71","training","adjacent","CD","3","4","O.jpg","Q.jpg","0","1","0","",""
"","feedback","","html-keyboard-response","468","1375477","0.0-1.0-645.0-0.0","0","0","19196","","null","","","null","71","","","","","","","","","","","","","","","",""
"","time_out","","html-keyboard-response","469","1377481","0.0-1.0-647.0-0.0","0","0","19196","","null","","","null","71","","","","","","","","","","","","","","","",""
"","ITI","","html-keyboard-response","470","1378484","0.0-1.0-648.0","0","0","19196","","null","","","null","71","","","","","","","","","","","","","","","NaN",""
"","S1","","html-keyboard-response","471","1378636","0.0-1.0-650.0","0","0","19196","","null","","","null","72","","","","","","","","","","","","","","","",""
"","ISI","","html-keyboard-response","472","1380639","0.0-1.0-651.0","0","0","19196","","null","","","null","72","NaN","","","","","","","","","","","","","","",""
"","S2","","html-keyboard-response","473","1380793","0.0-1.0-652.0","0","0","19196","","null","","","null","72","","NaN","","","","","","","","","","","","","",""
"","response","","html-keyboard-response","474","1381179","0.0-1.0-653.0-0.0","0","0","19196","","383","","","68","72","","","2","72","training","adjacent","DE","4","5","Q.jpg","R.jpg","1","1","1","",""
"","feedback","","html-keyboard-response","475","1382184","0.0-1.0-654.0-0.0","0","0","19196","","null","","","null","72","","","","","","","","","","","","","","","",""
"","ITI","","html-keyboard-response","476","1383189","0.0-1.0-657.0","0","0","19196","","null","","","null","72","","","","","","","","","","","","","","","NaN",""
"","S1","","html-keyboard-response","477","1383344","0.0-1.0-659.0","0","0","19196","","null","","","null","73","","","","","","","","","","","","","","","",""
"","ISI","","html-keyboard-response","478","1385347","0.0-1.0-660.0","0","0","19196","","null","","","null","73","NaN","","","","","","","","","","","","","","",""
"","S2","","html-keyboard-response","479","1385499","0.0-1.0-661.0","0","0","19196","","null","","","null","73","","NaN","","","","","","","","","","","","","",""
"","response","","html-keyboard-response","480","1385886","0.0-1.0-662.0-0.0","0","0","19196","","386","","","68","73","","","2","73","training","adjacent","FG","6","7","P.jpg","N.jpg","1","1","1","",""
"","feedback","","html-keyboard-response","481","1386891","0.0-1.0-663.0-0.0","0","0","19196","","null","","","null","73","","","","","","","","","","","","","","","",""
"","ITI","","html-keyboard-response","482","1387893","0.0-1.0-666.0","0","0","19196","","null","","","null","73","","","","","","","","","","","","","","","NaN",""
"","S1","","html-keyboard-response","483","1388047","0.0-1.0-668.0","0","0","19196","","null","","","null","74","","","","","","","","","","","","","","","",""
"","ISI","","html-keyboard-response","484","1390050","0.0-1.0-669.0","0","0","19196","","null","","","null","74","NaN","","","","","","","","","","","","","","",""
"","S2","","html-keyboard-response","485","1390205","0.0-1.0-670.0","0","0","19196","","null","","","null","74","","NaN","","","","","","","","","","","","","",""
"","response","","html-keyboard-response","486","1390583","0.0-1.0-671.0-0.0","0","0","19196","","376","","","75","74","","","2","74","training","adjacent","CB","3","2","O.jpg","M.jpg","0","0","1","",""
"","feedback","","html-keyboard-response","487","1391587","0.0-1.0-672.0-0.0","0","0","19196","","null","","","null","74","","","","","","","","","","","","","","","",""
"","ITI","","html-keyboard-response","488","1392590","0.0-1.0-675.0","0","0","19196","","null","","","null","74","","","","","","","","","","","","","","","NaN",""
"","S1","","html-keyboard-response","489","1392743","0.0-1.0-677.0","0","0","19196","","null","","","null","75","","","","","","","","","","","","","","","",""
"","ISI","","html-keyboard-response","490","1394747","0.0-1.0-678.0","0","0","19196","","null","","","null","75","NaN","","","","","","","","","","","","","","",""
"","S2","","html-keyboard-response","491","1394902","0.0-1.0-679.0","0","0","19196","","null","","","null","75","","NaN","","","","","","","","","","","","","",""
"","response","","html-keyboard-response","492","1395296","0.0-1.0-680.0-0.0","0","0","19196","","391","","","75","75","","","2","75","training","adjacent","FE","6","5","P.jpg","R.jpg","0","0","1","",""
"","feedback","","html-keyboard-response","493","1396300","0.0-1.0-681.0-0.0","0","0","19196","","null","","","null","75","","","","","","","","","","","","","","","",""
"","ITI","","html-keyboard-response","494","1397308","0.0-1.0-684.0","0","0","19196","","null","","","null","75","","","","","","","","","","","","","","","NaN",""
"","S1","","html-keyboard-response","495","1397463","0.0-1.0-686.0","0","0","19196","","null","","","null","76","","","","","","","","","","","","","","","",""
"","ISI","","html-keyboard-response","496","1399469","0.0-1.0-687.0","0","0","19196","","null","","","null","76","NaN","","","","","","","","","","","","","","",""
"","S2","","html-keyboard-response","497","1399623","0.0-1.0-688.0","0","0","19196","","null","","","null","76","","NaN","","","","","","","","","","","","","",""
"","response","","html-keyboard-response","498","1400064","0.0-1.0-689.0-0.0","0","0","19196","","438","","","68","76","","","2","76","training","adjacent","ED","5","4","R.jpg","Q.jpg","1","0","0","",""
"","feedback","","html-keyboard-response","499","1401070","0.0-1.0-690.0-0.0","0","0","19196","","null","","","null","76","","","","","","","","","","","","","","","",""
"","time_out","","html-keyboard-response","500","1403074","0.0-1.0-692.0-0.0","0","0","19196","","null","","","null","76","","","","","","","","","","","","","","","",""
"","ITI","","html-keyboard-response","501","1404077","0.0-1.0-693.0","0","0","19196","","null","","","null","76","","","","","","","","","","","","","","","NaN",""
"","S1","","html-keyboard-response","502","1404231","0.0-1.0-695.0","0","0","19196","","null","","","null","77","","","","","","","","","","","","","","","",""
"","ISI","","html-keyboard-response","503","1406235","0.0-1.0-696.0","0","0","19196","","null","","","null","77","NaN","","","","","","","","","","","","","","",""
"","S2","","html-keyboard-response","504","1406389","0.0-1.0-697.0","0","0","19196","","null","","","null","77","","NaN","","","","","","","","","","","","","",""
"","response","","html-keyboard-response","505","1406824","0.0-1.0-698.0-0.0","0","0","19196","","432","","","75","77","","","2","77","training","adjacent","ED","5","4","R.jpg","Q.jpg","0","0","1","",""
"","feedback","","html-keyboard-response","506","1407829","0.0-1.0-699.0-0.0","0","0","19196","","null","","","null","77","","","","","","","","","","","","","","","",""
"","ITI","","html-keyboard-response","507","1408834","0.0-1.0-702.0","0","0","19196","","null","","","null","77","","","","","","","","","","","","","","","NaN",""
"","S1","","html-keyboard-response","508","1408989","0.0-1.0-704.0","0","0","19196","","null","","","null","78","","","","","","","","","","","","","","","",""
"","ISI","","html-keyboard-response","509","1410992","0.0-1.0-705.0","0","0","19196","","null","","","null","78","NaN","","","","","","","","","","","","","","",""
"","S2","","html-keyboard-response","510","1411147","0.0-1.0-706.0","0","0","19196","","null","","","null","78","","NaN","","","","","","","","","","","","","",""
"","response","","html-keyboard-response","511","1411601","0.0-1.0-707.0-0.0","0","0","19196","","451","","","68","78","","","2","78","training","adjacent","EF","5","6","R.jpg","P.jpg","1","1","1","",""
"","feedback","","html-keyboard-response","512","1412606","0.0-1.0-708.0-0.0","0","0","19196","","null","","","null","78","","","","","","","","","","","","","","","",""
"","ITI","","html-keyboard-response","513","1413611","0.0-1.0-711.0","0","0","19196","","null","","","null","78","","","","","","","","","","","","","","","NaN",""
"","S1","","html-keyboard-response","514","1413766","0.0-1.0-713.0","0","0","19196","","null","","","null","79","","","","","","","","","","","","","","","",""
"","ISI","","html-keyboard-response","515","1415769","0.0-1.0-714.0","0","0","19196","","null","","","null","79","NaN","","","","","","","","","","","","","","",""
"","S2","","html-keyboard-response","516","1415924","0.0-1.0-715.0","0","0","19196","","null","","","null","79","","NaN","","","","","","","","","","","","","",""
"","response","","html-keyboard-response","517","1416153","0.0-1.0-716.0-0.0","0","0","19196","","224","","","75","79","","","2","79","training","adjacent","BA","2","1","M.jpg","L.jpg","0","0","1","",""
"","feedback","","html-keyboard-response","518","1417157","0.0-1.0-717.0-0.0","0","0","19196","","null","","","null","79","","","","","","","","","","","","","","","",""
"","ITI","","html-keyboard-response","519","1418159","0.0-1.0-720.0","0","0","19196","","null","","","null","79","","","","","","","","","","","","","","","NaN",""
"","S1","","html-keyboard-response","520","1418314","0.0-1.0-722.0","0","0","19196","","null","","","null","80","","","","","","","","","","","","","","","",""
"","ISI","","html-keyboard-response","521","1420317","0.0-1.0-723.0","0","0","19196","","null","","","null","80","NaN","","","","","","","","","","","","","","",""
"","S2","","html-keyboard-response","522","1420471","0.0-1.0-724.0","0","0","19196","","null","","","null","80","","NaN","","","","","","","","","","","","","",""
"","response","","html-keyboard-response","523","1420729","0.0-1.0-725.0-0.0","0","0","19196","","254","","","75","80","","","2","80","training","adjacent","AB","1","2","L.jpg","M.jpg","0","1","0","",""
"","feedback","","html-keyboard-response","524","1421746","0.0-1.0-726.0-0.0","0","0","19196","","null","","","null","80","","","","","","","","","","","","","","","",""
"","time_out","","html-keyboard-response","525","1423750","0.0-1.0-728.0-0.0","0","0","19196","","null","","","null","80","","","","","","","","","","","","","","","",""
"","ITI","","html-keyboard-response","526","1424753","0.0-1.0-729.0","0","0","19196","","null","","","null","80","","","","","","","","","","","","","","","NaN",""
"","S1","","html-keyboard-response","527","1424906","0.0-1.0-731.0","0","0","19196","","null","","","null","81","","","","","","","","","","","","","","","",""
"","ISI","","html-keyboard-response","528","1426909","0.0-1.0-732.0","0","0","19196","","null","","","null","81","NaN","","","","","","","","","","","","","","",""
"","S2","","html-keyboard-response","529","1427063","0.0-1.0-733.0","0","0","19196","","null","","","null","81","","NaN","","","","","","","","","","","","","",""
"","response","","html-keyboard-response","530","1427440","0.0-1.0-734.0-0.0","0","0","19196","","375","","","68","81","","","2","81","training","adjacent","BA","2","1","M.jpg","L.jpg","1","0","0","",""
"","feedback","","html-keyboard-response","531","1428445","0.0-1.0-735.0-0.0","0","0","19196","","null","","","null","81","","","","","","","","","","","","","","","",""
"","time_out","","html-keyboard-response","532","1430450","0.0-1.0-737.0-0.0","0","0","19196","","null","","","null","81","","","","","","","","","","","","","","","",""
"","ITI","","html-keyboard-response","533","1431455","0.0-1.0-738.0","0","0","19196","","null","","","null","81","","","","","","","","","","","","","","","NaN",""
"","S1","","html-keyboard-response","534","1431608","0.0-1.0-740.0","0","0","19196","","null","","","null","82","","","","","","","","","","","","","","","",""
"","ISI","","html-keyboard-response","535","1433611","0.0-1.0-741.0","0","0","19196","","1116","","","75","82","k","","","","","","","","","","","","","","",""
"","S2","","html-keyboard-response","536","1433744","0.0-1.0-742.0","0","0","19196","","130","","","75","82","","k","2","82","training","adjacent","GF","7","6","N.jpg","P.jpg","0","0","1","",""
"","feedback","","html-keyboard-response","537","1434748","0.0-1.0-744.0-0.0","0","0","19196","","null","","","null","82","","","","","","","","","","","","","","","",""
"","ITI","","html-keyboard-response","538","1435752","0.0-1.0-747.0","0","0","19196","","null","","","null","82","","","","","","","","","","","","","","","NaN",""
"","S1","","html-keyboard-response","539","1435906","0.0-1.0-749.0","0","0","19196","","null","","","null","83","","","","","","","","","","","","","","","",""
"","ISI","","html-keyboard-response","540","1437910","0.0-1.0-750.0","0","0","19196","","null","","","null","83","NaN","","","","","","","","","","","","","","",""
"","S2","","html-keyboard-response","541","1438064","0.0-1.0-751.0","0","0","19196","","null","","","null","83","","NaN","","","","","","","","","","","","","",""
"","response","","html-keyboard-response","542","1438463","0.0-1.0-752.0-0.0","0","0","19196","","397","","","68","83","","","2","83","training","adjacent","CD","3","4","O.jpg","Q.jpg","1","1","1","",""
"","feedback","","html-keyboard-response","543","1439468","0.0-1.0-753.0-0.0","0","0","19196","","null","","","null","83","","","","","","","","","","","","","","","",""
"","ITI","","html-keyboard-response","544","1440472","0.0-1.0-756.0","0","0","19196","","null","","","null","83","","","","","","","","","","","","","","","NaN",""
"","S1","","html-keyboard-response","545","1440627","0.0-1.0-758.0","0","0","19196","","null","","","null","84","","","","","","","","","","","","","","","",""
"","ISI","","html-keyboard-response","546","1442630","0.0-1.0-759.0","0","0","19196","","null","","","null","84","NaN","","","","","","","","","","","","","","",""
"","S2","","html-keyboard-response","547","1442784","0.0-1.0-760.0","0","0","19196","","null","","","null","84","","NaN","","","","","","","","","","","","","",""
"","response","","html-keyboard-response","548","1442984","0.0-1.0-761.0-0.0","0","0","19196","","197","","","68","84","","","2","84","training","adjacent","FE","6","5","P.jpg","R.jpg","1","0","0","",""
"","feedback","","html-keyboard-response","549","1443988","0.0-1.0-762.0-0.0","0","0","19196","","null","","","null","84","","","","","","","","","","","","","","","",""
"","time_out","","html-keyboard-response","550","1445991","0.0-1.0-764.0-0.0","0","0","19196","","null","","","null","84","","","","","","","","","","","","","","","",""
"","ITI","","html-keyboard-response","551","1446994","0.0-1.0-765.0","0","0","19196","","null","","","null","84","","","","","","","","","","","","","","","NaN",""
"","S1","","html-keyboard-response","552","1447148","0.0-1.0-767.0","0","0","19196","","null","","","null","85","","","","","","","","","","","","","","","",""
"","ISI","","html-keyboard-response","553","1449152","0.0-1.0-768.0","0","0","19196","","null","","","null","85","NaN","","","","","","","","","","","","","","",""
"","S2","","html-keyboard-response","554","1449306","0.0-1.0-769.0","0","0","19196","","null","","","null","85","","NaN","","","","","","","","","","","","","",""
"","response","","html-keyboard-response","555","1449725","0.0-1.0-770.0-0.0","0","0","19196","","416","","","75","85","","","2","85","training","adjacent","CD","3","4","O.jpg","Q.jpg","0","1","0","",""
"","feedback","","html-keyboard-response","556","1450729","0.0-1.0-771.0-0.0","0","0","19196","","null","","","null","85","","","","","","","","","","","","","","","",""
"","time_out","","html-keyboard-response","557","1452743","0.0-1.0-773.0-0.0","0","0","19196","","null","","","null","85","","","","","","","","","","","","","","","",""
"","ITI","","html-keyboard-response","558","1453748","0.0-1.0-774.0","0","0","19196","","null","","","null","85","","","","","","","","","","","","","","","NaN",""
"","S1","","html-keyboard-response","559","1453914","0.0-1.0-776.0","0","0","19196","","null","","","null","86","","","","","","","","","","","","","","","",""
"","ISI","","html-keyboard-response","560","1455918","0.0-1.0-777.0","0","0","19196","","null","","","null","86","NaN","","","","","","","","","","","","","","",""
"","S2","","html-keyboard-response","561","1456073","0.0-1.0-778.0","0","0","19196","","null","","","null","86","","NaN","","","","","","","","","","","","","",""
"","response","","html-keyboard-response","562","1456495","0.0-1.0-779.0-0.0","0","0","19196","","419","","","75","86","","","2","86","training","adjacent","AB","1","2","L.jpg","M.jpg","0","1","0","",""
"","feedback","","html-keyboard-response","563","1457498","0.0-1.0-780.0-0.0","0","0","19196","","null","","","null","86","","","","","","","","","","","","","","","",""
"","time_out","","html-keyboard-response","564","1459501","0.0-1.0-782.0-0.0","0","0","19196","","null","","","null","86","","","","","","","","","","","","","","","",""
"","ITI","","html-keyboard-response","565","1460503","0.0-1.0-783.0","0","0","19196","","null","","","null","86","","","","","","","","","","","","","","","NaN",""
"","S1","","html-keyboard-response","566","1460657","0.0-1.0-785.0","0","0","19196","","null","","","null","87","","","","","","","","","","","","","","","",""
"","ISI","","html-keyboard-response","567","1462661","0.0-1.0-786.0","0","0","19196","","365","","","68","87","d","","","","","","","","","","","","","","",""
"","S2","","html-keyboard-response","568","1462770","0.0-1.0-787.0","0","0","19196","","107","","","68","87","","d","2","87","training","adjacent","DE","4","5","Q.jpg","R.jpg","1","1","1","",""
"","feedback","","html-keyboard-response","569","1463775","0.0-1.0-789.0-0.0","0","0","19196","","null","","","null","87","","","","","","","","","","","","","","","",""
"","ITI","","html-keyboard-response","570","1464779","0.0-1.0-792.0","0","0","19196","","680","","","75","87","","","","","","","","","","","","","","","k",""
"","S1","","html-keyboard-response","571","1464934","0.0-1.0-794.0","0","0","19196","","null","","","null","88","","","","","","","","","","","","","","","",""
"","ISI","","html-keyboard-response","572","1466947","0.0-1.0-795.0","0","0","19196","","null","","","null","88","NaN","","","","","","","","","","","","","","",""
"","S2","","html-keyboard-response","573","1467102","0.0-1.0-796.0","0","0","19196","","null","","","null","88","","NaN","","","","","","","","","","","","","",""
"","response","","html-keyboard-response","574","1467593","0.0-1.0-797.0-0.0","0","0","19196","","488","","","68","88","","","2","88","training","adjacent","DE","4","5","Q.jpg","R.jpg","1","1","1","",""
"","feedback","","html-keyboard-response","575","1468598","0.0-1.0-798.0-0.0","0","0","19196","","null","","","null","88","","","","","","","","","","","","","","","",""
"","ITI","","html-keyboard-response","576","1469601","0.0-1.0-801.0","0","0","19196","","null","","","null","88","","","","","","","","","","","","","","","NaN",""
"","S1","","html-keyboard-response","577","1469755","0.0-1.0-803.0","0","0","19196","","null","","","null","89","","","","","","","","","","","","","","","",""
"","ISI","","html-keyboard-response","578","1471759","0.0-1.0-804.0","0","0","19196","","null","","","null","89","NaN","","","","","","","","","","","","","","",""
"","S2","","html-keyboard-response","579","1471923","0.0-1.0-805.0","0","0","19196","","null","","","null","89","","NaN","","","","","","","","","","","","","",""
"","response","","html-keyboard-response","580","1472354","0.0-1.0-806.0-0.0","0","0","19196","","428","","","68","89","","","2","89","training","adjacent","AB","1","2","L.jpg","M.jpg","1","1","1","",""
