"success","ttype","start_time","trial_type","trial_index","time_elapsed","internal_node_id","warning","missed_checkup","PID","view_history","rt","responses","repeat_instructions","key_press","index","keypress_isi","keypress_S2","block","trial_num","phase","group_type","pair_type","S1_stim","S2_stim","S1_img","S2_img","S1_chosen","S1_higher","accuracy","keypress_iti","total_bonus_tally"
"true","full_screen","d03042023hr1438","fullscreen","0","6549","0.0-0.0","0","0","92227","","","","","","","","","","","","","","","","","","","","","",""
"","instructions","","instructions","1","41533","0.0-1.0-0.0-0.0","0","0","92227","[{""page_index"":0,""viewing_time"":4174},{""page_index"":1,""viewing_time"":23272},{""page_index"":2,""viewing_time"":6088},{""page_index"":3,""viewing_time"":1448}]","34982","","","","","","","","","","","","","","","","","","","",""
"","comprehension_check","","survey-multi-choice","2","55758","0.0-1.0-0.0-1.0","0","0","92227","","14219","{""Q0"":""True"",""Q1"":""D"",""Q2"":""Only when the screen 'MAKE A CHOICE' is shown"",""Q3"":""Green mark"",""Q4"":""either D or K""}","1","","","","","","","","","","","","","","","","","",""
"","missed_instruction_checkup","","html-keyboard-response","3","57963","0.0-1.0-0.0-2.0-0.0","0","1","92227","","2202","","","32","","","","","","","","","","","","","","","","",""
"","instructions","","instructions","4","80012","0.0-1.0-0.1-0.1","0","0","92227","[{""page_index"":0,""viewing_time"":2039},{""page_index"":1,""viewing_time"":11864},{""page_index"":2,""viewing_time"":7192},{""page_index"":3,""viewing_time"":952}]","22047","","","","","","","","","","","","","","","","","","","",""
"","comprehension_check","","survey-multi-choice","5","86277","0.0-1.0-0.1-1.1","0","0","92227","","6260","{""Q0"":""True"",""Q1"":""K"",""Q2"":""Only when the screen 'MAKE A CHOICE' is shown"",""Q3"":""Green mark"",""Q4"":""either D or K""}","1","","","","","","","","","","","","","","","","","",""
"","missed_instruction_checkup","","html-keyboard-response","6","87730","0.0-1.0-0.1-2.1-0.1","0","1","92227","","1451","","","32","","","","","","","","","","","","","","","","",""
"","instructions","","instructions","7","90708","0.0-1.0-0.2-0.2","0","0","92227","[{""page_index"":0,""viewing_time"":1513},{""page_index"":1,""viewing_time"":616},{""page_index"":2,""viewing_time"":384},{""page_index"":3,""viewing_time"":464}]","2977","","","","","","","","","","","","","","","","","","","",""
"","comprehension_check","","survey-multi-choice","8","106813","0.0-1.0-0.2-1.2","0","0","92227","","16100","{""Q0"":""True"",""Q1"":""K"",""Q2"":""Once the second image appears and while the screen 'MAKE A CHOICE' is shown"",""Q3"":""Green mark"",""Q4"":""either D or K""}","0","","","","","","","","","","","","","","","","","",""
"","start_exp","","html-keyboard-response","9","173674","0.0-1.0-1.0","0","0","92227","","66859","","","32","","","","","","","","","","","","","","","","",""
"","S1","","html-keyboard-response","10","173928","0.0-1.0-2.0","0","0","92227","","null","","","null","0","","","","","","","","","","","","","","","",""
"","ISI","","html-keyboard-response","11","174431","0.0-1.0-3.0","0","0","92227","","null","","","null","0","NaN","","","","","","","","","","","","","","",""
"","S2","","html-keyboard-response","12","174684","0.0-1.0-4.0","0","0","92227","","null","","","null","0","","NaN","","","","","","","","","","","","","",""
"","response","","html-keyboard-response","13","176437","0.0-1.0-5.0-0.0","0","0","92227","","null","","","null","0","","","1","0","training","adjacent","CB","3","2","Q.jpg","N.jpg","NaN","0","0","",""
"","too_slow_prompt","","html-keyboard-response","14","177440","0.0-1.0-7.0-0.0","1","0","92227","","null","","","null","","","","","","","","","","","","","","","","",""
"","time_out","","html-keyboard-response","15","179442","0.0-1.0-8.0-0.0","0","0","92227","","null","","","null","0","","","","","","","","","","","","","","","",""
"","ITI","","html-keyboard-response","16","180445","0.0-1.0-9.0","0","0","92227","","null","","","null","0","","","","","","","","","","","","","","","NaN",""
"","S1","","html-keyboard-response","17","180698","0.0-1.0-11.0","0","0","92227","","null","","","null","1","","","","","","","","","","","","","","","",""
"","ISI","","html-keyboard-response","18","181210","0.0-1.0-12.0","0","0","92227","","null","","","null","1","NaN","","","","","","","","","","","","","","",""
"","S2","","html-keyboard-response","19","181475","0.0-1.0-13.0","0","0","92227","","null","","","null","1","","NaN","","","","","","","","","","","","","",""
"","response","","html-keyboard-response","20","181921","0.0-1.0-14.0-0.0","0","0","92227","","444","","","75","1","","","1","1","training","adjacent","DE","4","5","P.jpg","R.jpg","1","1","1","",""
"","feedback","","html-keyboard-response","21","182925","0.0-1.0-15.0-0.0","0","0","92227","","null","","","null","1","","","","","","","","","","","","","","","",""
"","ITI","","html-keyboard-response","22","183928","0.0-1.0-18.0","0","0","92227","","null","","","null","1","","","","","","","","","","","","","","","NaN",""
"","S1","","html-keyboard-response","23","184181","0.0-1.0-20.0","0","0","92227","","null","","","null","2","","","","","","","","","","","","","","","",""
"","ISI","","html-keyboard-response","24","184684","0.0-1.0-21.0","0","0","92227","","null","","","null","2","NaN","","","","","","","","","","","","","","",""
"","S2","","html-keyboard-response","25","184937","0.0-1.0-22.0","0","0","92227","","null","","","null","2","","NaN","","","","","","","","","","","","","",""
"","response","","html-keyboard-response","26","185498","0.0-1.0-23.0-0.0","0","0","92227","","559","","","68","2","","","1","2","training","adjacent","FE","6","5","L.jpg","R.jpg","0","0","1","",""
"","feedback","","html-keyboard-response","27","186501","0.0-1.0-24.0-0.0","0","0","92227","","null","","","null","2","","","","","","","","","","","","","","","",""
"","ITI","","html-keyboard-response","28","187504","0.0-1.0-27.0","0","0","92227","","null","","","null","2","","","","","","","","","","","","","","","NaN",""
"","S1","","html-keyboard-response","29","187757","0.0-1.0-29.0","0","0","92227","","null","","","null","3","","","","","","","","","","","","","","","",""
"","ISI","","html-keyboard-response","30","188260","0.0-1.0-30.0","0","0","92227","","null","","","null","3","NaN","","","","","","","","","","","","","","",""
"","S2","","html-keyboard-response","31","188513","0.0-1.0-31.0","0","0","92227","","null","","","null","3","","NaN","","","","","","","","","","","","","",""
"","response","","html-keyboard-response","32","188737","0.0-1.0-32.0-0.0","0","0","92227","","222","","","75","3","","","1","3","training","adjacent","BC","2","3","N.jpg","Q.jpg","1","1","1","",""
"","feedback","","html-keyboard-response","33","189740","0.0-1.0-33.0-0.0","0","0","92227","","null","","","null","3","","","","","","","","","","","","","","","",""
"","ITI","","html-keyboard-response","34","190742","0.0-1.0-36.0","0","0","92227","","null","","","null","3","","","","","","","","","","","","","","","NaN",""
"","S1","","html-keyboard-response","35","190995","0.0-1.0-38.0","0","0","92227","","null","","","null","4","","","","","","","","","","","","","","","",""
"","ISI","","html-keyboard-response","36","191498","0.0-1.0-39.0","0","0","92227","","null","","","null","4","NaN","","","","","","","","","","","","","","",""
"","S2","","html-keyboard-response","37","191751","0.0-1.0-40.0","0","0","92227","","null","","","null","4","","NaN","","","","","","","","","","","","","",""
"","response","","html-keyboard-response","38","192321","0.0-1.0-41.0-0.0","0","0","92227","","568","","","68","4","","","1","4","training","adjacent","BA","2","1","N.jpg","M.jpg","0","0","1","",""
"","feedback","","html-keyboard-response","39","193325","0.0-1.0-42.0-0.0","0","0","92227","","null","","","null","4","","","","","","","","","","","","","","","",""
"","ITI","","html-keyboard-response","40","194328","0.0-1.0-45.0","0","0","92227","","null","","","null","4","","","","","","","","","","","","","","","NaN",""
"","S1","","html-keyboard-response","41","194581","0.0-1.0-47.0","0","0","92227","","null","","","null","5","","","","","","","","","","","","","","","",""
"","ISI","","html-keyboard-response","42","195084","0.0-1.0-48.0","0","0","92227","","null","","","null","5","NaN","","","","","","","","","","","","","","",""
"","S2","","html-keyboard-response","43","195337","0.0-1.0-49.0","0","0","92227","","null","","","null","5","","NaN","","","","","","","","","","","","","",""
"","response","","html-keyboard-response","44","195706","0.0-1.0-50.0-0.0","0","0","92227","","366","","","75","5","","","1","5","training","adjacent","ED","5","4","R.jpg","P.jpg","1","0","0","",""
"","feedback","","html-keyboard-response","45","196710","0.0-1.0-51.0-0.0","0","0","92227","","null","","","null","5","","","","","","","","","","","","","","","",""
"","time_out","","html-keyboard-response","46","198712","0.0-1.0-53.0-0.0","0","0","92227","","null","","","null","5","","","","","","","","","","","","","","","",""
"","ITI","","html-keyboard-response","47","199715","0.0-1.0-54.0","0","0","92227","","null","","","null","5","","","","","","","","","","","","","","","NaN",""
"","S1","","html-keyboard-response","48","199968","0.0-1.0-56.0","0","0","92227","","null","","","null","6","","","","","","","","","","","","","","","",""
"","ISI","","html-keyboard-response","49","200472","0.0-1.0-57.0","0","0","92227","","null","","","null","6","NaN","","","","","","","","","","","","","","",""
"","S2","","html-keyboard-response","50","200738","0.0-1.0-58.0","0","0","92227","","null","","","null","6","","NaN","","","","","","","","","","","","","",""
"","response","","html-keyboard-response","51","201129","0.0-1.0-59.0-0.0","0","0","92227","","389","","","68","6","","","1","6","training","adjacent","ED","5","4","R.jpg","P.jpg","0","0","1","",""
"","feedback","","html-keyboard-response","52","202144","0.0-1.0-60.0-0.0","0","0","92227","","null","","","null","6","","","","","","","","","","","","","","","",""
"","ITI","","html-keyboard-response","53","203147","0.0-1.0-63.0","0","0","92227","","null","","","null","6","","","","","","","","","","","","","","","NaN",""
"","S1","","html-keyboard-response","54","203400","0.0-1.0-65.0","0","0","92227","","null","","","null","7","","","","","","","","","","","","","","","",""
"","ISI","","html-keyboard-response","55","203902","0.0-1.0-66.0","0","0","92227","","208","","","75","7","k","","","","","","","","","","","","","","",""
"","S2","","html-keyboard-response","56","204156","0.0-1.0-67.0","0","0","92227","","null","","","null","7","","NaN","","","","","","","","","","","","","",""
"","response","","html-keyboard-response","57","204681","0.0-1.0-68.0-0.0","0","0","92227","","524","","","75","7","","","1","7","training","adjacent","CB","3","2","Q.jpg","N.jpg","1","0","0","",""
"","feedback","","html-keyboard-response","58","205684","0.0-1.0-69.0-0.0","0","0","92227","","null","","","null","7","","","","","","","","","","","","","","","",""
"","time_out","","html-keyboard-response","59","207686","0.0-1.0-71.0-0.0","0","0","92227","","null","","","null","7","","","","","","","","","","","","","","","",""
"","ITI","","html-keyboard-response","60","208689","0.0-1.0-72.0","0","0","92227","","null","","","null","7","","","","","","","","","","","","","","","NaN",""
"","S1","","html-keyboard-response","61","208942","0.0-1.0-74.0","0","0","92227","","null","","","null","8","","","","","","","","","","","","","","","",""
"","ISI","","html-keyboard-response","62","209444","0.0-1.0-75.0","0","0","92227","","394","","","68","8","d","","","","","","","","","","","","","","",""
"","S2","","html-keyboard-response","63","209701","0.0-1.0-76.0","0","0","92227","","null","","","null","8","","NaN","","","","","","","","","","","","","",""
"","response","","html-keyboard-response","64","210065","0.0-1.0-77.0-0.0","0","0","92227","","362","","","68","8","","","1","8","training","adjacent","EF","5","6","R.jpg","L.jpg","0","1","0","",""
"","feedback","","html-keyboard-response","65","211068","0.0-1.0-78.0-0.0","0","0","92227","","null","","","null","8","","","","","","","","","","","","","","","",""
"","time_out","","html-keyboard-response","66","213071","0.0-1.0-80.0-0.0","0","0","92227","","null","","","null","8","","","","","","","","","","","","","","","",""
"","ITI","","html-keyboard-response","67","214073","0.0-1.0-81.0","0","0","92227","","null","","","null","8","","","","","","","","","","","","","","","NaN",""
"","S1","","html-keyboard-response","68","214327","0.0-1.0-83.0","0","0","92227","","null","","","null","9","","","","","","","","","","","","","","","",""
"","ISI","","html-keyboard-response","69","214840","0.0-1.0-84.0","0","0","92227","","null","","","null","9","NaN","","","","","","","","","","","","","","",""
"","S2","","html-keyboard-response","70","215093","0.0-1.0-85.0","0","0","92227","","null","","","null","9","","NaN","","","","","","","","","","","","","",""
"","response","","html-keyboard-response","71","215513","0.0-1.0-86.0-0.0","0","0","92227","","419","","","75","9","","","1","9","training","adjacent","FE","6","5","L.jpg","R.jpg","1","0","0","",""
"","feedback","","html-keyboard-response","72","216525","0.0-1.0-87.0-0.0","0","0","92227","","null","","","null","9","","","","","","","","","","","","","","","",""
"","time_out","","html-keyboard-response","73","218528","0.0-1.0-89.0-0.0","0","0","92227","","null","","","null","9","","","","","","","","","","","","","","","",""
"","ITI","","html-keyboard-response","74","219531","0.0-1.0-90.0","0","0","92227","","null","","","null","9","","","","","","","","","","","","","","","NaN",""
"","S1","","html-keyboard-response","75","219783","0.0-1.0-92.0","0","0","92227","","null","","","null","10","","","","","","","","","","","","","","","",""
"","ISI","","html-keyboard-response","76","220285","0.0-1.0-93.0","0","0","92227","","368","","","68","10","d","","","","","","","","","","","","","","",""
"","S2","","html-keyboard-response","77","220539","0.0-1.0-94.0","0","0","92227","","null","","","null","10","","NaN","","","","","","","","","","","","","",""
"","response","","html-keyboard-response","78","220841","0.0-1.0-95.0-0.0","0","0","92227","","301","","","68","10","","","1","10","training","adjacent","CD","3","4","Q.jpg","P.jpg","0","1","0","",""
"","feedback","","html-keyboard-response","79","221844","0.0-1.0-96.0-0.0","0","0","92227","","null","","","null","10","","","","","","","","","","","","","","","",""
"","time_out","","html-keyboard-response","80","223847","0.0-1.0-98.0-0.0","0","0","92227","","null","","","null","10","","","","","","","","","","","","","","","",""
"","ITI","","html-keyboard-response","81","224851","0.0-1.0-99.0","0","0","92227","","null","","","null","10","","","","","","","","","","","","","","","NaN",""
"","S1","","html-keyboard-response","82","225104","0.0-1.0-101.0","0","0","92227","","null","","","null","11","","","","","","","","","","","","","","","",""
"","ISI","","html-keyboard-response","83","225606","0.0-1.0-102.0","0","0","92227","","336","","","75","11","k","","","","","","","","","","","","","","",""
"","S2","","html-keyboard-response","84","225860","0.0-1.0-103.0","0","0","92227","","null","","","null","11","","NaN","","","","","","","","","","","","","",""
"","response","","html-keyboard-response","85","226225","0.0-1.0-104.0-0.0","0","0","92227","","364","","","75","11","","","1","11","training","adjacent","FE","6","5","L.jpg","R.jpg","1","0","0","",""
"","feedback","","html-keyboard-response","86","227228","0.0-1.0-105.0-0.0","0","0","92227","","null","","","null","11","","","","","","","","","","","","","","","",""
"","time_out","","html-keyboard-response","87","229231","0.0-1.0-107.0-0.0","0","0","92227","","null","","","null","11","","","","","","","","","","","","","","","",""
"","ITI","","html-keyboard-response","88","230245","0.0-1.0-108.0","0","0","92227","","null","","","null","11","","","","","","","","","","","","","","","NaN",""
"","S1","","html-keyboard-response","89","230498","0.0-1.0-110.0","0","0","92227","","null","","","null","12","","","","","","","","","","","","","","","",""
"","ISI","","html-keyboard-response","90","231001","0.0-1.0-111.0","0","0","92227","","null","","","null","12","NaN","","","","","","","","","","","","","","",""
"","S2","","html-keyboard-response","91","231106","0.0-1.0-112.0","0","0","92227","","103","","","68","12","","d","1","12","training","adjacent","CD","3","4","Q.jpg","P.jpg","0","1","0","",""
"","feedback","","html-keyboard-response","92","232110","0.0-1.0-114.0-0.0","0","0","92227","","null","","","null","12","","","","","","","","","","","","","","","",""
"","time_out","","html-keyboard-response","93","234112","0.0-1.0-116.0-0.0","0","0","92227","","null","","","null","12","","","","","","","","","","","","","","","",""
"","ITI","","html-keyboard-response","94","235115","0.0-1.0-117.0","0","0","92227","","null","","","null","12","","","","","","","","","","","","","","","NaN",""
"","S1","","html-keyboard-response","95","235368","0.0-1.0-119.0","0","0","92227","","null","","","null","13","","","","","","","","","","","","","","","",""
"","ISI","","html-keyboard-response","96","235872","0.0-1.0-120.0","0","0","92227","","271","","","75","13","k","","","","","","","","","","","","","","",""
"","S2","","html-keyboard-response","97","236125","0.0-1.0-121.0","0","0","92227","","null","","","null","13","","NaN","","","","","","","","","","","","","",""
"","response","","html-keyboard-response","98","236545","0.0-1.0-122.0-0.0","0","0","92227","","417","","","75","13","","","1","13","training","adjacent","DE","4","5","P.jpg","R.jpg","1","1","1","",""
"","feedback","","html-keyboard-response","99","237548","0.0-1.0-123.0-0.0","0","0","92227","","null","","","null","13","","","","","","","","","","","","","","","",""
"","ITI","","html-keyboard-response","100","238552","0.0-1.0-126.0","0","0","92227","","null","","","null","13","","","","","","","","","","","","","","","NaN",""
"","S1","","html-keyboard-response","101","238805","0.0-1.0-128.0","0","0","92227","","null","","","null","14","","","","","","","","","","","","","","","",""
"","ISI","","html-keyboard-response","102","239307","0.0-1.0-129.0","0","0","92227","","null","","","null","14","NaN","","","","","","","","","","","","","","",""
"","S2","","html-keyboard-response","103","239560","0.0-1.0-130.0","0","0","92227","","null","","","null","14","","NaN","","","","","","","","","","","","","",""
"","response","","html-keyboard-response","104","239913","0.0-1.0-131.0-0.0","0","0","92227","","350","","","68","14","","","1","14","training","adjacent","AB","1","2","M.jpg","N.jpg","0","1","0","",""
"","feedback","","html-keyboard-response","105","240916","0.0-1.0-132.0-0.0","0","0","92227","","null","","","null","14","","","","","","","","","","","","","","","",""
"","time_out","","html-keyboard-response","106","242919","0.0-1.0-134.0-0.0","0","0","92227","","null","","","null","14","","","","","","","","","","","","","","","",""
"","ITI","","html-keyboard-response","107","243922","0.0-1.0-135.0","0","0","92227","","null","","","null","14","","","","","","","","","","","","","","","NaN",""
"","S1","","html-keyboard-response","108","244174","0.0-1.0-137.0","0","0","92227","","null","","","null","15","","","","","","","","","","","","","","","",""
"","ISI","","html-keyboard-response","109","244677","0.0-1.0-138.0","0","0","92227","","null","","","null","15","NaN","","","","","","","","","","","","","","",""
"","S2","","html-keyboard-response","110","244930","0.0-1.0-139.0","0","0","92227","","null","","","null","15","","NaN","","","","","","","","","","","","","",""
"","response","","html-keyboard-response","111","245297","0.0-1.0-140.0-0.0","0","0","92227","","365","","","75","15","","","1","15","training","adjacent","DC","4","3","P.jpg","Q.jpg","1","0","0","",""
"","feedback","","html-keyboard-response","112","246301","0.0-1.0-141.0-0.0","0","0","92227","","null","","","null","15","","","","","","","","","","","","","","","",""
"","time_out","","html-keyboard-response","113","248303","0.0-1.0-143.0-0.0","0","0","92227","","null","","","null","15","","","","","","","","","","","","","","","",""
"","ITI","","html-keyboard-response","114","249307","0.0-1.0-144.0","0","0","92227","","null","","","null","15","","","","","","","","","","","","","","","NaN",""
"","S1","","html-keyboard-response","115","249560","0.0-1.0-146.0","0","0","92227","","null","","","null","16","","","","","","","","","","","","","","","",""
"","ISI","","html-keyboard-response","116","250063","0.0-1.0-147.0","0","0","92227","","494","","","75","16","k","","","","","","","","","","","","","","",""
"","S2","","html-keyboard-response","117","250316","0.0-1.0-148.0","0","0","92227","","null","","","null","16","","NaN","","","","","","","","","","","","","",""
"","response","","html-keyboard-response","118","250761","0.0-1.0-149.0-0.0","0","0","92227","","443","","","75","16","","","1","16","training","adjacent","FG","6","7","L.jpg","O.jpg","1","1","1","",""
"","feedback","","html-keyboard-response","119","251764","0.0-1.0-150.0-0.0","0","0","92227","","null","","","null","16","","","","","","","","","","","","","","","",""
"","ITI","","html-keyboard-response","120","252766","0.0-1.0-153.0","0","0","92227","","null","","","null","16","","","","","","","","","","","","","","","NaN",""
"","S1","","html-keyboard-response","121","253019","0.0-1.0-155.0","0","0","92227","","null","","","null","17","","","","","","","","","","","","","","","",""
"","ISI","","html-keyboard-response","122","253522","0.0-1.0-156.0","0","0","92227","","null","","","null","17","NaN","","","","","","","","","","","","","","",""
"","S2","","html-keyboard-response","123","253775","0.0-1.0-157.0","0","0","92227","","null","","","null","17","","NaN","","","","","","","","","","","","","",""
"","response","","html-keyboard-response","124","254305","0.0-1.0-158.0-0.0","0","0","92227","","528","","","75","17","","","1","17","training","adjacent","FE","6","5","L.jpg","R.jpg","1","0","0","",""
"","feedback","","html-keyboard-response","125","255308","0.0-1.0-159.0-0.0","0","0","92227","","null","","","null","17","","","","","","","","","","","","","","","",""
"","time_out","","html-keyboard-response","126","257311","0.0-1.0-161.0-0.0","0","0","92227","","null","","","null","17","","","","","","","","","","","","","","","",""
"","ITI","","html-keyboard-response","127","258322","0.0-1.0-162.0","0","0","92227","","null","","","null","17","","","","","","","","","","","","","","","NaN",""
"","S1","","html-keyboard-response","128","258575","0.0-1.0-164.0","0","0","92227","","null","","","null","18","","","","","","","","","","","","","","","",""
"","ISI","","html-keyboard-response","129","259077","0.0-1.0-165.0","0","0","92227","","null","","","null","18","NaN","","","","","","","","","","","","","","",""
"","S2","","html-keyboard-response","130","259330","0.0-1.0-166.0","0","0","92227","","null","","","null","18","","NaN","","","","","","","","","","","","","",""
"","response","","html-keyboard-response","131","259713","0.0-1.0-167.0-0.0","0","0","92227","","380","","","75","18","","","1","18","training","adjacent","FG","6","7","L.jpg","O.jpg","1","1","1","",""
"","feedback","","html-keyboard-response","132","260717","0.0-1.0-168.0-0.0","0","0","92227","","null","","","null","18","","","","","","","","","","","","","","","",""
"","ITI","","html-keyboard-response","133","261720","0.0-1.0-171.0","0","0","92227","","null","","","null","18","","","","","","","","","","","","","","","NaN",""
"","S1","","html-keyboard-response","134","261973","0.0-1.0-173.0","0","0","92227","","null","","","null","19","","","","","","","","","","","","","","","",""
"","ISI","","html-keyboard-response","135","262475","0.0-1.0-174.0","0","0","92227","","null","","","null","19","NaN","","","","","","","","","","","","","","",""
"","S2","","html-keyboard-response","136","262727","0.0-1.0-175.0","0","0","92227","","null","","","null","19","","NaN","","","","","","","","","","","","","",""
"","response","","html-keyboard-response","137","263073","0.0-1.0-176.0-0.0","0","0","92227","","343","","","75","19","","","1","19","training","adjacent","CD","3","4","Q.jpg","P.jpg","1","1","1","",""
"","feedback","","html-keyboard-response","138","264076","0.0-1.0-177.0-0.0","0","0","92227","","null","","","null","19","","","","","","","","","","","","","","","",""
"","ITI","","html-keyboard-response","139","265080","0.0-1.0-180.0","0","0","92227","","null","","","null","19","","","","","","","","","","","","","","","NaN",""
"","S1","","html-keyboard-response","140","265333","0.0-1.0-182.0","0","0","92227","","null","","","null","20","","","","","","","","","","","","","","","",""
"","ISI","","html-keyboard-response","141","265835","0.0-1.0-183.0","0","0","92227","","null","","","null","20","NaN","","","","","","","","","","","","","","",""
"","S2","","html-keyboard-response","142","266088","0.0-1.0-184.0","0","0","92227","","null","","","null","20","","NaN","","","","","","","","","","","","","",""
"","response","","html-keyboard-response","143","266705","0.0-1.0-185.0-0.0","0","0","92227","","614","","","75","20","","","1","20","training","adjacent","AB","1","2","M.jpg","N.jpg","1","1","1","",""
"","feedback","","html-keyboard-response","144","267709","0.0-1.0-186.0-0.0","0","0","92227","","null","","","null","20","","","","","","","","","","","","","","","",""
"","ITI","","html-keyboard-response","145","268712","0.0-1.0-189.0","0","0","92227","","null","","","null","20","","","","","","","","","","","","","","","NaN",""
"","S1","","html-keyboard-response","146","268964","0.0-1.0-191.0","0","0","92227","","null","","","null","21","","","","","","","","","","","","","","","",""
"","ISI","","html-keyboard-response","147","269466","0.0-1.0-192.0","0","0","92227","","null","","","null","21","NaN","","","","","","","","","","","","","","",""
"","S2","","html-keyboard-response","148","269731","0.0-1.0-193.0","0","0","92227","","null","","","null","21","","NaN","","","","","","","","","","","","","",""
"","response","","html-keyboard-response","149","270321","0.0-1.0-194.0-0.0","0","0","92227","","589","","","75","21","","","1","21","training","adjacent","GF","7","6","O.jpg","L.jpg","1","0","0","",""
"","feedback","","html-keyboard-response","150","271324","0.0-1.0-195.0-0.0","0","0","92227","","null","","","null","21","","","","","","","","","","","","","","","",""
"","time_out","","html-keyboard-response","151","273327","0.0-1.0-197.0-0.0","0","0","92227","","null","","","null","21","","","","","","","","","","","","","","","",""
"","ITI","","html-keyboard-response","152","274329","0.0-1.0-198.0","0","0","92227","","null","","","null","21","","","","","","","","","","","","","","","NaN",""
"","S1","","html-keyboard-response","153","274583","0.0-1.0-200.0","0","0","92227","","null","","","null","22","","","","","","","","","","","","","","","",""
"","ISI","","html-keyboard-response","154","275085","0.0-1.0-201.0","0","0","92227","","null","","","null","22","NaN","","","","","","","","","","","","","","",""
"","S2","","html-keyboard-response","155","275177","0.0-1.0-202.0","0","0","92227","","89","","","75","22","","k","1","22","training","adjacent","EF","5","6","R.jpg","L.jpg","1","1","1","",""
"","feedback","","html-keyboard-response","156","276181","0.0-1.0-204.0-0.0","0","0","92227","","null","","","null","22","","","","","","","","","","","","","","","",""
"","ITI","","html-keyboard-response","157","277184","0.0-1.0-207.0","0","0","92227","","null","","","null","22","","","","","","","","","","","","","","","NaN",""
"","S1","","html-keyboard-response","158","277437","0.0-1.0-209.0","0","0","92227","","null","","","null","23","","","","","","","","","","","","","","","",""
"","ISI","","html-keyboard-response","159","277940","0.0-1.0-210.0","0","0","92227","","null","","","null","23","NaN","","","","","","","","","","","","","","",""
"","S2","","html-keyboard-response","160","278193","0.0-1.0-211.0","0","0","92227","","null","","","null","23","","NaN","","","","","","","","","","","","","",""
"","response","","html-keyboard-response","161","278905","0.0-1.0-212.0-0.0","0","0","92227","","709","","","75","23","","","1","23","training","adjacent","ED","5","4","R.jpg","P.jpg","1","0","0","",""
"","feedback","","html-keyboard-response","162","279908","0.0-1.0-213.0-0.0","0","0","92227","","null","","","null","23","","","","","","","","","","","","","","","",""
"","time_out","","html-keyboard-response","163","281911","0.0-1.0-215.0-0.0","0","0","92227","","null","","","null","23","","","","","","","","","","","","","","","",""
"","ITI","","html-keyboard-response","164","282914","0.0-1.0-216.0","0","0","92227","","null","","","null","23","","","","","","","","","","","","","","","NaN",""
"","S1","","html-keyboard-response","165","283166","0.0-1.0-218.0","0","0","92227","","null","","","null","24","","","","","","","","","","","","","","","",""
"","ISI","","html-keyboard-response","166","283669","0.0-1.0-219.0","0","0","92227","","null","","","null","24","NaN","","","","","","","","","","","","","","",""
"","S2","","html-keyboard-response","167","283923","0.0-1.0-220.0","0","0","92227","","null","","","null","24","","NaN","","","","","","","","","","","","","",""
"","response","","html-keyboard-response","168","284489","0.0-1.0-221.0-0.0","0","0","92227","","564","","","75","24","","","1","24","training","adjacent","EF","5","6","R.jpg","L.jpg","1","1","1","",""
"","feedback","","html-keyboard-response","169","285491","0.0-1.0-222.0-0.0","0","0","92227","","null","","","null","24","","","","","","","","","","","","","","","",""
"","ITI","","html-keyboard-response","170","286494","0.0-1.0-225.0","0","0","92227","","null","","","null","24","","","","","","","","","","","","","","","NaN",""
"","S1","","html-keyboard-response","171","286748","0.0-1.0-227.0","0","0","92227","","null","","","null","25","","","","","","","","","","","","","","","",""
"","ISI","","html-keyboard-response","172","287258","0.0-1.0-228.0","0","0","92227","","null","","","null","25","NaN","","","","","","","","","","","","","","",""
"","S2","","html-keyboard-response","173","287512","0.0-1.0-229.0","0","0","92227","","null","","","null","25","","NaN","","","","","","","","","","","","","",""
"","response","","html-keyboard-response","174","287985","0.0-1.0-230.0-0.0","0","0","92227","","471","","","75","25","","","1","25","training","adjacent","GF","7","6","O.jpg","L.jpg","1","0","0","",""
"","feedback","","html-keyboard-response","175","288988","0.0-1.0-231.0-0.0","0","0","92227","","null","","","null","25","","","","","","","","","","","","","","","",""
"","time_out","","html-keyboard-response","176","290991","0.0-1.0-233.0-0.0","0","0","92227","","null","","","null","25","","","","","","","","","","","","","","","",""
"","ITI","","html-keyboard-response","177","291993","0.0-1.0-234.0","0","0","92227","","null","","","null","25","","","","","","","","","","","","","","","NaN",""
"","S1","","html-keyboard-response","178","292247","0.0-1.0-236.0","0","0","92227","","null","","","null","26","","","","","","","","","","","","","","","",""
"","ISI","","html-keyboard-response","179","292749","0.0-1.0-237.0","0","0","92227","","null","","","null","26","NaN","","","","","","","","","","","","","","",""
"","S2","","html-keyboard-response","180","293003","0.0-1.0-238.0","0","0","92227","","null","","","null","26","","NaN","","","","","","","","","","","","","",""
"","response","","html-keyboard-response","181","293240","0.0-1.0-239.0-0.0","0","0","92227","","235","","","75","26","","","1","26","training","adjacent","BC","2","3","N.jpg","Q.jpg","1","1","1","",""
"","feedback","","html-keyboard-response","182","294244","0.0-1.0-240.0-0.0","0","0","92227","","null","","","null","26","","","","","","","","","","","","","","","",""
"","ITI","","html-keyboard-response","183","295247","0.0-1.0-243.0","0","0","92227","","null","","","null","26","","","","","","","","","","","","","","","NaN",""
"","S1","","html-keyboard-response","184","295514","0.0-1.0-245.0","0","0","92227","","null","","","null","27","","","","","","","","","","","","","","","",""
"","ISI","","html-keyboard-response","185","296016","0.0-1.0-246.0","0","0","92227","","null","","","null","27","NaN","","","","","","","","","","","","","","",""
"","S2","","html-keyboard-response","186","296269","0.0-1.0-247.0","0","0","92227","","null","","","null","27","","NaN","","","","","","","","","","","","","",""
"","response","","html-keyboard-response","187","296521","0.0-1.0-248.0-0.0","0","0","92227","","249","","","75","27","","","1","27","training","adjacent","FG","6","7","L.jpg","O.jpg","1","1","1","",""
"","feedback","","html-keyboard-response","188","297530","0.0-1.0-249.0-0.0","0","0","92227","","null","","","null","27","","","","","","","","","","","","","","","",""
"","ITI","","html-keyboard-response","189","298532","0.0-1.0-252.0","0","0","92227","","null","","","null","27","","","","","","","","","","","","","","","NaN",""
"","S1","","html-keyboard-response","190","298785","0.0-1.0-254.0","0","0","92227","","null","","","null","28","","","","","","","","","","","","","","","",""
"","ISI","","html-keyboard-response","191","299287","0.0-1.0-255.0","0","0","92227","","null","","","null","28","NaN","","","","","","","","","","","","","","",""
"","S2","","html-keyboard-response","192","299539","0.0-1.0-256.0","0","0","92227","","null","","","null","28","","NaN","","","","","","","","","","","","","",""
"","response","","html-keyboard-response","193","300568","0.0-1.0-257.0-0.0","0","0","92227","","1027","","","75","28","","","1","28","training","adjacent","BA","2","1","N.jpg","M.jpg","1","0","0","",""
"","feedback","","html-keyboard-response","194","301571","0.0-1.0-258.0-0.0","0","0","92227","","null","","","null","28","","","","","","","","","","","","","","","",""
"","time_out","","html-keyboard-response","195","303574","0.0-1.0-260.0-0.0","0","0","92227","","null","","","null","28","","","","","","","","","","","","","","","",""
"","ITI","","html-keyboard-response","196","304577","0.0-1.0-261.0","0","0","92227","","null","","","null","28","","","","","","","","","","","","","","","NaN",""
"","S1","","html-keyboard-response","197","304829","0.0-1.0-263.0","0","0","92227","","null","","","null","29","","","","","","","","","","","","","","","",""
"","ISI","","html-keyboard-response","198","305332","0.0-1.0-264.0","0","0","92227","","null","","","null","29","NaN","","","","","","","","","","","","","","",""
"","S2","","html-keyboard-response","199","305352","0.0-1.0-265.0","0","0","92227","","19","","","75","29","","k","1","29","training","adjacent","DE","4","5","P.jpg","R.jpg","1","1","1","",""
"","feedback","","html-keyboard-response","200","306356","0.0-1.0-267.0-0.0","0","0","92227","","null","","","null","29","","","","","","","","","","","","","","","",""
"","ITI","","html-keyboard-response","201","307359","0.0-1.0-270.0","0","0","92227","","null","","","null","29","","","","","","","","","","","","","","","NaN",""
"","S1","","html-keyboard-response","202","307612","0.0-1.0-272.0","0","0","92227","","null","","","null","30","","","","","","","","","","","","","","","",""
"","ISI","","html-keyboard-response","203","308115","0.0-1.0-273.0","0","0","92227","","null","","","null","30","NaN","","","","","","","","","","","","","","",""
"","S2","","html-keyboard-response","204","308367","0.0-1.0-274.0","0","0","92227","","null","","","null","30","","NaN","","","","","","","","","","","","","",""
"","response","","html-keyboard-response","205","308664","0.0-1.0-275.0-0.0","0","0","92227","","295","","","75","30","","","1","30","training","adjacent","AB","1","2","M.jpg","N.jpg","1","1","1","",""
"","feedback","","html-keyboard-response","206","309668","0.0-1.0-276.0-0.0","0","0","92227","","null","","","null","30","","","","","","","","","","","","","","","",""
"","ITI","","html-keyboard-response","207","310672","0.0-1.0-279.0","0","0","92227","","null","","","null","30","","","","","","","","","","","","","","","NaN",""
"","S1","","html-keyboard-response","208","310924","0.0-1.0-281.0","0","0","92227","","null","","","null","31","","","","","","","","","","","","","","","",""
"","ISI","","html-keyboard-response","209","311427","0.0-1.0-282.0","0","0","92227","","null","","","null","31","NaN","","","","","","","","","","","","","","",""
"","S2","","html-keyboard-response","210","311679","0.0-1.0-283.0","0","0","92227","","null","","","null","31","","NaN","","","","","","","","","","","","","",""
"","response","","html-keyboard-response","211","311984","0.0-1.0-284.0-0.0","0","0","92227","","303","","","75","31","","","1","31","training","adjacent","BC","2","3","N.jpg","Q.jpg","1","1","1","",""
"","feedback","","html-keyboard-response","212","312988","0.0-1.0-285.0-0.0","0","0","92227","","null","","","null","31","","","","","","","","","","","","","","","",""
"","ITI","","html-keyboard-response","213","313991","0.0-1.0-288.0","0","0","92227","","null","","","null","31","","","","","","","","","","","","","","","NaN",""
"","S1","","html-keyboard-response","214","314244","0.0-1.0-290.0","0","0","92227","","null","","","null","32","","","","","","","","","","","","","","","",""
"","ISI","","html-keyboard-response","215","314747","0.0-1.0-291.0","0","0","92227","","null","","","null","32","NaN","","","","","","","","","","","","","","",""
"","S2","","html-keyboard-response","216","315001","0.0-1.0-292.0","0","0","92227","","null","","","null","32","","NaN","","","","","","","","","","","","","",""
"","response","","html-keyboard-response","217","315720","0.0-1.0-293.0-0.0","0","0","92227","","718","","","75","32","","","1","32","training","adjacent","CB","3","2","Q.jpg","N.jpg","1","0","0","",""
"","feedback","","html-keyboard-response","218","316723","0.0-1.0-294.0-0.0","0","0","92227","","null","","","null","32","","","","","","","","","","","","","","","",""
"","time_out","","html-keyboard-response","219","318726","0.0-1.0-296.0-0.0","0","0","92227","","null","","","null","32","","","","","","","","","","","","","","","",""
"","ITI","","html-keyboard-response","220","319728","0.0-1.0-297.0","0","0","92227","","null","","","null","32","","","","","","","","","","","","","","","NaN",""
"","S1","","html-keyboard-response","221","319982","0.0-1.0-299.0","0","0","92227","","null","","","null","33","","","","","","","","","","","","","","","",""
"","ISI","","html-keyboard-response","222","320485","0.0-1.0-300.0","0","0","92227","","233","","","75","33","k","","","","","","","","","","","","","","",""
"","S2","","html-keyboard-response","223","320738","0.0-1.0-301.0","0","0","92227","","null","","","null","33","","NaN","","","","","","","","","","","","","",""
"","response","","html-keyboard-response","224","320816","0.0-1.0-302.0-0.0","0","0","92227","","77","","","75","33","","","1","33","training","adjacent","DE","4","5","P.jpg","R.jpg","1","1","1","",""
"","feedback","","html-keyboard-response","225","321819","0.0-1.0-303.0-0.0","0","0","92227","","null","","","null","33","","","","","","","","","","","","","","","",""
"","ITI","","html-keyboard-response","226","322822","0.0-1.0-306.0","0","0","92227","","null","","","null","33","","","","","","","","","","","","","","","NaN",""
"","S1","","html-keyboard-response","227","323074","0.0-1.0-308.0","0","0","92227","","null","","","null","34","","","","","","","","","","","","","","","",""
"","ISI","","html-keyboard-response","228","323576","0.0-1.0-309.0","0","0","92227","","null","","","null","34","NaN","","","","","","","","","","","","","","",""
"","S2","","html-keyboard-response","229","323831","0.0-1.0-310.0","0","0","92227","","null","","","null","34","","NaN","","","","","","","","","","","","","",""
"","response","","html-keyboard-response","230","325583","0.0-1.0-311.0-0.0","0","0","92227","","null","","","null","34","","","1","34","training","adjacent","DC","4","3","P.jpg","Q.jpg","NaN","0","0","",""
"","too_slow_prompt","","html-keyboard-response","231","326586","0.0-1.0-313.0-0.0","1","0","92227","","null","","","null","","","","","","","","","","","","","","","","",""
"","time_out","","html-keyboard-response","232","328589","0.0-1.0-314.0-0.0","0","0","92227","","null","","","null","34","","","","","","","","","","","","","","","",""
"","ITI","","html-keyboard-response","233","329592","0.0-1.0-315.0","0","0","92227","","null","","","null","34","","","","","","","","","","","","","","","NaN",""
"","S1","","html-keyboard-response","234","329844","0.0-1.0-317.0","0","0","92227","","null","","","null","35","","","","","","","","","","","","","","","",""
"","ISI","","html-keyboard-response","235","330347","0.0-1.0-318.0","0","0","92227","","null","","","null","35","NaN","","","","","","","","","","","","","","",""
"","S2","","html-keyboard-response","236","330601","0.0-1.0-319.0","0","0","92227","","null","","","null","35","","NaN","","","","","","","","","","","","","",""
"","response","","html-keyboard-response","237","330904","0.0-1.0-320.0-0.0","0","0","92227","","302","","","75","35","","","1","35","training","adjacent","BC","2","3","N.jpg","Q.jpg","1","1","1","",""
"","feedback","","html-keyboard-response","238","331908","0.0-1.0-321.0-0.0","0","0","92227","","null","","","null","35","","","","","","","","","","","","","","","",""
"","ITI","","html-keyboard-response","239","332910","0.0-1.0-324.0","0","0","92227","","null","","","null","35","","","","","","","","","","","","","","","NaN",""
"","S1","","html-keyboard-response","240","333163","0.0-1.0-326.0","0","0","92227","","null","","","null","36","","","","","","","","","","","","","","","",""
"","ISI","","html-keyboard-response","241","333665","0.0-1.0-327.0","0","0","92227","","null","","","null","36","NaN","","","","","","","","","","","","","","",""
"","S2","","html-keyboard-response","242","333919","0.0-1.0-328.0","0","0","92227","","null","","","null","36","","NaN","","","","","","","","","","","","","",""
"","response","","html-keyboard-response","243","334312","0.0-1.0-329.0-0.0","0","0","92227","","391","","","75","36","","","1","36","training","adjacent","EF","5","6","R.jpg","L.jpg","1","1","1","",""
"","feedback","","html-keyboard-response","244","335316","0.0-1.0-330.0-0.0","0","0","92227","","null","","","null","36","","","","","","","","","","","","","","","",""
"","ITI","","html-keyboard-response","245","336319","0.0-1.0-333.0","0","0","92227","","null","","","null","36","","","","","","","","","","","","","","","NaN",""
"","S1","","html-keyboard-response","246","336572","0.0-1.0-335.0","0","0","92227","","null","","","null","37","","","","","","","","","","","","","","","",""
"","ISI","","html-keyboard-response","247","337074","0.0-1.0-336.0","0","0","92227","","null","","","null","37","NaN","","","","","","","","","","","","","","",""
"","S2","","html-keyboard-response","248","337328","0.0-1.0-337.0","0","0","92227","","null","","","null","37","","NaN","","","","","","","","","","","","","",""
"","response","","html-keyboard-response","249","337488","0.0-1.0-338.0-0.0","0","0","92227","","159","","","75","37","","","1","37","training","adjacent","DC","4","3","P.jpg","Q.jpg","1","0","0","",""
"","feedback","","html-keyboard-response","250","338492","0.0-1.0-339.0-0.0","0","0","92227","","null","","","null","37","","","","","","","","","","","","","","","",""
"","time_out","","html-keyboard-response","251","340494","0.0-1.0-341.0-0.0","0","0","92227","","null","","","null","37","","","","","","","","","","","","","","","",""
"","ITI","","html-keyboard-response","252","341497","0.0-1.0-342.0","0","0","92227","","null","","","null","37","","","","","","","","","","","","","","","NaN",""
"","S1","","html-keyboard-response","253","341750","0.0-1.0-344.0","0","0","92227","","null","","","null","38","","","","","","","","","","","","","","","",""
"","ISI","","html-keyboard-response","254","342253","0.0-1.0-345.0","0","0","92227","","136","","","75","38","k","","","","","","","","","","","","","","",""
"","S2","","html-keyboard-response","255","342507","0.0-1.0-346.0","0","0","92227","","null","","","null","38","","NaN","","","","","","","","","","","","","",""
"","response","","html-keyboard-response","256","342640","0.0-1.0-347.0-0.0","0","0","92227","","132","","","75","38","","","1","38","training","adjacent","FG","6","7","L.jpg","O.jpg","1","1","1","",""
"","feedback","","html-keyboard-response","257","343643","0.0-1.0-348.0-0.0","0","0","92227","","null","","","null","38","","","","","","","","","","","","","","","",""
"","ITI","","html-keyboard-response","258","344645","0.0-1.0-351.0","0","0","92227","","null","","","null","38","","","","","","","","","","","","","","","NaN",""
"","S1","","html-keyboard-response","259","344898","0.0-1.0-353.0","0","0","92227","","null","","","null","39","","","","","","","","","","","","","","","",""
"","ISI","","html-keyboard-response","260","345400","0.0-1.0-354.0","0","0","92227","","null","","","null","39","NaN","","","","","","","","","","","","","","",""
"","S2","","html-keyboard-response","261","345653","0.0-1.0-355.0","0","0","92227","","null","","","null","39","","NaN","","","","","","","","","","","","","",""
"","response","","html-keyboard-response","262","347160","0.0-1.0-356.0-0.0","0","0","92227","","1505","","","75","39","","","1","39","training","adjacent","ED","5","4","R.jpg","P.jpg","1","0","0","",""
"","feedback","","html-keyboard-response","263","348163","0.0-1.0-357.0-0.0","0","0","92227","","null","","","null","39","","","","","","","","","","","","","","","",""
"","time_out","","html-keyboard-response","264","350165","0.0-1.0-359.0-0.0","0","0","92227","","null","","","null","39","","","","","","","","","","","","","","","",""
"","ITI","","html-keyboard-response","265","351168","0.0-1.0-360.0","0","0","92227","","null","","","null","39","","","","","","","","","","","","","","","NaN",""
"","S1","","html-keyboard-response","266","351421","0.0-1.0-362.0","0","0","92227","","null","","","null","40","","","","","","","","","","","","","","","",""
"","ISI","","html-keyboard-response","267","351924","0.0-1.0-363.0","0","0","92227","","153","","","75","40","k","","","","","","","","","","","","","","",""
"","S2","","html-keyboard-response","268","352152","0.0-1.0-364.0","0","0","92227","","226","","","75","40","","k","1","40","training","adjacent","GF","7","6","O.jpg","L.jpg","1","0","0","",""
"","feedback","","html-keyboard-response","269","353155","0.0-1.0-366.0-0.0","0","0","92227","","null","","","null","40","","","","","","","","","","","","","","","",""
"","time_out","","html-keyboard-response","270","355158","0.0-1.0-368.0-0.0","0","0","92227","","null","","","null","40","","","","","","","","","","","","","","","",""
"","ITI","","html-keyboard-response","271","356161","0.0-1.0-369.0","0","0","92227","","null","","","null","40","","","","","","","","","","","","","","","NaN",""
"","S1","","html-keyboard-response","272","356414","0.0-1.0-371.0","0","0","92227","","null","","","null","41","","","","","","","","","","","","","","","",""
"","ISI","","html-keyboard-response","273","356917","0.0-1.0-372.0","0","0","92227","","null","","","null","41","NaN","","","","","","","","","","","","","","",""
"","S2","","html-keyboard-response","274","357170","0.0-1.0-373.0","0","0","92227","","null","","","null","41","","NaN","","","","","","","","","","","","","",""
"","response","","html-keyboard-response","275","357696","0.0-1.0-374.0-0.0","0","0","92227","","525","","","75","41","","","1","41","training","adjacent","GF","7","6","O.jpg","L.jpg","1","0","0","",""
"","feedback","","html-keyboard-response","276","358699","0.0-1.0-375.0-0.0","0","0","92227","","null","","","null","41","","","","","","","","","","","","","","","",""
"","time_out","","html-keyboard-response","277","360702","0.0-1.0-377.0-0.0","0","0","92227","","null","","","null","41","","","","","","","","","","","","","","","",""
"","ITI","","html-keyboard-response","278","361704","0.0-1.0-378.0","0","0","92227","","null","","","null","41","","","","","","","","","","","","","","","NaN",""
"","S1","","html-keyboard-response","279","361957","0.0-1.0-380.0","0","0","92227","","null","","","null","42","","","","","","","","","","","","","","","",""
"","ISI","","html-keyboard-response","280","362460","0.0-1.0-381.0","0","0","92227","","null","","","null","42","NaN","","","","","","","","","","","","","","",""
"","S2","","html-keyboard-response","281","362712","0.0-1.0-382.0","0","0","92227","","null","","","null","42","","NaN","","","","","","","","","","","","","",""
"","response","","html-keyboard-response","282","363088","0.0-1.0-383.0-0.0","0","0","92227","","374","","","75","42","","","1","42","training","adjacent","CD","3","4","Q.jpg","P.jpg","1","1","1","",""
"","feedback","","html-keyboard-response","283","364092","0.0-1.0-384.0-0.0","0","0","92227","","null","","","null","42","","","","","","","","","","","","","","","",""
"","ITI","","html-keyboard-response","284","365095","0.0-1.0-387.0","0","0","92227","","null","","","null","42","","","","","","","","","","","","","","","NaN",""
"","S1","","html-keyboard-response","285","365349","0.0-1.0-389.0","0","0","92227","","null","","","null","43","","","","","","","","","","","","","","","",""
"","ISI","","html-keyboard-response","286","365853","0.0-1.0-390.0","0","0","92227","","null","","","null","43","NaN","","","","","","","","","","","","","","",""
"","S2","","html-keyboard-response","287","366105","0.0-1.0-391.0","0","0","92227","","null","","","null","43","","NaN","","","","","","","","","","","","","",""
"","response","","html-keyboard-response","288","367859","0.0-1.0-392.0-0.0","0","0","92227","","null","","","null","43","","","1","43","training","adjacent","BA","2","1","N.jpg","M.jpg","NaN","0","0","",""
"","too_slow_prompt","","html-keyboard-response","289","368864","0.0-1.0-394.0-0.0","1","0","92227","","null","","","null","","","","","","","","","","","","","","","","",""
"","time_out","","html-keyboard-response","290","370866","0.0-1.0-395.0-0.0","0","0","92227","","null","","","null","43","","","","","","","","","","","","","","","",""
"","ITI","","html-keyboard-response","291","371869","0.0-1.0-396.0","0","0","92227","","null","","","null","43","","","","","","","","","","","","","","","NaN",""
"","S1","","html-keyboard-response","292","372123","0.0-1.0-398.0","0","0","92227","","null","","","null","44","","","","","","","","","","","","","","","",""
"","ISI","","html-keyboard-response","293","372625","0.0-1.0-399.0","0","0","92227","","null","","","null","44","NaN","","","","","","","","","","","","","","",""
"","S2","","html-keyboard-response","294","372878","0.0-1.0-400.0","0","0","92227","","null","","","null","44","","NaN","","","","","","","","","","","","","",""
"","response","","html-keyboard-response","295","373272","0.0-1.0-401.0-0.0","0","0","92227","","391","","","75","44","","","1","44","training","adjacent","BA","2","1","N.jpg","M.jpg","1","0","0","",""
"","feedback","","html-keyboard-response","296","374275","0.0-1.0-402.0-0.0","0","0","92227","","null","","","null","44","","","","","","","","","","","","","","","",""
"","time_out","","html-keyboard-response","297","376278","0.0-1.0-404.0-0.0","0","0","92227","","null","","","null","44","","","","","","","","","","","","","","","",""
"","ITI","","html-keyboard-response","298","377281","0.0-1.0-405.0","0","0","92227","","null","","","null","44","","","","","","","","","","","","","","","NaN",""
"","S1","","html-keyboard-response","299","377534","0.0-1.0-407.0","0","0","92227","","null","","","null","45","","","","","","","","","","","","","","","",""
"","ISI","","html-keyboard-response","300","378036","0.0-1.0-408.0","0","0","92227","","null","","","null","45","NaN","","","","","","","","","","","","","","",""
"","S2","","html-keyboard-response","301","378294","0.0-1.0-409.0","0","0","92227","","null","","","null","45","","NaN","","","","","","","","","","","","","",""
"","response","","html-keyboard-response","302","378648","0.0-1.0-410.0-0.0","0","0","92227","","352","","","75","45","","","1","45","training","adjacent","DC","4","3","P.jpg","Q.jpg","1","0","0","",""
"","feedback","","html-keyboard-response","303","379651","0.0-1.0-411.0-0.0","0","0","92227","","null","","","null","45","","","","","","","","","","","","","","","",""
"","time_out","","html-keyboard-response","304","381655","0.0-1.0-413.0-0.0","0","0","92227","","null","","","null","45","","","","","","","","","","","","","","","",""
"","ITI","","html-keyboard-response","305","382657","0.0-1.0-414.0","0","0","92227","","null","","","null","45","","","","","","","","","","","","","","","NaN",""
"","S1","","html-keyboard-response","306","382909","0.0-1.0-416.0","0","0","92227","","null","","","null","46","","","","","","","","","","","","","","","",""
"","ISI","","html-keyboard-response","307","383412","0.0-1.0-417.0","0","0","92227","","null","","","null","46","NaN","","","","","","","","","","","","","","",""
"","S2","","html-keyboard-response","308","383665","0.0-1.0-418.0","0","0","92227","","null","","","null","46","","NaN","","","","","","","","","","","","","",""
"","response","","html-keyboard-response","309","385419","0.0-1.0-419.0-0.0","0","0","92227","","null","","","null","46","","","1","46","training","adjacent","AB","1","2","M.jpg","N.jpg","NaN","1","0","",""
"","too_slow_prompt","","html-keyboard-response","310","386425","0.0-1.0-421.0-0.0","1","0","92227","","null","","","null","","","","","","","","","","","","","","","","",""
"","time_out","","html-keyboard-response","311","388428","0.0-1.0-422.0-0.0","0","0","92227","","null","","","null","46","","","","","","","","","","","","","","","",""
"","ITI","","html-keyboard-response","312","389431","0.0-1.0-423.0","0","0","92227","","null","","","null","46","","","","","","","","","","","","","","","NaN",""
"","S1","","html-keyboard-response","313","389684","0.0-1.0-425.0","0","0","92227","","null","","","null","47","","","","","","","","","","","","","","","",""
"","ISI","","html-keyboard-response","314","390186","0.0-1.0-426.0","0","0","92227","","null","","","null","47","NaN","","","","","","","","","","","","","","",""
"","S2","","html-keyboard-response","315","390439","0.0-1.0-427.0","0","0","92227","","null","","","null","47","","NaN","","","","","","","","","","","","","",""
"","response","","html-keyboard-response","316","390872","0.0-1.0-428.0-0.0","0","0","92227","","430","","","75","47","","","1","47","training","adjacent","CB","3","2","Q.jpg","N.jpg","1","0","0","",""
"","feedback","","html-keyboard-response","317","391875","0.0-1.0-429.0-0.0","0","0","92227","","null","","","null","47","","","","","","","","","","","","","","","",""
"","time_out","","html-keyboard-response","318","393878","0.0-1.0-431.0-0.0","0","0","92227","","null","","","null","47","","","","","","","","","","","","","","","",""
"","ITI","","html-keyboard-response","319","394882","0.0-1.0-432.0","0","0","92227","","null","","","null","47","","","","","","","","","","","","","","","NaN",""
"","block_over","","html-keyboard-response","320","401168","0.0-1.0-433.0-0.0","0","0","92227","","6283","","","32","47","","","","","","","","","","","","","","","",""
"","S1","","html-keyboard-response","321","401420","0.0-1.0-434.0","0","0","92227","","null","","","null","48","","","","","","","","","","","","","","","",""
"","ISI","","html-keyboard-response","322","401923","0.0-1.0-435.0","0","0","92227","","null","","","null","48","NaN","","","","","","","","","","","","","","",""
"","S2","","html-keyboard-response","323","402176","0.0-1.0-436.0","0","0","92227","","null","","","null","48","","NaN","","","","","","","","","","","","","",""
"","response","","html-keyboard-response","324","402711","0.0-1.0-437.0-0.0","0","0","92227","","533","","","68","48","","","2","48","training","adjacent","ED","5","4","R.jpg","P.jpg","0","0","1","",""
"","feedback","","html-keyboard-response","325","403714","0.0-1.0-438.0-0.0","0","0","92227","","null","","","null","48","","","","","","","","","","","","","","","",""
"","ITI","","html-keyboard-response","326","404717","0.0-1.0-441.0","0","0","92227","","null","","","null","48","","","","","","","","","","","","","","","NaN",""
"","S1","","html-keyboard-response","327","404971","0.0-1.0-443.0","0","0","92227","","null","","","null","49","","","","","","","","","","","","","","","",""
"","ISI","","html-keyboard-response","328","405473","0.0-1.0-444.0","0","0","92227","","null","","","null","49","NaN","","","","","","","","","","","","","","",""
"","S2","","html-keyboard-response","329","405725","0.0-1.0-445.0","0","0","92227","","null","","","null","49","","NaN","","","","","","","","","","","","","",""
"","response","","html-keyboard-response","330","406368","0.0-1.0-446.0-0.0","0","0","92227","","640","","","75","49","","","2","49","training","adjacent","FE","6","5","L.jpg","R.jpg","1","0","0","",""
"","feedback","","html-keyboard-response","331","407372","0.0-1.0-447.0-0.0","0","0","92227","","null","","","null","49","","","","","","","","","","","","","","","",""
"","time_out","","html-keyboard-response","332","409375","0.0-1.0-449.0-0.0","0","0","92227","","null","","","null","49","","","","","","","","","","","","","","","",""
"","ITI","","html-keyboard-response","333","410377","0.0-1.0-450.0","0","0","92227","","null","","","null","49","","","","","","","","","","","","","","","NaN",""
"","S1","","html-keyboard-response","334","410632","0.0-1.0-452.0","0","0","92227","","null","","","null","50","","","","","","","","","","","","","","","",""
"","ISI","","html-keyboard-response","335","411134","0.0-1.0-453.0","0","0","92227","","null","","","null","50","NaN","","","","","","","","","","","","","","",""
"","S2","","html-keyboard-response","336","411386","0.0-1.0-454.0","0","0","92227","","null","","","null","50","","NaN","","","","","","","","","","","","","",""
"","response","","html-keyboard-response","337","411856","0.0-1.0-455.0-0.0","0","0","92227","","467","","","75","50","","","2","50","training","adjacent","BA","2","1","N.jpg","M.jpg","1","0","0","",""
"","feedback","","html-keyboard-response","338","412859","0.0-1.0-456.0-0.0","0","0","92227","","null","","","null","50","","","","","","","","","","","","","","","",""
"","time_out","","html-keyboard-response","339","414863","0.0-1.0-458.0-0.0","0","0","92227","","null","","","null","50","","","","","","","","","","","","","","","",""
"","ITI","","html-keyboard-response","340","415865","0.0-1.0-459.0","0","0","92227","","null","","","null","50","","","","","","","","","","","","","","","NaN",""
"","S1","","html-keyboard-response","341","416119","0.0-1.0-461.0","0","0","92227","","null","","","null","51","","","","","","","","","","","","","","","",""
"","ISI","","html-keyboard-response","342","416622","0.0-1.0-462.0","0","0","92227","","null","","","null","51","NaN","","","","","","","","","","","","","","",""
"","S2","","html-keyboard-response","343","416875","0.0-1.0-463.0","0","0","92227","","null","","","null","51","","NaN","","","","","","","","","","","","","",""
"","response","","html-keyboard-response","344","417255","0.0-1.0-464.0-0.0","0","0","92227","","378","","","68","51","","","2","51","training","adjacent","BC","2","3","N.jpg","Q.jpg","0","1","0","",""
"","feedback","","html-keyboard-response","345","418259","0.0-1.0-465.0-0.0","0","0","92227","","null","","","null","51","","","","","","","","","","","","","","","",""
"","time_out","","html-keyboard-response","346","420262","0.0-1.0-467.0-0.0","0","0","92227","","null","","","null","51","","","","","","","","","","","","","","","",""
"","ITI","","html-keyboard-response","347","421265","0.0-1.0-468.0","0","0","92227","","null","","","null","51","","","","","","","","","","","","","","","NaN",""
"","S1","","html-keyboard-response","348","421518","0.0-1.0-470.0","0","0","92227","","null","","","null","52","","","","","","","","","","","","","","","",""
"","ISI","","html-keyboard-response","349","422021","0.0-1.0-471.0","0","0","92227","","null","","","null","52","NaN","","","","","","","","","","","","","","",""
"","S2","","html-keyboard-response","350","422274","0.0-1.0-472.0","0","0","92227","","null","","","null","52","","NaN","","","","","","","","","","","","","",""
"","response","","html-keyboard-response","351","422656","0.0-1.0-473.0-0.0","0","0","92227","","379","","","68","52","","","2","52","training","adjacent","FE","6","5","L.jpg","R.jpg","0","0","1","",""
"","feedback","","html-keyboard-response","352","423661","0.0-1.0-474.0-0.0","0","0","92227","","null","","","null","52","","","","","","","","","","","","","","","",""
"","ITI","","html-keyboard-response","353","424664","0.0-1.0-477.0","0","0","92227","","null","","","null","52","","","","","","","","","","","","","","","NaN",""
"","S1","","html-keyboard-response","354","424917","0.0-1.0-479.0","0","0","92227","","null","","","null","53","","","","","","","","","","","","","","","",""
"","ISI","","html-keyboard-response","355","425419","0.0-1.0-480.0","0","0","92227","","null","","","null","53","NaN","","","","","","","","","","","","","","",""
"","S2","","html-keyboard-response","356","425673","0.0-1.0-481.0","0","0","92227","","null","","","null","53","","NaN","","","","","","","","","","","","","",""
"","response","","html-keyboard-response","357","426111","0.0-1.0-482.0-0.0","0","0","92227","","436","","","75","53","","","2","53","training","adjacent","EF","5","6","R.jpg","L.jpg","1","1","1","",""
"","feedback","","html-keyboard-response","358","427115","0.0-1.0-483.0-0.0","0","0","92227","","null","","","null","53","","","","","","","","","","","","","","","",""
"","ITI","","html-keyboard-response","359","428118","0.0-1.0-486.0","0","0","92227","","null","","","null","53","","","","","","","","","","","","","","","NaN",""
"","S1","","html-keyboard-response","360","428372","0.0-1.0-488.0","0","0","92227","","null","","","null","54","","","","","","","","","","","","","","","",""
"","ISI","","html-keyboard-response","361","428874","0.0-1.0-489.0","0","0","92227","","null","","","null","54","NaN","","","","","","","","","","","","","","",""
"","S2","","html-keyboard-response","362","429127","0.0-1.0-490.0","0","0","92227","","null","","","null","54","","NaN","","","","","","","","","","","","","",""
"","response","","html-keyboard-response","363","429751","0.0-1.0-491.0-0.0","0","0","92227","","622","","","75","54","","","2","54","training","adjacent","BC","2","3","N.jpg","Q.jpg","1","1","1","",""
"","feedback","","html-keyboard-response","364","430754","0.0-1.0-492.0-0.0","0","0","92227","","null","","","null","54","","","","","","","","","","","","","","","",""
"","ITI","","html-keyboard-response","365","431763","0.0-1.0-495.0","0","0","92227","","null","","","null","54","","","","","","","","","","","","","","","NaN",""
"","S1","","html-keyboard-response","366","432016","0.0-1.0-497.0","0","0","92227","","null","","","null","55","","","","","","","","","","","","","","","",""
"","ISI","","html-keyboard-response","367","432518","0.0-1.0-498.0","0","0","92227","","null","","","null","55","NaN","","","","","","","","","","","","","","",""
"","S2","","html-keyboard-response","368","432771","0.0-1.0-499.0","0","0","92227","","null","","","null","55","","NaN","","","","","","","","","","","","","",""
"","response","","html-keyboard-response","369","433296","0.0-1.0-500.0-0.0","0","0","92227","","522","","","75","55","","","2","55","training","adjacent","DC","4","3","P.jpg","Q.jpg","1","0","0","",""
"","feedback","","html-keyboard-response","370","434299","0.0-1.0-501.0-0.0","0","0","92227","","null","","","null","55","","","","","","","","","","","","","","","",""
"","time_out","","html-keyboard-response","371","436303","0.0-1.0-503.0-0.0","0","0","92227","","null","","","null","55","","","","","","","","","","","","","","","",""
"","ITI","","html-keyboard-response","372","437306","0.0-1.0-504.0","0","0","92227","","null","","","null","55","","","","","","","","","","","","","","","NaN",""
"","S1","","html-keyboard-response","373","437567","0.0-1.0-506.0","0","0","92227","","null","","","null","56","","","","","","","","","","","","","","","",""
"","ISI","","html-keyboard-response","374","438069","0.0-1.0-507.0","0","0","92227","","null","","","null","56","NaN","","","","","","","","","","","","","","",""
"","S2","","html-keyboard-response","375","438329","0.0-1.0-508.0","0","0","92227","","null","","","null","56","","NaN","","","","","","","","","","","","","",""
"","response","","html-keyboard-response","376","438423","0.0-1.0-509.0-0.0","0","0","92227","","92","","","68","56","","","2","56","training","adjacent","CD","3","4","Q.jpg","P.jpg","0","1","0","",""
"","feedback","","html-keyboard-response","377","439441","0.0-1.0-510.0-0.0","0","0","92227","","null","","","null","56","","","","","","","","","","","","","","","",""
"","time_out","","html-keyboard-response","378","441443","0.0-1.0-512.0-0.0","0","0","92227","","null","","","null","56","","","","","","","","","","","","","","","",""
"","ITI","","html-keyboard-response","379","442445","0.0-1.0-513.0","0","0","92227","","null","","","null","56","","","","","","","","","","","","","","","NaN",""
"","S1","","html-keyboard-response","380","442698","0.0-1.0-515.0","0","0","92227","","null","","","null","57","","","","","","","","","","","","","","","",""
"","ISI","","html-keyboard-response","381","443201","0.0-1.0-516.0","0","0","92227","","null","","","null","57","NaN","","","","","","","","","","","","","","",""
"","S2","","html-keyboard-response","382","443454","0.0-1.0-517.0","0","0","92227","","null","","","null","57","","NaN","","","","","","","","","","","","","",""
"","response","","html-keyboard-response","383","443513","0.0-1.0-518.0-0.0","0","0","92227","","56","","","75","57","","","2","57","training","adjacent","FG","6","7","L.jpg","O.jpg","1","1","1","",""
"","feedback","","html-keyboard-response","384","444516","0.0-1.0-519.0-0.0","0","0","92227","","null","","","null","57","","","","","","","","","","","","","","","",""
"","ITI","","html-keyboard-response","385","445519","0.0-1.0-522.0","0","0","92227","","null","","","null","57","","","","","","","","","","","","","","","NaN",""
"","S1","","html-keyboard-response","386","445774","0.0-1.0-524.0","0","0","92227","","null","","","null","58","","","","","","","","","","","","","","","",""
"","ISI","","html-keyboard-response","387","446277","0.0-1.0-525.0","0","0","92227","","null","","","null","58","NaN","","","","","","","","","","","","","","",""
"","S2","","html-keyboard-response","388","446531","0.0-1.0-526.0","0","0","92227","","null","","","null","58","","NaN","","","","","","","","","","","","","",""
"","response","","html-keyboard-response","389","447233","0.0-1.0-527.0-0.0","0","0","92227","","700","","","75","58","","","2","58","training","adjacent","FE","6","5","L.jpg","R.jpg","1","0","0","",""
"","feedback","","html-keyboard-response","390","448236","0.0-1.0-528.0-0.0","0","0","92227","","null","","","null","58","","","","","","","","","","","","","","","",""
"","time_out","","html-keyboard-response","391","450239","0.0-1.0-530.0-0.0","0","0","92227","","null","","","null","58","","","","","","","","","","","","","","","",""
"","ITI","","html-keyboard-response","392","451243","0.0-1.0-531.0","0","0","92227","","null","","","null","58","","","","","","","","","","","","","","","NaN",""
"","S1","","html-keyboard-response","393","451497","0.0-1.0-533.0","0","0","92227","","null","","","null","59","","","","","","","","","","","","","","","",""
"","ISI","","html-keyboard-response","394","451999","0.0-1.0-534.0","0","0","92227","","null","","","null","59","NaN","","","","","","","","","","","","","","",""
"","S2","","html-keyboard-response","395","452253","0.0-1.0-535.0","0","0","92227","","null","","","null","59","","NaN","","","","","","","","","","","","","",""
"","response","","html-keyboard-response","396","452567","0.0-1.0-536.0-0.0","0","0","92227","","312","","","75","59","","","2","59","training","adjacent","EF","5","6","R.jpg","L.jpg","1","1","1","",""
"","feedback","","html-keyboard-response","397","453571","0.0-1.0-537.0-0.0","0","0","92227","","null","","","null","59","","","","","","","","","","","","","","","",""
"","ITI","","html-keyboard-response","398","454574","0.0-1.0-540.0","0","0","92227","","null","","","null","59","","","","","","","","","","","","","","","NaN",""
"","S1","","html-keyboard-response","399","454827","0.0-1.0-542.0","0","0","92227","","null","","","null","60","","","","","","","","","","","","","","","",""
"","ISI","","html-keyboard-response","400","455331","0.0-1.0-543.0","0","0","92227","","null","","","null","60","NaN","","","","","","","","","","","","","","",""
"","S2","","html-keyboard-response","401","455584","0.0-1.0-544.0","0","0","92227","","null","","","null","60","","NaN","","","","","","","","","","","","","",""
"","response","","html-keyboard-response","402","456152","0.0-1.0-545.0-0.0","0","0","92227","","565","","","68","60","","","2","60","training","adjacent","CD","3","4","Q.jpg","P.jpg","0","1","0","",""
"","feedback","","html-keyboard-response","403","457155","0.0-1.0-546.0-0.0","0","0","92227","","null","","","null","60","","","","","","","","","","","","","","","",""
"","time_out","","html-keyboard-response","404","459158","0.0-1.0-548.0-0.0","0","0","92227","","null","","","null","60","","","","","","","","","","","","","","","",""
"","ITI","","html-keyboard-response","405","460160","0.0-1.0-549.0","0","0","92227","","null","","","null","60","","","","","","","","","","","","","","","NaN",""
"","S1","","html-keyboard-response","406","460413","0.0-1.0-551.0","0","0","92227","","null","","","null","61","","","","","","","","","","","","","","","",""
"","ISI","","html-keyboard-response","407","460916","0.0-1.0-552.0","0","0","92227","","null","","","null","61","NaN","","","","","","","","","","","","","","",""
"","S2","","html-keyboard-response","408","461170","0.0-1.0-553.0","0","0","92227","","null","","","null","61","","NaN","","","","","","","","","","","","","",""
"","response","","html-keyboard-response","409","461463","0.0-1.0-554.0-0.0","0","0","92227","","291","","","75","61","","","2","61","training","adjacent","CB","3","2","Q.jpg","N.jpg","1","0","0","",""
"","feedback","","html-keyboard-response","410","462467","0.0-1.0-555.0-0.0","0","0","92227","","null","","","null","61","","","","","","","","","","","","","","","",""
"","time_out","","html-keyboard-response","411","464469","0.0-1.0-557.0-0.0","0","0","92227","","null","","","null","61","","","","","","","","","","","","","","","",""
"","ITI","","html-keyboard-response","412","465473","0.0-1.0-558.0","0","0","92227","","null","","","null","61","","","","","","","","","","","","","","","NaN",""
"","S1","","html-keyboard-response","413","465726","0.0-1.0-560.0","0","0","92227","","null","","","null","62","","","","","","","","","","","","","","","",""
"","ISI","","html-keyboard-response","414","466229","0.0-1.0-561.0","0","0","92227","","null","","","null","62","NaN","","","","","","","","","","","","","","",""
"","S2","","html-keyboard-response","415","466483","0.0-1.0-562.0","0","0","92227","","null","","","null","62","","NaN","","","","","","","","","","","","","",""
"","response","","html-keyboard-response","416","466655","0.0-1.0-563.0-0.0","0","0","92227","","170","","","75","62","","","2","62","training","adjacent","AB","1","2","M.jpg","N.jpg","1","1","1","",""
"","feedback","","html-keyboard-response","417","467659","0.0-1.0-564.0-0.0","0","0","92227","","null","","","null","62","","","","","","","","","","","","","","","",""
"","ITI","","html-keyboard-response","418","468662","0.0-1.0-567.0","0","0","92227","","null","","","null","62","","","","","","","","","","","","","","","NaN",""
"","S1","","html-keyboard-response","419","468915","0.0-1.0-569.0","0","0","92227","","null","","","null","63","","","","","","","","","","","","","","","",""
"","ISI","","html-keyboard-response","420","469417","0.0-1.0-570.0","0","0","92227","","null","","","null","63","NaN","","","","","","","","","","","","","","",""
"","S2","","html-keyboard-response","421","469671","0.0-1.0-571.0","0","0","92227","","null","","","null","63","","NaN","","","","","","","","","","","","","",""
"","response","","html-keyboard-response","422","470183","0.0-1.0-572.0-0.0","0","0","92227","","510","","","75","63","","","2","63","training","adjacent","CB","3","2","Q.jpg","N.jpg","1","0","0","",""
"","feedback","","html-keyboard-response","423","471187","0.0-1.0-573.0-0.0","0","0","92227","","null","","","null","63","","","","","","","","","","","","","","","",""
"","time_out","","html-keyboard-response","424","473190","0.0-1.0-575.0-0.0","0","0","92227","","null","","","null","63","","","","","","","","","","","","","","","",""
"","ITI","","html-keyboard-response","425","474192","0.0-1.0-576.0","0","0","92227","","null","","","null","63","","","","","","","","","","","","","","","NaN",""
"","S1","","html-keyboard-response","426","474445","0.0-1.0-578.0","0","0","92227","","null","","","null","64","","","","","","","","","","","","","","","",""
"","ISI","","html-keyboard-response","427","474947","0.0-1.0-579.0","0","0","92227","","null","","","null","64","NaN","","","","","","","","","","","","","","",""
"","S2","","html-keyboard-response","428","475201","0.0-1.0-580.0","0","0","92227","","null","","","null","64","","NaN","","","","","","","","","","","","","",""
"","response","","html-keyboard-response","429","475591","0.0-1.0-581.0-0.0","0","0","92227","","388","","","68","64","","","2","64","training","adjacent","DE","4","5","P.jpg","R.jpg","0","1","0","",""
"","feedback","","html-keyboard-response","430","476595","0.0-1.0-582.0-0.0","0","0","92227","","null","","","null","64","","","","","","","","","","","","","","","",""
"","time_out","","html-keyboard-response","431","478597","0.0-1.0-584.0-0.0","0","0","92227","","null","","","null","64","","","","","","","","","","","","","","","",""
"","ITI","","html-keyboard-response","432","479601","0.0-1.0-585.0","0","0","92227","","null","","","null","64","","","","","","","","","","","","","","","NaN",""
"","S1","","html-keyboard-response","433","479853","0.0-1.0-587.0","0","0","92227","","null","","","null","65","","","","","","","","","","","","","","","",""
"","ISI","","html-keyboard-response","434","480355","0.0-1.0-588.0","0","0","92227","","null","","","null","65","NaN","","","","","","","","","","","","","","",""
"","S2","","html-keyboard-response","435","480609","0.0-1.0-589.0","0","0","92227","","null","","","null","65","","NaN","","","","","","","","","","","","","",""
"","response","","html-keyboard-response","436","480927","0.0-1.0-590.0-0.0","0","0","92227","","316","","","75","65","","","2","65","training","adjacent","FG","6","7","L.jpg","O.jpg","1","1","1","",""
"","feedback","","html-keyboard-response","437","481931","0.0-1.0-591.0-0.0","0","0","92227","","null","","","null","65","","","","","","","","","","","","","","","",""
"","ITI","","html-keyboard-response","438","482934","0.0-1.0-594.0","0","0","92227","","null","","","null","65","","","","","","","","","","","","","","","NaN",""
"","S1","","html-keyboard-response","439","483187","0.0-1.0-596.0","0","0","92227","","null","","","null","66","","","","","","","","","","","","","","","",""
"","ISI","","html-keyboard-response","440","483690","0.0-1.0-597.0","0","0","92227","","null","","","null","66","NaN","","","","","","","","","","","","","","",""
"","S2","","html-keyboard-response","441","483944","0.0-1.0-598.0","0","0","92227","","null","","","null","66","","NaN","","","","","","","","","","","","","",""
"","response","","html-keyboard-response","442","484655","0.0-1.0-599.0-0.0","0","0","92227","","709","","","75","66","","","2","66","training","adjacent","BA","2","1","N.jpg","M.jpg","1","0","0","",""
"","feedback","","html-keyboard-response","443","485658","0.0-1.0-600.0-0.0","0","0","92227","","null","","","null","66","","","","","","","","","","","","","","","",""
"","time_out","","html-keyboard-response","444","487661","0.0-1.0-602.0-0.0","0","0","92227","","null","","","null","66","","","","","","","","","","","","","","","",""
"","ITI","","html-keyboard-response","445","488663","0.0-1.0-603.0","0","0","92227","","null","","","null","66","","","","","","","","","","","","","","","NaN",""
"","S1","","html-keyboard-response","446","488917","0.0-1.0-605.0","0","0","92227","","null","","","null","67","","","","","","","","","","","","","","","",""
"","ISI","","html-keyboard-response","447","489419","0.0-1.0-606.0","0","0","92227","","296","","","68","67","d","","","","","","","","","","","","","","",""
"","S2","","html-keyboard-response","448","489673","0.0-1.0-607.0","0","0","92227","","null","","","null","67","","NaN","","","","","","","","","","","","","",""
"","response","","html-keyboard-response","449","490111","0.0-1.0-608.0-0.0","0","0","92227","","436","","","68","67","","","2","67","training","adjacent","AB","1","2","M.jpg","N.jpg","0","1","0","",""
"","feedback","","html-keyboard-response","450","491114","0.0-1.0-609.0-0.0","0","0","92227","","null","","","null","67","","","","","","","","","","","","","","","",""
"","time_out","","html-keyboard-response","451","493117","0.0-1.0-611.0-0.0","0","0","92227","","null","","","null","67","","","","","","","","","","","","","","","",""
"","ITI","","html-keyboard-response","452","494119","0.0-1.0-612.0","0","0","92227","","null","","","null","67","","","","","","","","","","","","","","","NaN",""
"","S1","","html-keyboard-response","453","494373","0.0-1.0-614.0","0","0","92227","","null","","","null","68","","","","","","","","","","","","","","","",""
"","ISI","","html-keyboard-response","454","494875","0.0-1.0-615.0","0","0","92227","","null","","","null","68","NaN","","","","","","","","","","","","","","",""
"","S2","","html-keyboard-response","455","495128","0.0-1.0-616.0","0","0","92227","","null","","","null","68","","NaN","","","","","","","","","","","","","",""
"","response","","html-keyboard-response","456","495415","0.0-1.0-617.0-0.0","0","0","92227","","285","","","75","68","","","2","68","training","adjacent","CD","3","4","Q.jpg","P.jpg","1","1","1","",""
"","feedback","","html-keyboard-response","457","496419","0.0-1.0-618.0-0.0","0","0","92227","","null","","","null","68","","","","","","","","","","","","","","","",""
"","ITI","","html-keyboard-response","458","497422","0.0-1.0-621.0","0","0","92227","","null","","","null","68","","","","","","","","","","","","","","","NaN",""
"","S1","","html-keyboard-response","459","497675","0.0-1.0-623.0","0","0","92227","","null","","","null","69","","","","","","","","","","","","","","","",""
"","ISI","","html-keyboard-response","460","498177","0.0-1.0-624.0","0","0","92227","","null","","","null","69","NaN","","","","","","","","","","","","","","",""
"","S2","","html-keyboard-response","461","498430","0.0-1.0-625.0","0","0","92227","","null","","","null","69","","NaN","","","","","","","","","","","","","",""
"","response","","html-keyboard-response","462","498879","0.0-1.0-626.0-0.0","0","0","92227","","446","","","68","69","","","2","69","training","adjacent","GF","7","6","O.jpg","L.jpg","0","0","1","",""
"","feedback","","html-keyboard-response","463","499882","0.0-1.0-627.0-0.0","0","0","92227","","null","","","null","69","","","","","","","","","","","","","","","",""
"","ITI","","html-keyboard-response","464","500885","0.0-1.0-630.0","0","0","92227","","null","","","null","69","","","","","","","","","","","","","","","NaN",""
"","S1","","html-keyboard-response","465","501138","0.0-1.0-632.0","0","0","92227","","null","","","null","70","","","","","","","","","","","","","","","",""
"","ISI","","html-keyboard-response","466","501641","0.0-1.0-633.0","0","0","92227","","null","","","null","70","NaN","","","","","","","","","","","","","","",""
"","S2","","html-keyboard-response","467","501893","0.0-1.0-634.0","0","0","92227","","null","","","null","70","","NaN","","","","","","","","","","","","","",""
"","response","","html-keyboard-response","468","502383","0.0-1.0-635.0-0.0","0","0","92227","","487","","","75","70","","","2","70","training","adjacent","GF","7","6","O.jpg","L.jpg","1","0","0","",""
"","feedback","","html-keyboard-response","469","503387","0.0-1.0-636.0-0.0","0","0","92227","","null","","","null","70","","","","","","","","","","","","","","","",""
"","time_out","","html-keyboard-response","470","505389","0.0-1.0-638.0-0.0","0","0","92227","","null","","","null","70","","","","","","","","","","","","","","","",""
"","ITI","","html-keyboard-response","471","506392","0.0-1.0-639.0","0","0","92227","","null","","","null","70","","","","","","","","","","","","","","","NaN",""
"","S1","","html-keyboard-response","472","506645","0.0-1.0-641.0","0","0","92227","","null","","","null","71","","","","","","","","","","","","","","","",""
"","ISI","","html-keyboard-response","473","507147","0.0-1.0-642.0","0","0","92227","","null","","","null","71","NaN","","","","","","","","","","","","","","",""
"","S2","","html-keyboard-response","474","507399","0.0-1.0-643.0","0","0","92227","","249","","","75","71","","k","2","71","training","adjacent","FG","6","7","L.jpg","O.jpg","1","1","1","",""
"","feedback","","html-keyboard-response","475","508403","0.0-1.0-645.0-0.0","0","0","92227","","null","","","null","71","","","","","","","","","","","","","","","",""
"","ITI","","html-keyboard-response","476","509406","0.0-1.0-648.0","0","0","92227","","201","","","75","71","","","","","","","","","","","","","","","k",""
"","S1","","html-keyboard-response","477","509659","0.0-1.0-650.0","0","0","92227","","null","","","null","72","","","","","","","","","","","","","","","",""
"","ISI","","html-keyboard-response","478","510162","0.0-1.0-651.0","0","0","92227","","329","","","75","72","k","","","","","","","","","","","","","","",""
"","S2","","html-keyboard-response","479","510415","0.0-1.0-652.0","0","0","92227","","null","","","null","72","","NaN","","","","","","","","","","","","","",""
"","response","","html-keyboard-response","480","510463","0.0-1.0-653.0-0.0","0","0","92227","","45","","","68","72","","","2","72","training","adjacent","GF","7","6","O.jpg","L.jpg","0","0","1","",""
"","feedback","","html-keyboard-response","481","511466","0.0-1.0-654.0-0.0","0","0","92227","","null","","","null","72","","","","","","","","","","","","","","","",""
"","ITI","","html-keyboard-response","482","512469","0.0-1.0-657.0","0","0","92227","","362","","","75","72","","","","","","","","","","","","","","","k",""
"","S1","","html-keyboard-response","483","512722","0.0-1.0-659.0","0","0","92227","","null","","","null","73","","","","","","","","","","","","","","","",""
"","ISI","","html-keyboard-response","484","513225","0.0-1.0-660.0","0","0","92227","","26","","","75","73","k","","","","","","","","","","","","","","",""
"","S2","","html-keyboard-response","485","513478","0.0-1.0-661.0","0","0","92227","","null","","","null","73","","NaN","","","","","","","","","","","","","",""
"","response","","html-keyboard-response","486","513631","0.0-1.0-662.0-0.0","0","0","92227","","150","","","75","73","","","2","73","training","adjacent","BC","2","3","N.jpg","Q.jpg","1","1","1","",""
"","feedback","","html-keyboard-response","487","514634","0.0-1.0-663.0-0.0","0","0","92227","","null","","","null","73","","","","","","","","","","","","","","","",""
"","ITI","","html-keyboard-response","488","515637","0.0-1.0-666.0","0","0","92227","","395","","","68","73","","","","","","","","","","","","","","","d",""
"","S1","","html-keyboard-response","489","515891","0.0-1.0-668.0","0","0","92227","","null","","","null","74","","","","","","","","","","","","","","","",""
"","ISI","","html-keyboard-response","490","516393","0.0-1.0-669.0","0","0","92227","","50","","","68","74","d","","","","","","","","","","","","","","",""
"","S2","","html-keyboard-response","491","516559","0.0-1.0-670.0","0","0","92227","","163","","","75","74","","k","2","74","training","adjacent","DE","4","5","P.jpg","R.jpg","1","1","1","",""
"","feedback","","html-keyboard-response","492","517562","0.0-1.0-672.0-0.0","0","0","92227","","null","","","null","74","","","","","","","","","","","","","","","",""
"","ITI","","html-keyboard-response","493","518565","0.0-1.0-675.0","0","0","92227","","210","","","75","74","","","","","","","","","","","","","","","k",""
"","S1","","html-keyboard-response","494","518819","0.0-1.0-677.0","0","0","92227","","null","","","null","75","","","","","","","","","","","","","","","",""
"","ISI","","html-keyboard-response","495","519322","0.0-1.0-678.0","0","0","92227","","2","","","75","75","k","","","","","","","","","","","","","","",""
"","S2","","html-keyboard-response","496","519576","0.0-1.0-679.0","0","0","92227","","null","","","null","75","","NaN","","","","","","","","","","","","","",""
"","response","","html-keyboard-response","497","519927","0.0-1.0-680.0-0.0","0","0","92227","","348","","","75","75","","","2","75","training","adjacent","DE","4","5","P.jpg","R.jpg","1","1","1","",""
"","feedback","","html-keyboard-response","498","520931","0.0-1.0-681.0-0.0","0","0","92227","","null","","","null","75","","","","","","","","","","","","","","","",""
"","ITI","","html-keyboard-response","499","521933","0.0-1.0-684.0","0","0","92227","","26","","","75","75","","","","","","","","","","","","","","","k",""
"","S1","","html-keyboard-response","500","522186","0.0-1.0-686.0","0","0","92227","","null","","","null","76","","","","","","","","","","","","","","","",""
"","ISI","","html-keyboard-response","501","522689","0.0-1.0-687.0","0","0","92227","","298","","","75","76","k","","","","","","","","","","","","","","",""
"","S2","","html-keyboard-response","502","522942","0.0-1.0-688.0","0","0","92227","","null","","","null","76","","NaN","","","","","","","","","","","","","",""
"","response","","html-keyboard-response","503","522967","0.0-1.0-689.0-0.0","0","0","92227","","22","","","75","76","","","2","76","training","adjacent","EF","5","6","R.jpg","L.jpg","1","1","1","",""
"","feedback","","html-keyboard-response","504","523971","0.0-1.0-690.0-0.0","0","0","92227","","null","","","null","76","","","","","","","","","","","","","","","",""
"","ITI","","html-keyboard-response","505","524988","0.0-1.0-693.0","0","0","92227","","57","","","68","76","","","","","","","","","","","","","","","d",""
"","S1","","html-keyboard-response","506","525241","0.0-1.0-695.0","0","0","92227","","null","","","null","77","","","","","","","","","","","","","","","",""
"","ISI","","html-keyboard-response","507","525743","0.0-1.0-696.0","0","0","92227","","435","","","75","77","k","","","","","","","","","","","","","","",""
"","S2","","html-keyboard-response","508","526006","0.0-1.0-697.0","0","0","92227","","null","","","null","77","","NaN","","","","","","","","","","","","","",""
"","response","","html-keyboard-response","509","526143","0.0-1.0-698.0-0.0","0","0","92227","","135","","","75","77","","","2","77","training","adjacent","EF","5","6","R.jpg","L.jpg","1","1","1","",""
"","feedback","","html-keyboard-response","510","527146","0.0-1.0-699.0-0.0","0","0","92227","","null","","","null","77","","","","","","","","","","","","","","","",""
"","ITI","","html-keyboard-response","511","528150","0.0-1.0-702.0","0","0","92227","","138","","","68","77","","","","","","","","","","","","","","","d",""
"","S1","","html-keyboard-response","512","528403","0.0-1.0-704.0","0","0","92227","","null","","","null","78","","","","","","","","","","","","","","","",""
"","ISI","","html-keyboard-response","513","528905","0.0-1.0-705.0","0","0","92227","","null","","","null","78","NaN","","","","","","","","","","","","","","",""
"","S2","","html-keyboard-response","514","529167","0.0-1.0-706.0","0","0","92227","","null","","","null","78","","NaN","","","","","","","","","","","","","",""
"","response","","html-keyboard-response","515","529263","0.0-1.0-707.0-0.0","0","0","92227","","92","","","75","78","","","2","78","training","adjacent","DC","4","3","P.jpg","Q.jpg","1","0","0","",""
"","feedback","","html-keyboard-response","516","530266","0.0-1.0-708.0-0.0","0","0","92227","","null","","","null","78","","","","","","","","","","","","","","","",""
"","time_out","","html-keyboard-response","517","532269","0.0-1.0-710.0-0.0","0","0","92227","","null","","","null","78","","","","","","","","","","","","","","","",""
"","ITI","","html-keyboard-response","518","533272","0.0-1.0-711.0","0","0","92227","","103","","","75","78","","","","","","","","","","","","","","","k",""
"","S1","","html-keyboard-response","519","533525","0.0-1.0-713.0","0","0","92227","","null","","","null","79","","","","","","","","","","","","","","","",""
"","ISI","","html-keyboard-response","520","534028","0.0-1.0-714.0","0","0","92227","","472","","","68","79","d","","","","","","","","","","","","","","",""
"","S2","","html-keyboard-response","521","534174","0.0-1.0-715.0","0","0","92227","","144","","","75","79","","k","2","79","training","adjacent","AB","1","2","M.jpg","N.jpg","1","1","1","",""
"","feedback","","html-keyboard-response","522","535177","0.0-1.0-717.0-0.0","0","0","92227","","null","","","null","79","","","","","","","","","","","","","","","",""
"","ITI","","html-keyboard-response","523","536180","0.0-1.0-720.0","0","0","92227","","324","","","75","79","","","","","","","","","","","","","","","k",""
"","S1","","html-keyboard-response","524","536434","0.0-1.0-722.0","0","0","92227","","null","","","null","80","","","","","","","","","","","","","","","",""
"","ISI","","html-keyboard-response","525","536937","0.0-1.0-723.0","0","0","92227","","66","","","75","80","k","","","","","","","","","","","","","","",""
"","S2","","html-keyboard-response","526","536951","0.0-1.0-724.0","0","0","92227","","11","","","75","80","","k","2","80","training","adjacent","CB","3","2","Q.jpg","N.jpg","1","0","0","",""
"","feedback","","html-keyboard-response","527","537954","0.0-1.0-726.0-0.0","0","0","92227","","null","","","null","80","","","","","","","","","","","","","","","",""
"","time_out","","html-keyboard-response","528","539957","0.0-1.0-728.0-0.0","0","0","92227","","null","","","null","80","","","","","","","","","","","","","","","",""
"","ITI","","html-keyboard-response","529","540960","0.0-1.0-729.0","0","0","92227","","304","","","68","80","","","","","","","","","","","","","","","d",""
"","S1","","html-keyboard-response","530","541213","0.0-1.0-731.0","0","0","92227","","null","","","null","81","","","","","","","","","","","","","","","",""
"","ISI","","html-keyboard-response","531","541716","0.0-1.0-732.0","0","0","92227","","31","","","75","81","k","","","","","","","","","","","","","","",""
"","S2","","html-keyboard-response","532","541727","0.0-1.0-733.0","0","0","92227","","8","","","75","81","","k","2","81","training","adjacent","AB","1","2","M.jpg","N.jpg","1","1","1","",""
"","feedback","","html-keyboard-response","533","542729","0.0-1.0-735.0-0.0","0","0","92227","","null","","","null","81","","","","","","","","","","","","","","","",""
"","ITI","","html-keyboard-response","534","543732","0.0-1.0-738.0","0","0","92227","","3","","","68","81","","","","","","","","","","","","","","","d",""
"","S1","","html-keyboard-response","535","543985","0.0-1.0-740.0","0","0","92227","","null","","","null","82","","","","","","","","","","","","","","","",""
"","ISI","","html-keyboard-response","536","544487","0.0-1.0-741.0","0","0","92227","","180","","","75","82","k","","","","","","","","","","","","","","",""
"","S2","","html-keyboard-response","537","544639","0.0-1.0-742.0","0","0","92227","","148","","","75","82","","k","2","82","training","adjacent","ED","5","4","R.jpg","P.jpg","1","0","0","",""
"","feedback","","html-keyboard-response","538","545642","0.0-1.0-744.0-0.0","0","0","92227","","null","","","null","82","","","","","","","","","","","","","","","",""
"","time_out","","html-keyboard-response","539","547644","0.0-1.0-746.0-0.0","0","0","92227","","null","","","null","82","","","","","","","","","","","","","","","",""
"","ITI","","html-keyboard-response","540","548647","0.0-1.0-747.0","0","0","92227","","416","","","75","82","","","","","","","","","","","","","","","k",""
"","S1","","html-keyboard-response","541","548900","0.0-1.0-749.0","0","0","92227","","null","","","null","83","","","","","","","","","","","","","","","",""
"","ISI","","html-keyboard-response","542","549402","0.0-1.0-750.0","0","0","92227","","96","","","68","83","d","","","","","","","","","","","","","","",""
"","S2","","html-keyboard-response","543","549463","0.0-1.0-751.0","0","0","92227","","58","","","75","83","","k","2","83","training","adjacent","CD","3","4","Q.jpg","P.jpg","1","1","1","",""
"","feedback","","html-keyboard-response","544","550466","0.0-1.0-753.0-0.0","0","0","92227","","null","","","null","83","","","","","","","","","","","","","","","",""
"","ITI","","html-keyboard-response","545","551468","0.0-1.0-756.0","0","0","92227","","10","","","68","83","","","","","","","","","","","","","","","d",""
"","S1","","html-keyboard-response","546","551723","0.0-1.0-758.0","0","0","92227","","null","","","null","84","","","","","","","","","","","","","","","",""
"","ISI","","html-keyboard-response","547","552225","0.0-1.0-759.0","0","0","92227","","226","","","75","84","k","","","","","","","","","","","","","","",""
"","S2","","html-keyboard-response","548","552415","0.0-1.0-760.0","0","0","92227","","187","","","68","84","","d","2","84","training","adjacent","BC","2","3","N.jpg","Q.jpg","0","1","0","",""
"","feedback","","html-keyboard-response","549","553419","0.0-1.0-762.0-0.0","0","0","92227","","null","","","null","84","","","","","","","","","","","","","","","",""
"","time_out","","html-keyboard-response","550","555421","0.0-1.0-764.0-0.0","0","0","92227","","null","","","null","84","","","","","","","","","","","","","","","",""
"","ITI","","html-keyboard-response","551","556424","0.0-1.0-765.0","0","0","92227","","367","","","68","84","","","","","","","","","","","","","","","d",""
"","S1","","html-keyboard-response","552","556677","0.0-1.0-767.0","0","0","92227","","null","","","null","85","","","","","","","","","","","","","","","",""
"","ISI","","html-keyboard-response","553","557179","0.0-1.0-768.0","0","0","92227","","448","","","75","85","k","","","","","","","","","","","","","","",""
"","S2","","html-keyboard-response","554","557432","0.0-1.0-769.0","0","0","92227","","null","","","null","85","","NaN","","","","","","","","","","","","","",""
"","response","","html-keyboard-response","555","557615","0.0-1.0-770.0-0.0","0","0","92227","","180","","","75","85","","","2","85","training","adjacent","FG","6","7","L.jpg","O.jpg","1","1","1","",""
"","feedback","","html-keyboard-response","556","558619","0.0-1.0-771.0-0.0","0","0","92227","","null","","","null","85","","","","","","","","","","","","","","","",""
"","ITI","","html-keyboard-response","557","559623","0.0-1.0-774.0","0","0","92227","","2","","","75","85","","","","","","","","","","","","","","","k",""
"","S1","","html-keyboard-response","558","559876","0.0-1.0-776.0","0","0","92227","","null","","","null","86","","","","","","","","","","","","","","","",""
"","ISI","","html-keyboard-response","559","560380","0.0-1.0-777.0","0","0","92227","","null","","","null","86","NaN","","","","","","","","","","","","","","",""
"","S2","","html-keyboard-response","560","560632","0.0-1.0-778.0","0","0","92227","","null","","","null","86","","NaN","","","","","","","","","","","","","",""
"","response","","html-keyboard-response","561","561095","0.0-1.0-779.0-0.0","0","0","92227","","460","","","68","86","","","2","86","training","adjacent","BA","2","1","N.jpg","M.jpg","0","0","1","",""
"","feedback","","html-keyboard-response","562","562098","0.0-1.0-780.0-0.0","0","0","92227","","null","","","null","86","","","","","","","","","","","","","","","",""
"","ITI","","html-keyboard-response","563","563101","0.0-1.0-783.0","0","0","92227","","null","","","null","86","","","","","","","","","","","","","","","NaN",""
"","S1","","html-keyboard-response","564","563354","0.0-1.0-785.0","0","0","92227","","null","","","null","87","","","","","","","","","","","","","","","",""
"","ISI","","html-keyboard-response","565","563856","0.0-1.0-786.0","0","0","92227","","null","","","null","87","NaN","","","","","","","","","","","","","","",""
"","S2","","html-keyboard-response","566","563999","0.0-1.0-787.0","0","0","92227","","140","","","75","87","","k","2","87","training","adjacent","DE","4","5","P.jpg","R.jpg","1","1","1","",""
"","feedback","","html-keyboard-response","567","565014","0.0-1.0-789.0-0.0","0","0","92227","","null","","","null","87","","","","","","","","","","","","","","","",""
"","ITI","","html-keyboard-response","568","566017","0.0-1.0-792.0","0","0","92227","","7","","","68","87","","","","","","","","","","","","","","","d",""
"","S1","","html-keyboard-response","569","566271","0.0-1.0-794.0","0","0","92227","","null","","","null","88","","","","","","","","","","","","","","","",""
"","ISI","","html-keyboard-response","570","566773","0.0-1.0-795.0","0","0","92227","","null","","","null","88","NaN","","","","","","","","","","","","","","",""
"","S2","","html-keyboard-response","571","566975","0.0-1.0-796.0","0","0","92227","","199","","","75","88","","k","2","88","training","adjacent","BA","2","1","N.jpg","M.jpg","1","0","0","",""
"","feedback","","html-keyboard-response","572","567978","0.0-1.0-798.0-0.0","0","0","92227","","null","","","null","88","","","","","","","","","","","","","","","",""
"","time_out","","html-keyboard-response","573","569981","0.0-1.0-800.0-0.0","0","0","92227","","null","","","null","88","","","","","","","","","","","","","","","",""
"","ITI","","html-keyboard-response","574","570984","0.0-1.0-801.0","0","0","92227","","48","","","75","88","","","","","","","","","","","","","","","k",""
"","S1","","html-keyboard-response","575","571237","0.0-1.0-803.0","0","0","92227","","null","","","null","89","","","","","","","","","","","","","","","",""
"","ISI","","html-keyboard-response","576","571739","0.0-1.0-804.0","0","0","92227","","null","","","null","89","NaN","","","","","","","","","","","","","","",""
"","S2","","html-keyboard-response","577","571993","0.0-1.0-805.0","0","0","92227","","null","","","null","89","","NaN","","","","","","","","","","","","","",""
"","response","","html-keyboard-response","578","572055","0.0-1.0-806.0-0.0","0","0","92227","","60","","","68","89","","","2","89","training","adjacent","DC","4","3","P.jpg","Q.jpg","0","0","1","",""
"","feedback","","html-keyboard-response","579","573058","0.0-1.0-807.0-0.0","0","0","92227","","null","","","null","89","","","","","","","","","","","","","","","",""
"","ITI","","html-keyboard-response","580","574061","0.0-1.0-810.0","0","0","92227","","26","","","75","89","","","","","","","","","","","","","","","k",""
