"success","ttype","start_time","trial_type","trial_index","time_elapsed","internal_node_id","warning","missed_checkup","PID","view_history","rt","responses","repeat_instructions","key_press","index","keypress_isi","keypress_S2","block","trial_num","phase","group_type","pair_type","S1_stim","S2_stim","S1_img","S2_img","S1_chosen","S1_higher","accuracy","keypress_iti","total_bonus_tally"
"true","full_screen","d03082023hr1529","fullscreen","0","591683","0.0-0.0","0","0","43279","","","","","","","","","","","","","","","","","","","","","",""
"","instructions","","instructions","1","5159197","0.0-1.0-0.0-0.0","0","0","43279","[{""page_index"":0,""viewing_time"":4515603},{""page_index"":1,""viewing_time"":9801},{""page_index"":2,""viewing_time"":3814},{""page_index"":1,""viewing_time"":34547},{""page_index"":2,""viewing_time"":1720},{""page_index"":3,""viewing_time"":2024}]","4567510","","","","","","","","","","","","","","","","","","","",""
"","comprehension_check","","survey-multi-choice","2","5172895","0.0-1.0-0.0-1.0","0","0","43279","","13693","{""Q0"":""True"",""Q1"":""K"",""Q2"":""Only when the screen 'MAKE A CHOICE' is shown"",""Q3"":""Green mark"",""Q4"":""either D or K""}","1","","","","","","","","","","","","","","","","","",""
"","missed_instruction_checkup","","html-keyboard-response","3","5174603","0.0-1.0-0.0-2.0-0.0","0","1","43279","","1703","","","32","","","","","","","","","","","","","","","","",""
"","instructions","","instructions","4","5191593","0.0-1.0-0.1-0.1","0","0","43279","[{""page_index"":0,""viewing_time"":2983},{""page_index"":1,""viewing_time"":10103},{""page_index"":2,""viewing_time"":2869},{""page_index"":3,""viewing_time"":1033}]","16988","","","","","","","","","","","","","","","","","","","",""
"","comprehension_check","","survey-multi-choice","5","5206654","0.0-1.0-0.1-1.1","0","0","43279","","15056","{""Q0"":""True"",""Q1"":""K"",""Q2"":""Once the second image appears and while the screen 'MAKE A CHOICE' is shown"",""Q3"":""Green mark"",""Q4"":""either D or K""}","0","","","","","","","","","","","","","","","","","",""
"","start_exp","","html-keyboard-response","6","5210405","0.0-1.0-1.0","0","0","43279","","3747","","","32","","","","","","","","","","","","","","","","",""
"","S1","","html-keyboard-response","7","5210659","0.0-1.0-2.0","0","0","43279","","null","","","null","0","","","","","","","","","","","","","","","",""
"","ISI","","html-keyboard-response","8","5210811","0.0-1.0-3.0","0","0","43279","","null","","","null","0","NaN","","","","","","","","","","","","","","",""
"","S2","","html-keyboard-response","9","5211009","0.0-1.0-4.0","0","0","43279","","196","","","75","0","","k","1","0","training","adjacent","CD","3","4","M.jpg","L.jpg","1","1","1","",""
"","feedback","","html-keyboard-response","10","5212013","0.0-1.0-6.0-0.0","0","0","43279","","null","","","null","0","","","","","","","","","","","","","","","",""
"","ITI","","html-keyboard-response","11","5213016","0.0-1.0-9.0","0","0","43279","","null","","","null","0","","","","","","","","","","","","","","","NaN",""
"","S1","","html-keyboard-response","12","5213269","0.0-1.0-11.0","0","0","43279","","null","","","null","1","","","","","","","","","","","","","","","",""
"","ISI","","html-keyboard-response","13","5213422","0.0-1.0-12.0","0","0","43279","","null","","","null","1","NaN","","","","","","","","","","","","","","",""
"","S2","","html-keyboard-response","14","5213674","0.0-1.0-13.0","0","0","43279","","null","","","null","1","","NaN","","","","","","","","","","","","","",""
"","response","","html-keyboard-response","15","5213722","0.0-1.0-14.0-0.0","0","0","43279","","46","","","68","1","","","1","1","training","adjacent","DC","4","3","L.jpg","M.jpg","0","0","1","",""
"","feedback","","html-keyboard-response","16","5214726","0.0-1.0-15.0-0.0","0","0","43279","","null","","","null","1","","","","","","","","","","","","","","","",""
"","ITI","","html-keyboard-response","17","5215735","0.0-1.0-18.0","0","0","43279","","null","","","null","1","","","","","","","","","","","","","","","NaN",""
"","S1","","html-keyboard-response","18","5215988","0.0-1.0-20.0","0","0","43279","","null","","","null","2","","","","","","","","","","","","","","","",""
"","ISI","","html-keyboard-response","19","5216141","0.0-1.0-21.0","0","0","43279","","null","","","null","2","NaN","","","","","","","","","","","","","","",""
"","S2","","html-keyboard-response","20","5216394","0.0-1.0-22.0","0","0","43279","","null","","","null","2","","NaN","","","","","","","","","","","","","",""
"","response","","html-keyboard-response","21","5216724","0.0-1.0-23.0-0.0","0","0","43279","","328","","","68","2","","","1","2","training","adjacent","BA","2","1","N.jpg","O.jpg","0","0","1","",""
"","feedback","","html-keyboard-response","22","5217727","0.0-1.0-24.0-0.0","0","0","43279","","null","","","null","2","","","","","","","","","","","","","","","",""
"","ITI","","html-keyboard-response","23","5218729","0.0-1.0-27.0","0","0","43279","","null","","","null","2","","","","","","","","","","","","","","","NaN",""
"","S1","","html-keyboard-response","24","5218982","0.0-1.0-29.0","0","0","43279","","null","","","null","3","","","","","","","","","","","","","","","",""
"","ISI","","html-keyboard-response","25","5219134","0.0-1.0-30.0","0","0","43279","","null","","","null","3","NaN","","","","","","","","","","","","","","",""
"","S2","","html-keyboard-response","26","5219387","0.0-1.0-31.0","0","0","43279","","null","","","null","3","","NaN","","","","","","","","","","","","","",""
"","response","","html-keyboard-response","27","5219798","0.0-1.0-32.0-0.0","0","0","43279","","409","","","75","3","","","1","3","training","adjacent","FE","6","5","R.jpg","P.jpg","1","0","0","",""
"","feedback","","html-keyboard-response","28","5220800","0.0-1.0-33.0-0.0","0","0","43279","","null","","","null","3","","","","","","","","","","","","","","","",""
"","time_out","","html-keyboard-response","29","5222803","0.0-1.0-35.0-0.0","0","0","43279","","null","","","null","3","","","","","","","","","","","","","","","",""
"","ITI","","html-keyboard-response","30","5223805","0.0-1.0-36.0","0","0","43279","","null","","","null","3","","","","","","","","","","","","","","","NaN",""
"","S1","","html-keyboard-response","31","5224058","0.0-1.0-38.0","0","0","43279","","null","","","null","4","","","","","","","","","","","","","","","",""
"","ISI","","html-keyboard-response","32","5224210","0.0-1.0-39.0","0","0","43279","","null","","","null","4","NaN","","","","","","","","","","","","","","",""
"","S2","","html-keyboard-response","33","5224464","0.0-1.0-40.0","0","0","43279","","null","","","null","4","","NaN","","","","","","","","","","","","","",""
"","response","","html-keyboard-response","34","5224860","0.0-1.0-41.0-0.0","0","0","43279","","394","","","68","4","","","1","4","training","adjacent","BA","2","1","N.jpg","O.jpg","0","0","1","",""
"","feedback","","html-keyboard-response","35","5225863","0.0-1.0-42.0-0.0","0","0","43279","","null","","","null","4","","","","","","","","","","","","","","","",""
"","ITI","","html-keyboard-response","36","5226867","0.0-1.0-45.0","0","0","43279","","null","","","null","4","","","","","","","","","","","","","","","NaN",""
"","S1","","html-keyboard-response","37","5227119","0.0-1.0-47.0","0","0","43279","","null","","","null","5","","","","","","","","","","","","","","","",""
"","ISI","","html-keyboard-response","38","5227271","0.0-1.0-48.0","0","0","43279","","null","","","null","5","NaN","","","","","","","","","","","","","","",""
"","S2","","html-keyboard-response","39","5227525","0.0-1.0-49.0","0","0","43279","","null","","","null","5","","NaN","","","","","","","","","","","","","",""
"","response","","html-keyboard-response","40","5227778","0.0-1.0-50.0-0.0","0","0","43279","","252","","","68","5","","","1","5","training","adjacent","ED","5","4","P.jpg","L.jpg","0","0","1","",""
"","feedback","","html-keyboard-response","41","5228782","0.0-1.0-51.0-0.0","0","0","43279","","null","","","null","5","","","","","","","","","","","","","","","",""
"","ITI","","html-keyboard-response","42","5229785","0.0-1.0-54.0","0","0","43279","","null","","","null","5","","","","","","","","","","","","","","","NaN",""
"","S1","","html-keyboard-response","43","5230039","0.0-1.0-56.0","0","0","43279","","null","","","null","6","","","","","","","","","","","","","","","",""
"","ISI","","html-keyboard-response","44","5230192","0.0-1.0-57.0","0","0","43279","","null","","","null","6","NaN","","","","","","","","","","","","","","",""
"","S2","","html-keyboard-response","45","5230445","0.0-1.0-58.0","0","0","43279","","null","","","null","6","","NaN","","","","","","","","","","","","","",""
"","response","","html-keyboard-response","46","5230701","0.0-1.0-59.0-0.0","0","0","43279","","255","","","75","6","","","1","6","training","adjacent","FG","6","7","R.jpg","Q.jpg","1","1","1","",""
"","feedback","","html-keyboard-response","47","5231712","0.0-1.0-60.0-0.0","0","0","43279","","null","","","null","6","","","","","","","","","","","","","","","",""
"","ITI","","html-keyboard-response","48","5232714","0.0-1.0-63.0","0","0","43279","","null","","","null","6","","","","","","","","","","","","","","","NaN",""
"","S1","","html-keyboard-response","49","5232967","0.0-1.0-65.0","0","0","43279","","null","","","null","7","","","","","","","","","","","","","","","",""
"","ISI","","html-keyboard-response","50","5233119","0.0-1.0-66.0","0","0","43279","","null","","","null","7","NaN","","","","","","","","","","","","","","",""
"","S2","","html-keyboard-response","51","5233372","0.0-1.0-67.0","0","0","43279","","null","","","null","7","","NaN","","","","","","","","","","","","","",""
"","response","","html-keyboard-response","52","5233597","0.0-1.0-68.0-0.0","0","0","43279","","222","","","75","7","","","1","7","training","adjacent","BA","2","1","N.jpg","O.jpg","1","0","0","",""
"","feedback","","html-keyboard-response","53","5234599","0.0-1.0-69.0-0.0","0","0","43279","","null","","","null","7","","","","","","","","","","","","","","","",""
"","time_out","","html-keyboard-response","54","5236602","0.0-1.0-71.0-0.0","0","0","43279","","null","","","null","7","","","","","","","","","","","","","","","",""
"","ITI","","html-keyboard-response","55","5237605","0.0-1.0-72.0","0","0","43279","","null","","","null","7","","","","","","","","","","","","","","","NaN",""
"","S1","","html-keyboard-response","56","5237857","0.0-1.0-74.0","0","0","43279","","null","","","null","8","","","","","","","","","","","","","","","",""
"","ISI","","html-keyboard-response","57","5238010","0.0-1.0-75.0","0","0","43279","","null","","","null","8","NaN","","","","","","","","","","","","","","",""
"","S2","","html-keyboard-response","58","5238262","0.0-1.0-76.0","0","0","43279","","null","","","null","8","","NaN","","","","","","","","","","","","","",""
"","response","","html-keyboard-response","59","5238485","0.0-1.0-77.0-0.0","0","0","43279","","220","","","68","8","","","1","8","training","adjacent","FE","6","5","R.jpg","P.jpg","0","0","1","",""
"","feedback","","html-keyboard-response","60","5239487","0.0-1.0-78.0-0.0","0","0","43279","","null","","","null","8","","","","","","","","","","","","","","","",""
"","ITI","","html-keyboard-response","61","5240489","0.0-1.0-81.0","0","0","43279","","null","","","null","8","","","","","","","","","","","","","","","NaN",""
"","S1","","html-keyboard-response","62","5240741","0.0-1.0-83.0","0","0","43279","","null","","","null","9","","","","","","","","","","","","","","","",""
"","ISI","","html-keyboard-response","63","5240893","0.0-1.0-84.0","0","0","43279","","null","","","null","9","NaN","","","","","","","","","","","","","","",""
"","S2","","html-keyboard-response","64","5241146","0.0-1.0-85.0","0","0","43279","","null","","","null","9","","NaN","","","","","","","","","","","","","",""
"","response","","html-keyboard-response","65","5241361","0.0-1.0-86.0-0.0","0","0","43279","","214","","","68","9","","","1","9","training","adjacent","CB","3","2","M.jpg","N.jpg","0","0","1","",""
"","feedback","","html-keyboard-response","66","5242364","0.0-1.0-87.0-0.0","0","0","43279","","null","","","null","9","","","","","","","","","","","","","","","",""
"","ITI","","html-keyboard-response","67","5243366","0.0-1.0-90.0","0","0","43279","","null","","","null","9","","","","","","","","","","","","","","","NaN",""
"","S1","","html-keyboard-response","68","5243618","0.0-1.0-92.0","0","0","43279","","null","","","null","10","","","","","","","","","","","","","","","",""
"","ISI","","html-keyboard-response","69","5243771","0.0-1.0-93.0","0","0","43279","","null","","","null","10","NaN","","","","","","","","","","","","","","",""
"","S2","","html-keyboard-response","70","5244023","0.0-1.0-94.0","0","0","43279","","null","","","null","10","","NaN","","","","","","","","","","","","","",""
"","response","","html-keyboard-response","71","5244295","0.0-1.0-95.0-0.0","0","0","43279","","270","","","68","10","","","1","10","training","adjacent","DE","4","5","L.jpg","P.jpg","0","1","0","",""
"","feedback","","html-keyboard-response","72","5245297","0.0-1.0-96.0-0.0","0","0","43279","","null","","","null","10","","","","","","","","","","","","","","","",""
"","time_out","","html-keyboard-response","73","5247300","0.0-1.0-98.0-0.0","0","0","43279","","null","","","null","10","","","","","","","","","","","","","","","",""
"","ITI","","html-keyboard-response","74","5248302","0.0-1.0-99.0","0","0","43279","","null","","","null","10","","","","","","","","","","","","","","","NaN",""
"","S1","","html-keyboard-response","75","5248556","0.0-1.0-101.0","0","0","43279","","null","","","null","11","","","","","","","","","","","","","","","",""
"","ISI","","html-keyboard-response","76","5248709","0.0-1.0-102.0","0","0","43279","","null","","","null","11","NaN","","","","","","","","","","","","","","",""
"","S2","","html-keyboard-response","77","5248961","0.0-1.0-103.0","0","0","43279","","null","","","null","11","","NaN","","","","","","","","","","","","","",""
"","response","","html-keyboard-response","78","5249032","0.0-1.0-104.0-0.0","0","0","43279","","69","","","75","11","","","1","11","training","adjacent","BA","2","1","N.jpg","O.jpg","1","0","0","",""
"","feedback","","html-keyboard-response","79","5250036","0.0-1.0-105.0-0.0","0","0","43279","","null","","","null","11","","","","","","","","","","","","","","","",""
"","time_out","","html-keyboard-response","80","5252038","0.0-1.0-107.0-0.0","0","0","43279","","null","","","null","11","","","","","","","","","","","","","","","",""
"","ITI","","html-keyboard-response","81","5253041","0.0-1.0-108.0","0","0","43279","","null","","","null","11","","","","","","","","","","","","","","","NaN",""
"","S1","","html-keyboard-response","82","5253293","0.0-1.0-110.0","0","0","43279","","null","","","null","12","","","","","","","","","","","","","","","",""
"","ISI","","html-keyboard-response","83","5253445","0.0-1.0-111.0","0","0","43279","","null","","","null","12","NaN","","","","","","","","","","","","","","",""
"","S2","","html-keyboard-response","84","5253698","0.0-1.0-112.0","0","0","43279","","null","","","null","12","","NaN","","","","","","","","","","","","","",""
"","response","","html-keyboard-response","85","5253799","0.0-1.0-113.0-0.0","0","0","43279","","99","","","68","12","","","1","12","training","adjacent","BC","2","3","N.jpg","M.jpg","0","1","0","",""
"","feedback","","html-keyboard-response","86","5254803","0.0-1.0-114.0-0.0","0","0","43279","","null","","","null","12","","","","","","","","","","","","","","","",""
"","time_out","","html-keyboard-response","87","5256806","0.0-1.0-116.0-0.0","0","0","43279","","null","","","null","12","","","","","","","","","","","","","","","",""
"","ITI","","html-keyboard-response","88","5257808","0.0-1.0-117.0","0","0","43279","","null","","","null","12","","","","","","","","","","","","","","","NaN",""
"","S1","","html-keyboard-response","89","5258062","0.0-1.0-119.0","0","0","43279","","null","","","null","13","","","","","","","","","","","","","","","",""
"","ISI","","html-keyboard-response","90","5258216","0.0-1.0-120.0","0","0","43279","","null","","","null","13","NaN","","","","","","","","","","","","","","",""
"","S2","","html-keyboard-response","91","5258469","0.0-1.0-121.0","0","0","43279","","null","","","null","13","","NaN","","","","","","","","","","","","","",""
"","response","","html-keyboard-response","92","5258523","0.0-1.0-122.0-0.0","0","0","43279","","52","","","68","13","","","1","13","training","adjacent","CB","3","2","M.jpg","N.jpg","0","0","1","",""
"","feedback","","html-keyboard-response","93","5259526","0.0-1.0-123.0-0.0","0","0","43279","","null","","","null","13","","","","","","","","","","","","","","","",""
"","ITI","","html-keyboard-response","94","5260529","0.0-1.0-126.0","0","0","43279","","null","","","null","13","","","","","","","","","","","","","","","NaN",""
"","S1","","html-keyboard-response","95","5260783","0.0-1.0-128.0","0","0","43279","","null","","","null","14","","","","","","","","","","","","","","","",""
"","ISI","","html-keyboard-response","96","5260935","0.0-1.0-129.0","0","0","43279","","null","","","null","14","NaN","","","","","","","","","","","","","","",""
"","S2","","html-keyboard-response","97","5261188","0.0-1.0-130.0","0","0","43279","","null","","","null","14","","NaN","","","","","","","","","","","","","",""
"","response","","html-keyboard-response","98","5261406","0.0-1.0-131.0-0.0","0","0","43279","","216","","","75","14","","","1","14","training","adjacent","GF","7","6","Q.jpg","R.jpg","1","0","0","",""
"","feedback","","html-keyboard-response","99","5262409","0.0-1.0-132.0-0.0","0","0","43279","","null","","","null","14","","","","","","","","","","","","","","","",""
"","time_out","","html-keyboard-response","100","5264421","0.0-1.0-134.0-0.0","0","0","43279","","null","","","null","14","","","","","","","","","","","","","","","",""
"","ITI","","html-keyboard-response","101","5265423","0.0-1.0-135.0","0","0","43279","","null","","","null","14","","","","","","","","","","","","","","","NaN",""
"","S1","","html-keyboard-response","102","5265676","0.0-1.0-137.0","0","0","43279","","null","","","null","15","","","","","","","","","","","","","","","",""
"","ISI","","html-keyboard-response","103","5265829","0.0-1.0-138.0","0","0","43279","","null","","","null","15","NaN","","","","","","","","","","","","","","",""
"","S2","","html-keyboard-response","104","5266081","0.0-1.0-139.0","0","0","43279","","null","","","null","15","","NaN","","","","","","","","","","","","","",""
"","response","","html-keyboard-response","105","5266162","0.0-1.0-140.0-0.0","0","0","43279","","79","","","75","15","","","1","15","training","adjacent","AB","1","2","O.jpg","N.jpg","1","1","1","",""
"","feedback","","html-keyboard-response","106","5267164","0.0-1.0-141.0-0.0","0","0","43279","","null","","","null","15","","","","","","","","","","","","","","","",""
"","ITI","","html-keyboard-response","107","5268168","0.0-1.0-144.0","0","0","43279","","null","","","null","15","","","","","","","","","","","","","","","NaN",""
"","S1","","html-keyboard-response","108","5268422","0.0-1.0-146.0","0","0","43279","","null","","","null","16","","","","","","","","","","","","","","","",""
"","ISI","","html-keyboard-response","109","5268579","0.0-1.0-147.0","0","0","43279","","null","","","null","16","NaN","","","","","","","","","","","","","","",""
"","S2","","html-keyboard-response","110","5268832","0.0-1.0-148.0","0","0","43279","","null","","","null","16","","NaN","","","","","","","","","","","","","",""
"","response","","html-keyboard-response","111","5268911","0.0-1.0-149.0-0.0","0","0","43279","","78","","","75","16","","","1","16","training","adjacent","FG","6","7","R.jpg","Q.jpg","1","1","1","",""
"","feedback","","html-keyboard-response","112","5269914","0.0-1.0-150.0-0.0","0","0","43279","","null","","","null","16","","","","","","","","","","","","","","","",""
"","ITI","","html-keyboard-response","113","5270917","0.0-1.0-153.0","0","0","43279","","null","","","null","16","","","","","","","","","","","","","","","NaN",""
"","S1","","html-keyboard-response","114","5271169","0.0-1.0-155.0","0","0","43279","","null","","","null","17","","","","","","","","","","","","","","","",""
"","ISI","","html-keyboard-response","115","5271321","0.0-1.0-156.0","0","0","43279","","null","","","null","17","NaN","","","","","","","","","","","","","","",""
"","S2","","html-keyboard-response","116","5271573","0.0-1.0-157.0","0","0","43279","","null","","","null","17","","NaN","","","","","","","","","","","","","",""
"","response","","html-keyboard-response","117","5271681","0.0-1.0-158.0-0.0","0","0","43279","","106","","","75","17","","","1","17","training","adjacent","GF","7","6","Q.jpg","R.jpg","1","0","0","",""
"","feedback","","html-keyboard-response","118","5272683","0.0-1.0-159.0-0.0","0","0","43279","","null","","","null","17","","","","","","","","","","","","","","","",""
"","time_out","","html-keyboard-response","119","5274686","0.0-1.0-161.0-0.0","0","0","43279","","null","","","null","17","","","","","","","","","","","","","","","",""
"","ITI","","html-keyboard-response","120","5275689","0.0-1.0-162.0","0","0","43279","","null","","","null","17","","","","","","","","","","","","","","","NaN",""
"","S1","","html-keyboard-response","121","5275943","0.0-1.0-164.0","0","0","43279","","null","","","null","18","","","","","","","","","","","","","","","",""
"","ISI","","html-keyboard-response","122","5276095","0.0-1.0-165.0","0","0","43279","","null","","","null","18","NaN","","","","","","","","","","","","","","",""
"","S2","","html-keyboard-response","123","5276348","0.0-1.0-166.0","0","0","43279","","null","","","null","18","","NaN","","","","","","","","","","","","","",""
"","response","","html-keyboard-response","124","5276433","0.0-1.0-167.0-0.0","0","0","43279","","83","","","68","18","","","1","18","training","adjacent","DE","4","5","L.jpg","P.jpg","0","1","0","",""
"","feedback","","html-keyboard-response","125","5277437","0.0-1.0-168.0-0.0","0","0","43279","","null","","","null","18","","","","","","","","","","","","","","","",""
"","time_out","","html-keyboard-response","126","5279443","0.0-1.0-170.0-0.0","0","0","43279","","null","","","null","18","","","","","","","","","","","","","","","",""
"","ITI","","html-keyboard-response","127","5280446","0.0-1.0-171.0","0","0","43279","","null","","","null","18","","","","","","","","","","","","","","","NaN",""
"","S1","","html-keyboard-response","128","5280699","0.0-1.0-173.0","0","0","43279","","null","","","null","19","","","","","","","","","","","","","","","",""
"","ISI","","html-keyboard-response","129","5280852","0.0-1.0-174.0","0","0","43279","","null","","","null","19","NaN","","","","","","","","","","","","","","",""
"","S2","","html-keyboard-response","130","5281106","0.0-1.0-175.0","0","0","43279","","null","","","null","19","","NaN","","","","","","","","","","","","","",""
"","response","","html-keyboard-response","131","5281234","0.0-1.0-176.0-0.0","0","0","43279","","126","","","68","19","","","1","19","training","adjacent","EF","5","6","P.jpg","R.jpg","0","1","0","",""
"","feedback","","html-keyboard-response","132","5282237","0.0-1.0-177.0-0.0","0","0","43279","","null","","","null","19","","","","","","","","","","","","","","","",""
"","time_out","","html-keyboard-response","133","5284239","0.0-1.0-179.0-0.0","0","0","43279","","null","","","null","19","","","","","","","","","","","","","","","",""
"","ITI","","html-keyboard-response","134","5285241","0.0-1.0-180.0","0","0","43279","","null","","","null","19","","","","","","","","","","","","","","","NaN",""
"","S1","","html-keyboard-response","135","5285494","0.0-1.0-182.0","0","0","43279","","null","","","null","20","","","","","","","","","","","","","","","",""
"","ISI","","html-keyboard-response","136","5285645","0.0-1.0-183.0","0","0","43279","","null","","","null","20","NaN","","","","","","","","","","","","","","",""
"","S2","","html-keyboard-response","137","5285898","0.0-1.0-184.0","0","0","43279","","null","","","null","20","","NaN","","","","","","","","","","","","","",""
"","response","","html-keyboard-response","138","5285959","0.0-1.0-185.0-0.0","0","0","43279","","59","","","68","20","","","1","20","training","adjacent","AB","1","2","O.jpg","N.jpg","0","1","0","",""
"","feedback","","html-keyboard-response","139","5286962","0.0-1.0-186.0-0.0","0","0","43279","","null","","","null","20","","","","","","","","","","","","","","","",""
"","time_out","","html-keyboard-response","140","5288966","0.0-1.0-188.0-0.0","0","0","43279","","null","","","null","20","","","","","","","","","","","","","","","",""
"","ITI","","html-keyboard-response","141","5289968","0.0-1.0-189.0","0","0","43279","","null","","","null","20","","","","","","","","","","","","","","","NaN",""
"","S1","","html-keyboard-response","142","5290221","0.0-1.0-191.0","0","0","43279","","null","","","null","21","","","","","","","","","","","","","","","",""
"","ISI","","html-keyboard-response","143","5290377","0.0-1.0-192.0","0","0","43279","","null","","","null","21","NaN","","","","","","","","","","","","","","",""
"","S2","","html-keyboard-response","144","5290574","0.0-1.0-193.0","0","0","43279","","195","","","75","21","","k","1","21","training","adjacent","CD","3","4","M.jpg","L.jpg","1","1","1","",""
"","feedback","","html-keyboard-response","145","5291577","0.0-1.0-195.0-0.0","0","0","43279","","null","","","null","21","","","","","","","","","","","","","","","",""
"","ITI","","html-keyboard-response","146","5292580","0.0-1.0-198.0","0","0","43279","","null","","","null","21","","","","","","","","","","","","","","","NaN",""
"","S1","","html-keyboard-response","147","5292832","0.0-1.0-200.0","0","0","43279","","null","","","null","22","","","","","","","","","","","","","","","",""
"","ISI","","html-keyboard-response","148","5292985","0.0-1.0-201.0","0","0","43279","","null","","","null","22","NaN","","","","","","","","","","","","","","",""
"","S2","","html-keyboard-response","149","5293203","0.0-1.0-202.0","0","0","43279","","216","","","75","22","","k","1","22","training","adjacent","GF","7","6","Q.jpg","R.jpg","1","0","0","",""
"","feedback","","html-keyboard-response","150","5294207","0.0-1.0-204.0-0.0","0","0","43279","","null","","","null","22","","","","","","","","","","","","","","","",""
"","time_out","","html-keyboard-response","151","5296210","0.0-1.0-206.0-0.0","0","0","43279","","null","","","null","22","","","","","","","","","","","","","","","",""
"","ITI","","html-keyboard-response","152","5297226","0.0-1.0-207.0","0","0","43279","","null","","","null","22","","","","","","","","","","","","","","","NaN",""
"","S1","","html-keyboard-response","153","5297478","0.0-1.0-209.0","0","0","43279","","null","","","null","23","","","","","","","","","","","","","","","",""
"","ISI","","html-keyboard-response","154","5297631","0.0-1.0-210.0","0","0","43279","","null","","","null","23","NaN","","","","","","","","","","","","","","",""
"","S2","","html-keyboard-response","155","5297884","0.0-1.0-211.0","0","0","43279","","null","","","null","23","","NaN","","","","","","","","","","","","","",""
"","response","","html-keyboard-response","156","5297977","0.0-1.0-212.0-0.0","0","0","43279","","91","","","68","23","","","1","23","training","adjacent","EF","5","6","P.jpg","R.jpg","0","1","0","",""
"","feedback","","html-keyboard-response","157","5298979","0.0-1.0-213.0-0.0","0","0","43279","","null","","","null","23","","","","","","","","","","","","","","","",""
"","time_out","","html-keyboard-response","158","5300985","0.0-1.0-215.0-0.0","0","0","43279","","null","","","null","23","","","","","","","","","","","","","","","",""
"","ITI","","html-keyboard-response","159","5301988","0.0-1.0-216.0","0","0","43279","","null","","","null","23","","","","","","","","","","","","","","","NaN",""
"","S1","","html-keyboard-response","160","5302241","0.0-1.0-218.0","0","0","43279","","null","","","null","24","","","","","","","","","","","","","","","",""
"","ISI","","html-keyboard-response","161","5302393","0.0-1.0-219.0","0","0","43279","","null","","","null","24","NaN","","","","","","","","","","","","","","",""
"","S2","","html-keyboard-response","162","5302547","0.0-1.0-220.0","0","0","43279","","152","","","75","24","","k","1","24","training","adjacent","BC","2","3","N.jpg","M.jpg","1","1","1","",""
"","feedback","","html-keyboard-response","163","5303550","0.0-1.0-222.0-0.0","0","0","43279","","null","","","null","24","","","","","","","","","","","","","","","",""
"","ITI","","html-keyboard-response","164","5304553","0.0-1.0-225.0","0","0","43279","","null","","","null","24","","","","","","","","","","","","","","","NaN",""
"","S1","","html-keyboard-response","165","5304806","0.0-1.0-227.0","0","0","43279","","null","","","null","25","","","","","","","","","","","","","","","",""
"","ISI","","html-keyboard-response","166","5304959","0.0-1.0-228.0","0","0","43279","","null","","","null","25","NaN","","","","","","","","","","","","","","",""
"","S2","","html-keyboard-response","167","5305212","0.0-1.0-229.0","0","0","43279","","null","","","null","25","","NaN","","","","","","","","","","","","","",""
"","response","","html-keyboard-response","168","5305260","0.0-1.0-230.0-0.0","0","0","43279","","47","","","75","25","","","1","25","training","adjacent","FG","6","7","R.jpg","Q.jpg","1","1","1","",""
"","feedback","","html-keyboard-response","169","5306264","0.0-1.0-231.0-0.0","0","0","43279","","null","","","null","25","","","","","","","","","","","","","","","",""
"","ITI","","html-keyboard-response","170","5307266","0.0-1.0-234.0","0","0","43279","","null","","","null","25","","","","","","","","","","","","","","","NaN",""
"","S1","","html-keyboard-response","171","5307518","0.0-1.0-236.0","0","0","43279","","null","","","null","26","","","","","","","","","","","","","","","",""
"","ISI","","html-keyboard-response","172","5307671","0.0-1.0-237.0","0","0","43279","","null","","","null","26","NaN","","","","","","","","","","","","","","",""
"","S2","","html-keyboard-response","173","5307925","0.0-1.0-238.0","0","0","43279","","null","","","null","26","","NaN","","","","","","","","","","","","","",""
"","response","","html-keyboard-response","174","5308024","0.0-1.0-239.0-0.0","0","0","43279","","97","","","75","26","","","1","26","training","adjacent","ED","5","4","P.jpg","L.jpg","1","0","0","",""
"","feedback","","html-keyboard-response","175","5309027","0.0-1.0-240.0-0.0","0","0","43279","","null","","","null","26","","","","","","","","","","","","","","","",""
"","time_out","","html-keyboard-response","176","5311029","0.0-1.0-242.0-0.0","0","0","43279","","null","","","null","26","","","","","","","","","","","","","","","",""
"","ITI","","html-keyboard-response","177","5312045","0.0-1.0-243.0","0","0","43279","","null","","","null","26","","","","","","","","","","","","","","","NaN",""
"","S1","","html-keyboard-response","178","5312297","0.0-1.0-245.0","0","0","43279","","null","","","null","27","","","","","","","","","","","","","","","",""
"","ISI","","html-keyboard-response","179","5312449","0.0-1.0-246.0","0","0","43279","","null","","","null","27","NaN","","","","","","","","","","","","","","",""
"","S2","","html-keyboard-response","180","5312701","0.0-1.0-247.0","0","0","43279","","null","","","null","27","","NaN","","","","","","","","","","","","","",""
"","response","","html-keyboard-response","181","5312774","0.0-1.0-248.0-0.0","0","0","43279","","71","","","68","27","","","1","27","training","adjacent","DC","4","3","L.jpg","M.jpg","0","0","1","",""
"","feedback","","html-keyboard-response","182","5313780","0.0-1.0-249.0-0.0","0","0","43279","","null","","","null","27","","","","","","","","","","","","","","","",""
"","ITI","","html-keyboard-response","183","5314784","0.0-1.0-252.0","0","0","43279","","null","","","null","27","","","","","","","","","","","","","","","NaN",""
"","S1","","html-keyboard-response","184","5315036","0.0-1.0-254.0","0","0","43279","","null","","","null","28","","","","","","","","","","","","","","","",""
"","ISI","","html-keyboard-response","185","5315189","0.0-1.0-255.0","0","0","43279","","null","","","null","28","NaN","","","","","","","","","","","","","","",""
"","S2","","html-keyboard-response","186","5315442","0.0-1.0-256.0","0","0","43279","","null","","","null","28","","NaN","","","","","","","","","","","","","",""
"","response","","html-keyboard-response","187","5315550","0.0-1.0-257.0-0.0","0","0","43279","","107","","","68","28","","","1","28","training","adjacent","DE","4","5","L.jpg","P.jpg","0","1","0","",""
"","feedback","","html-keyboard-response","188","5316553","0.0-1.0-258.0-0.0","0","0","43279","","null","","","null","28","","","","","","","","","","","","","","","",""
"","time_out","","html-keyboard-response","189","5318555","0.0-1.0-260.0-0.0","0","0","43279","","null","","","null","28","","","","","","","","","","","","","","","",""
"","ITI","","html-keyboard-response","190","5319557","0.0-1.0-261.0","0","0","43279","","null","","","null","28","","","","","","","","","","","","","","","NaN",""
"","S1","","html-keyboard-response","191","5319810","0.0-1.0-263.0","0","0","43279","","null","","","null","29","","","","","","","","","","","","","","","",""
"","ISI","","html-keyboard-response","192","5319963","0.0-1.0-264.0","0","0","43279","","null","","","null","29","NaN","","","","","","","","","","","","","","",""
"","S2","","html-keyboard-response","193","5320165","0.0-1.0-265.0","0","0","43279","","200","","","75","29","","k","1","29","training","adjacent","DC","4","3","L.jpg","M.jpg","1","0","0","",""
"","feedback","","html-keyboard-response","194","5321168","0.0-1.0-267.0-0.0","0","0","43279","","null","","","null","29","","","","","","","","","","","","","","","",""
"","time_out","","html-keyboard-response","195","5323171","0.0-1.0-269.0-0.0","0","0","43279","","null","","","null","29","","","","","","","","","","","","","","","",""
"","ITI","","html-keyboard-response","196","5324174","0.0-1.0-270.0","0","0","43279","","null","","","null","29","","","","","","","","","","","","","","","NaN",""
"","S1","","html-keyboard-response","197","5324427","0.0-1.0-272.0","0","0","43279","","null","","","null","30","","","","","","","","","","","","","","","",""
"","ISI","","html-keyboard-response","198","5324581","0.0-1.0-273.0","0","0","43279","","null","","","null","30","NaN","","","","","","","","","","","","","","",""
"","S2","","html-keyboard-response","199","5324670","0.0-1.0-274.0","0","0","43279","","87","","","75","30","","k","1","30","training","adjacent","GF","7","6","Q.jpg","R.jpg","1","0","0","",""
"","feedback","","html-keyboard-response","200","5325673","0.0-1.0-276.0-0.0","0","0","43279","","null","","","null","30","","","","","","","","","","","","","","","",""
"","time_out","","html-keyboard-response","201","5327675","0.0-1.0-278.0-0.0","0","0","43279","","null","","","null","30","","","","","","","","","","","","","","","",""
"","ITI","","html-keyboard-response","202","5328678","0.0-1.0-279.0","0","0","43279","","null","","","null","30","","","","","","","","","","","","","","","NaN",""
"","S1","","html-keyboard-response","203","5328931","0.0-1.0-281.0","0","0","43279","","null","","","null","31","","","","","","","","","","","","","","","",""
"","ISI","","html-keyboard-response","204","5329082","0.0-1.0-282.0","0","0","43279","","null","","","null","31","NaN","","","","","","","","","","","","","","",""
"","S2","","html-keyboard-response","205","5329336","0.0-1.0-283.0","0","0","43279","","null","","","null","31","","NaN","","","","","","","","","","","","","",""
"","response","","html-keyboard-response","206","5329544","0.0-1.0-284.0-0.0","0","0","43279","","206","","","68","31","","","1","31","training","adjacent","FG","6","7","R.jpg","Q.jpg","0","1","0","",""
"","feedback","","html-keyboard-response","207","5330546","0.0-1.0-285.0-0.0","0","0","43279","","null","","","null","31","","","","","","","","","","","","","","","",""
"","time_out","","html-keyboard-response","208","5332549","0.0-1.0-287.0-0.0","0","0","43279","","null","","","null","31","","","","","","","","","","","","","","","",""
"","ITI","","html-keyboard-response","209","5333551","0.0-1.0-288.0","0","0","43279","","null","","","null","31","","","","","","","","","","","","","","","NaN",""
"","S1","","html-keyboard-response","210","5333804","0.0-1.0-290.0","0","0","43279","","null","","","null","32","","","","","","","","","","","","","","","",""
"","ISI","","html-keyboard-response","211","5333956","0.0-1.0-291.0","0","0","43279","","null","","","null","32","NaN","","","","","","","","","","","","","","",""
"","S2","","html-keyboard-response","212","5334207","0.0-1.0-292.0","0","0","43279","","249","","","68","32","","d","1","32","training","adjacent","DC","4","3","L.jpg","M.jpg","0","0","1","",""
"","feedback","","html-keyboard-response","213","5335210","0.0-1.0-294.0-0.0","0","0","43279","","null","","","null","32","","","","","","","","","","","","","","","",""
"","ITI","","html-keyboard-response","214","5336213","0.0-1.0-297.0","0","0","43279","","null","","","null","32","","","","","","","","","","","","","","","NaN",""
"","S1","","html-keyboard-response","215","5336466","0.0-1.0-299.0","0","0","43279","","null","","","null","33","","","","","","","","","","","","","","","",""
"","ISI","","html-keyboard-response","216","5336618","0.0-1.0-300.0","0","0","43279","","null","","","null","33","NaN","","","","","","","","","","","","","","",""
"","S2","","html-keyboard-response","217","5336872","0.0-1.0-301.0","0","0","43279","","null","","","null","33","","NaN","","","","","","","","","","","","","",""
"","response","","html-keyboard-response","218","5337025","0.0-1.0-302.0-0.0","0","0","43279","","153","","","68","33","","","1","33","training","adjacent","CB","3","2","M.jpg","N.jpg","0","0","1","",""
"","feedback","","html-keyboard-response","219","5338027","0.0-1.0-303.0-0.0","0","0","43279","","null","","","null","33","","","","","","","","","","","","","","","",""
"","ITI","","html-keyboard-response","220","5339030","0.0-1.0-306.0","0","0","43279","","null","","","null","33","","","","","","","","","","","","","","","NaN",""
"","S1","","html-keyboard-response","221","5339283","0.0-1.0-308.0","0","0","43279","","null","","","null","34","","","","","","","","","","","","","","","",""
"","ISI","","html-keyboard-response","222","5339436","0.0-1.0-309.0","0","0","43279","","null","","","null","34","NaN","","","","","","","","","","","","","","",""
"","S2","","html-keyboard-response","223","5339688","0.0-1.0-310.0","0","0","43279","","null","","","null","34","","NaN","","","","","","","","","","","","","",""
"","response","","html-keyboard-response","224","5339814","0.0-1.0-311.0-0.0","0","0","43279","","125","","","75","34","","","1","34","training","adjacent","BC","2","3","N.jpg","M.jpg","1","1","1","",""
"","feedback","","html-keyboard-response","225","5340818","0.0-1.0-312.0-0.0","0","0","43279","","null","","","null","34","","","","","","","","","","","","","","","",""
"","ITI","","html-keyboard-response","226","5341820","0.0-1.0-315.0","0","0","43279","","null","","","null","34","","","","","","","","","","","","","","","NaN",""
"","S1","","html-keyboard-response","227","5342073","0.0-1.0-317.0","0","0","43279","","null","","","null","35","","","","","","","","","","","","","","","",""
"","ISI","","html-keyboard-response","228","5342226","0.0-1.0-318.0","0","0","43279","","null","","","null","35","NaN","","","","","","","","","","","","","","",""
"","S2","","html-keyboard-response","229","5342479","0.0-1.0-319.0","0","0","43279","","null","","","null","35","","NaN","","","","","","","","","","","","","",""
"","response","","html-keyboard-response","230","5342642","0.0-1.0-320.0-0.0","0","0","43279","","161","","","75","35","","","1","35","training","adjacent","BC","2","3","N.jpg","M.jpg","1","1","1","",""
"","feedback","","html-keyboard-response","231","5343645","0.0-1.0-321.0-0.0","0","0","43279","","null","","","null","35","","","","","","","","","","","","","","","",""
"","ITI","","html-keyboard-response","232","5344647","0.0-1.0-324.0","0","0","43279","","null","","","null","35","","","","","","","","","","","","","","","NaN",""
"","S1","","html-keyboard-response","233","5344900","0.0-1.0-326.0","0","0","43279","","null","","","null","36","","","","","","","","","","","","","","","",""
"","ISI","","html-keyboard-response","234","5345053","0.0-1.0-327.0","0","0","43279","","null","","","null","36","NaN","","","","","","","","","","","","","","",""
"","S2","","html-keyboard-response","235","5345306","0.0-1.0-328.0","0","0","43279","","null","","","null","36","","NaN","","","","","","","","","","","","","",""
"","response","","html-keyboard-response","236","5345399","0.0-1.0-329.0-0.0","0","0","43279","","91","","","75","36","","","1","36","training","adjacent","AB","1","2","O.jpg","N.jpg","1","1","1","",""
"","feedback","","html-keyboard-response","237","5346403","0.0-1.0-330.0-0.0","0","0","43279","","null","","","null","36","","","","","","","","","","","","","","","",""
"","ITI","","html-keyboard-response","238","5347406","0.0-1.0-333.0","0","0","43279","","null","","","null","36","","","","","","","","","","","","","","","NaN",""
"","S1","","html-keyboard-response","239","5347660","0.0-1.0-335.0","0","0","43279","","null","","","null","37","","","","","","","","","","","","","","","",""
"","ISI","","html-keyboard-response","240","5347814","0.0-1.0-336.0","0","0","43279","","null","","","null","37","NaN","","","","","","","","","","","","","","",""
"","S2","","html-keyboard-response","241","5348067","0.0-1.0-337.0","0","0","43279","","null","","","null","37","","NaN","","","","","","","","","","","","","",""
"","response","","html-keyboard-response","242","5348181","0.0-1.0-338.0-0.0","0","0","43279","","113","","","68","37","","","1","37","training","adjacent","DE","4","5","L.jpg","P.jpg","0","1","0","",""
"","feedback","","html-keyboard-response","243","5349184","0.0-1.0-339.0-0.0","0","0","43279","","null","","","null","37","","","","","","","","","","","","","","","",""
"","time_out","","html-keyboard-response","244","5351187","0.0-1.0-341.0-0.0","0","0","43279","","null","","","null","37","","","","","","","","","","","","","","","",""
"","ITI","","html-keyboard-response","245","5352190","0.0-1.0-342.0","0","0","43279","","null","","","null","37","","","","","","","","","","","","","","","NaN",""
"","S1","","html-keyboard-response","246","5352443","0.0-1.0-344.0","0","0","43279","","null","","","null","38","","","","","","","","","","","","","","","",""
"","ISI","","html-keyboard-response","247","5352596","0.0-1.0-345.0","0","0","43279","","null","","","null","38","NaN","","","","","","","","","","","","","","",""
"","S2","","html-keyboard-response","248","5352798","0.0-1.0-346.0","0","0","43279","","199","","","68","38","","d","1","38","training","adjacent","AB","1","2","O.jpg","N.jpg","0","1","0","",""
"","feedback","","html-keyboard-response","249","5353801","0.0-1.0-348.0-0.0","0","0","43279","","null","","","null","38","","","","","","","","","","","","","","","",""
"","time_out","","html-keyboard-response","250","5355803","0.0-1.0-350.0-0.0","0","0","43279","","null","","","null","38","","","","","","","","","","","","","","","",""
"","ITI","","html-keyboard-response","251","5356806","0.0-1.0-351.0","0","0","43279","","null","","","null","38","","","","","","","","","","","","","","","NaN",""
"","S1","","html-keyboard-response","252","5357058","0.0-1.0-353.0","0","0","43279","","null","","","null","39","","","","","","","","","","","","","","","",""
"","ISI","","html-keyboard-response","253","5357211","0.0-1.0-354.0","0","0","43279","","null","","","null","39","NaN","","","","","","","","","","","","","","",""
"","S2","","html-keyboard-response","254","5357461","0.0-1.0-355.0","0","0","43279","","248","","","68","39","","d","1","39","training","adjacent","EF","5","6","P.jpg","R.jpg","0","1","0","",""
"","feedback","","html-keyboard-response","255","5358466","0.0-1.0-357.0-0.0","0","0","43279","","null","","","null","39","","","","","","","","","","","","","","","",""
"","time_out","","html-keyboard-response","256","5360468","0.0-1.0-359.0-0.0","0","0","43279","","null","","","null","39","","","","","","","","","","","","","","","",""
"","ITI","","html-keyboard-response","257","5361470","0.0-1.0-360.0","0","0","43279","","null","","","null","39","","","","","","","","","","","","","","","NaN",""
"","S1","","html-keyboard-response","258","5361723","0.0-1.0-362.0","0","0","43279","","null","","","null","40","","","","","","","","","","","","","","","",""
"","ISI","","html-keyboard-response","259","5361876","0.0-1.0-363.0","0","0","43279","","null","","","null","40","NaN","","","","","","","","","","","","","","",""
"","S2","","html-keyboard-response","260","5362099","0.0-1.0-364.0","0","0","43279","","221","","","75","40","","k","1","40","training","adjacent","CD","3","4","M.jpg","L.jpg","1","1","1","",""
"","feedback","","html-keyboard-response","261","5363101","0.0-1.0-366.0-0.0","0","0","43279","","null","","","null","40","","","","","","","","","","","","","","","",""
"","ITI","","html-keyboard-response","262","5364103","0.0-1.0-369.0","0","0","43279","","null","","","null","40","","","","","","","","","","","","","","","NaN",""
"","S1","","html-keyboard-response","263","5364356","0.0-1.0-371.0","0","0","43279","","null","","","null","41","","","","","","","","","","","","","","","",""
"","ISI","","html-keyboard-response","264","5364508","0.0-1.0-372.0","0","0","43279","","null","","","null","41","NaN","","","","","","","","","","","","","","",""
"","S2","","html-keyboard-response","265","5364761","0.0-1.0-373.0","0","0","43279","","null","","","null","41","","NaN","","","","","","","","","","","","","",""
"","response","","html-keyboard-response","266","5364771","0.0-1.0-374.0-0.0","0","0","43279","","8","","","75","41","","","1","41","training","adjacent","FE","6","5","R.jpg","P.jpg","1","0","0","",""
"","feedback","","html-keyboard-response","267","5365775","0.0-1.0-375.0-0.0","0","0","43279","","null","","","null","41","","","","","","","","","","","","","","","",""
"","time_out","","html-keyboard-response","268","5367778","0.0-1.0-377.0-0.0","0","0","43279","","null","","","null","41","","","","","","","","","","","","","","","",""
"","ITI","","html-keyboard-response","269","5368780","0.0-1.0-378.0","0","0","43279","","null","","","null","41","","","","","","","","","","","","","","","NaN",""
"","S1","","html-keyboard-response","270","5369033","0.0-1.0-380.0","0","0","43279","","null","","","null","42","","","","","","","","","","","","","","","",""
"","ISI","","html-keyboard-response","271","5369186","0.0-1.0-381.0","0","0","43279","","null","","","null","42","NaN","","","","","","","","","","","","","","",""
"","S2","","html-keyboard-response","272","5369297","0.0-1.0-382.0","0","0","43279","","109","","","68","42","","d","1","42","training","adjacent","ED","5","4","P.jpg","L.jpg","0","0","1","",""
"","feedback","","html-keyboard-response","273","5370301","0.0-1.0-384.0-0.0","0","0","43279","","null","","","null","42","","","","","","","","","","","","","","","",""
"","ITI","","html-keyboard-response","274","5371304","0.0-1.0-387.0","0","0","43279","","null","","","null","42","","","","","","","","","","","","","","","NaN",""
"","S1","","html-keyboard-response","275","5371556","0.0-1.0-389.0","0","0","43279","","null","","","null","43","","","","","","","","","","","","","","","",""
"","ISI","","html-keyboard-response","276","5371708","0.0-1.0-390.0","0","0","43279","","null","","","null","43","NaN","","","","","","","","","","","","","","",""
"","S2","","html-keyboard-response","277","5371926","0.0-1.0-391.0","0","0","43279","","215","","","68","43","","d","1","43","training","adjacent","CD","3","4","M.jpg","L.jpg","0","1","0","",""
"","feedback","","html-keyboard-response","278","5372938","0.0-1.0-393.0-0.0","0","0","43279","","null","","","null","43","","","","","","","","","","","","","","","",""
"","time_out","","html-keyboard-response","279","5374940","0.0-1.0-395.0-0.0","0","0","43279","","null","","","null","43","","","","","","","","","","","","","","","",""
"","ITI","","html-keyboard-response","280","5375943","0.0-1.0-396.0","0","0","43279","","null","","","null","43","","","","","","","","","","","","","","","NaN",""
"","S1","","html-keyboard-response","281","5376196","0.0-1.0-398.0","0","0","43279","","null","","","null","44","","","","","","","","","","","","","","","",""
"","ISI","","html-keyboard-response","282","5376349","0.0-1.0-399.0","0","0","43279","","null","","","null","44","NaN","","","","","","","","","","","","","","",""
"","S2","","html-keyboard-response","283","5376545","0.0-1.0-400.0","0","0","43279","","194","","","75","44","","k","1","44","training","adjacent","EF","5","6","P.jpg","R.jpg","1","1","1","",""
"","feedback","","html-keyboard-response","284","5377549","0.0-1.0-402.0-0.0","0","0","43279","","null","","","null","44","","","","","","","","","","","","","","","",""
"","ITI","","html-keyboard-response","285","5378552","0.0-1.0-405.0","0","0","43279","","null","","","null","44","","","","","","","","","","","","","","","NaN",""
"","S1","","html-keyboard-response","286","5378804","0.0-1.0-407.0","0","0","43279","","null","","","null","45","","","","","","","","","","","","","","","",""
"","ISI","","html-keyboard-response","287","5378957","0.0-1.0-408.0","0","0","43279","","null","","","null","45","NaN","","","","","","","","","","","","","","",""
"","S2","","html-keyboard-response","288","5379210","0.0-1.0-409.0","0","0","43279","","null","","","null","45","","NaN","","","","","","","","","","","","","",""
"","response","","html-keyboard-response","289","5379220","0.0-1.0-410.0-0.0","0","0","43279","","10","","","75","45","","","1","45","training","adjacent","ED","5","4","P.jpg","L.jpg","1","0","0","",""
"","feedback","","html-keyboard-response","290","5380224","0.0-1.0-411.0-0.0","0","0","43279","","null","","","null","45","","","","","","","","","","","","","","","",""
"","time_out","","html-keyboard-response","291","5382227","0.0-1.0-413.0-0.0","0","0","43279","","null","","","null","45","","","","","","","","","","","","","","","",""
"","ITI","","html-keyboard-response","292","5383229","0.0-1.0-414.0","0","0","43279","","null","","","null","45","","","","","","","","","","","","","","","NaN",""
"","S1","","html-keyboard-response","293","5383483","0.0-1.0-416.0","0","0","43279","","null","","","null","46","","","","","","","","","","","","","","","",""
"","ISI","","html-keyboard-response","294","5383641","0.0-1.0-417.0","0","0","43279","","null","","","null","46","NaN","","","","","","","","","","","","","","",""
"","S2","","html-keyboard-response","295","5383782","0.0-1.0-418.0","0","0","43279","","139","","","75","46","","k","1","46","training","adjacent","FE","6","5","R.jpg","P.jpg","1","0","0","",""
"","feedback","","html-keyboard-response","296","5384785","0.0-1.0-420.0-0.0","0","0","43279","","null","","","null","46","","","","","","","","","","","","","","","",""
"","time_out","","html-keyboard-response","297","5386788","0.0-1.0-422.0-0.0","0","0","43279","","null","","","null","46","","","","","","","","","","","","","","","",""
"","ITI","","html-keyboard-response","298","5387790","0.0-1.0-423.0","0","0","43279","","null","","","null","46","","","","","","","","","","","","","","","NaN",""
"","S1","","html-keyboard-response","299","5388044","0.0-1.0-425.0","0","0","43279","","null","","","null","47","","","","","","","","","","","","","","","",""
"","ISI","","html-keyboard-response","300","5388196","0.0-1.0-426.0","0","0","43279","","null","","","null","47","NaN","","","","","","","","","","","","","","",""
"","S2","","html-keyboard-response","301","5388449","0.0-1.0-427.0","0","0","43279","","null","","","null","47","","NaN","","","","","","","","","","","","","",""
"","response","","html-keyboard-response","302","5388549","0.0-1.0-428.0-0.0","0","0","43279","","98","","","68","47","","","1","47","training","adjacent","CB","3","2","M.jpg","N.jpg","0","0","1","",""
"","feedback","","html-keyboard-response","303","5389552","0.0-1.0-429.0-0.0","0","0","43279","","null","","","null","47","","","","","","","","","","","","","","","",""
"","ITI","","html-keyboard-response","304","5390555","0.0-1.0-432.0","0","0","43279","","null","","","null","47","","","","","","","","","","","","","","","NaN",""
"","block_over","","html-keyboard-response","305","5393028","0.0-1.0-433.0-0.0","0","0","43279","","2470","","","32","47","","","","","","","","","","","","","","","",""
"","S1","","html-keyboard-response","306","5393281","0.0-1.0-434.0","0","0","43279","","null","","","null","48","","","","","","","","","","","","","","","",""
"","ISI","","html-keyboard-response","307","5393433","0.0-1.0-435.0","0","0","43279","","null","","","null","48","NaN","","","","","","","","","","","","","","",""
"","S2","","html-keyboard-response","308","5393663","0.0-1.0-436.0","0","0","43279","","228","","","68","48","","d","2","48","training","adjacent","AB","1","2","O.jpg","N.jpg","0","1","0","",""
"","feedback","","html-keyboard-response","309","5394667","0.0-1.0-438.0-0.0","0","0","43279","","null","","","null","48","","","","","","","","","","","","","","","",""
"","time_out","","html-keyboard-response","310","5396670","0.0-1.0-440.0-0.0","0","0","43279","","null","","","null","48","","","","","","","","","","","","","","","",""
"","ITI","","html-keyboard-response","311","5397673","0.0-1.0-441.0","0","0","43279","","null","","","null","48","","","","","","","","","","","","","","","NaN",""
"","S1","","html-keyboard-response","312","5397925","0.0-1.0-443.0","0","0","43279","","null","","","null","49","","","","","","","","","","","","","","","",""
"","ISI","","html-keyboard-response","313","5398077","0.0-1.0-444.0","0","0","43279","","null","","","null","49","NaN","","","","","","","","","","","","","","",""
"","S2","","html-keyboard-response","314","5398330","0.0-1.0-445.0","0","0","43279","","null","","","null","49","","NaN","","","","","","","","","","","","","",""
"","response","","html-keyboard-response","315","5398376","0.0-1.0-446.0-0.0","0","0","43279","","45","","","75","49","","","2","49","training","adjacent","DE","4","5","L.jpg","P.jpg","1","1","1","",""
"","feedback","","html-keyboard-response","316","5399379","0.0-1.0-447.0-0.0","0","0","43279","","null","","","null","49","","","","","","","","","","","","","","","",""
"","ITI","","html-keyboard-response","317","5400382","0.0-1.0-450.0","0","0","43279","","null","","","null","49","","","","","","","","","","","","","","","NaN",""
"","S1","","html-keyboard-response","318","5400635","0.0-1.0-452.0","0","0","43279","","null","","","null","50","","","","","","","","","","","","","","","",""
"","ISI","","html-keyboard-response","319","5400788","0.0-1.0-453.0","0","0","43279","","null","","","null","50","NaN","","","","","","","","","","","","","","",""
"","S2","","html-keyboard-response","320","5401040","0.0-1.0-454.0","0","0","43279","","null","","","null","50","","NaN","","","","","","","","","","","","","",""
"","response","","html-keyboard-response","321","5401084","0.0-1.0-455.0-0.0","0","0","43279","","42","","","75","50","","","2","50","training","adjacent","ED","5","4","P.jpg","L.jpg","1","0","0","",""
"","feedback","","html-keyboard-response","322","5402086","0.0-1.0-456.0-0.0","0","0","43279","","null","","","null","50","","","","","","","","","","","","","","","",""
"","time_out","","html-keyboard-response","323","5404088","0.0-1.0-458.0-0.0","0","0","43279","","null","","","null","50","","","","","","","","","","","","","","","",""
"","ITI","","html-keyboard-response","324","5405091","0.0-1.0-459.0","0","0","43279","","null","","","null","50","","","","","","","","","","","","","","","NaN",""
"","S1","","html-keyboard-response","325","5405344","0.0-1.0-461.0","0","0","43279","","null","","","null","51","","","","","","","","","","","","","","","",""
"","ISI","","html-keyboard-response","326","5405496","0.0-1.0-462.0","0","0","43279","","null","","","null","51","NaN","","","","","","","","","","","","","","",""
"","S2","","html-keyboard-response","327","5405749","0.0-1.0-463.0","0","0","43279","","null","","","null","51","","NaN","","","","","","","","","","","","","",""
"","response","","html-keyboard-response","328","5405809","0.0-1.0-464.0-0.0","0","0","43279","","59","","","68","51","","","2","51","training","adjacent","DC","4","3","L.jpg","M.jpg","0","0","1","",""
"","feedback","","html-keyboard-response","329","5406811","0.0-1.0-465.0-0.0","0","0","43279","","null","","","null","51","","","","","","","","","","","","","","","",""
"","ITI","","html-keyboard-response","330","5407814","0.0-1.0-468.0","0","0","43279","","null","","","null","51","","","","","","","","","","","","","","","NaN",""
"","S1","","html-keyboard-response","331","5408066","0.0-1.0-470.0","0","0","43279","","null","","","null","52","","","","","","","","","","","","","","","",""
"","ISI","","html-keyboard-response","332","5408219","0.0-1.0-471.0","0","0","43279","","null","","","null","52","NaN","","","","","","","","","","","","","","",""
"","S2","","html-keyboard-response","333","5408434","0.0-1.0-472.0","0","0","43279","","213","","","75","52","","k","2","52","training","adjacent","FE","6","5","R.jpg","P.jpg","1","0","0","",""
"","feedback","","html-keyboard-response","334","5409437","0.0-1.0-474.0-0.0","0","0","43279","","null","","","null","52","","","","","","","","","","","","","","","",""
"","time_out","","html-keyboard-response","335","5411440","0.0-1.0-476.0-0.0","0","0","43279","","null","","","null","52","","","","","","","","","","","","","","","",""
"","ITI","","html-keyboard-response","336","5412443","0.0-1.0-477.0","0","0","43279","","null","","","null","52","","","","","","","","","","","","","","","NaN",""
"","S1","","html-keyboard-response","337","5412696","0.0-1.0-479.0","0","0","43279","","null","","","null","53","","","","","","","","","","","","","","","",""
"","ISI","","html-keyboard-response","338","5412849","0.0-1.0-480.0","0","0","43279","","null","","","null","53","NaN","","","","","","","","","","","","","","",""
"","S2","","html-keyboard-response","339","5413091","0.0-1.0-481.0","0","0","43279","","240","","","68","53","","d","2","53","training","adjacent","GF","7","6","Q.jpg","R.jpg","0","0","1","",""
"","feedback","","html-keyboard-response","340","5414094","0.0-1.0-483.0-0.0","0","0","43279","","null","","","null","53","","","","","","","","","","","","","","","",""
"","ITI","","html-keyboard-response","341","5415097","0.0-1.0-486.0","0","0","43279","","null","","","null","53","","","","","","","","","","","","","","","NaN",""
"","S1","","html-keyboard-response","342","5415350","0.0-1.0-488.0","0","0","43279","","null","","","null","54","","","","","","","","","","","","","","","",""
"","ISI","","html-keyboard-response","343","5415502","0.0-1.0-489.0","0","0","43279","","null","","","null","54","NaN","","","","","","","","","","","","","","",""
"","S2","","html-keyboard-response","344","5415754","0.0-1.0-490.0","0","0","43279","","null","","","null","54","","NaN","","","","","","","","","","","","","",""
"","response","","html-keyboard-response","345","5415767","0.0-1.0-491.0-0.0","0","0","43279","","11","","","68","54","","","2","54","training","adjacent","AB","1","2","O.jpg","N.jpg","0","1","0","",""
"","feedback","","html-keyboard-response","346","5416769","0.0-1.0-492.0-0.0","0","0","43279","","null","","","null","54","","","","","","","","","","","","","","","",""
"","time_out","","html-keyboard-response","347","5418773","0.0-1.0-494.0-0.0","0","0","43279","","null","","","null","54","","","","","","","","","","","","","","","",""
"","ITI","","html-keyboard-response","348","5419775","0.0-1.0-495.0","0","0","43279","","null","","","null","54","","","","","","","","","","","","","","","NaN",""
"","S1","","html-keyboard-response","349","5420028","0.0-1.0-497.0","0","0","43279","","null","","","null","55","","","","","","","","","","","","","","","",""
"","ISI","","html-keyboard-response","350","5420181","0.0-1.0-498.0","0","0","43279","","null","","","null","55","NaN","","","","","","","","","","","","","","",""
"","S2","","html-keyboard-response","351","5420277","0.0-1.0-499.0","0","0","43279","","94","","","75","55","","k","2","55","training","adjacent","GF","7","6","Q.jpg","R.jpg","1","0","0","",""
"","feedback","","html-keyboard-response","352","5421281","0.0-1.0-501.0-0.0","0","0","43279","","null","","","null","55","","","","","","","","","","","","","","","",""
"","time_out","","html-keyboard-response","353","5423284","0.0-1.0-503.0-0.0","0","0","43279","","null","","","null","55","","","","","","","","","","","","","","","",""
"","ITI","","html-keyboard-response","354","5424287","0.0-1.0-504.0","0","0","43279","","null","","","null","55","","","","","","","","","","","","","","","NaN",""
"","S1","","html-keyboard-response","355","5424539","0.0-1.0-506.0","0","0","43279","","null","","","null","56","","","","","","","","","","","","","","","",""
"","ISI","","html-keyboard-response","356","5424693","0.0-1.0-507.0","0","0","43279","","null","","","null","56","NaN","","","","","","","","","","","","","","",""
"","S2","","html-keyboard-response","357","5424946","0.0-1.0-508.0","0","0","43279","","null","","","null","56","","NaN","","","","","","","","","","","","","",""
"","response","","html-keyboard-response","358","5424947","0.0-1.0-509.0-0.0","0","0","43279","","0","","","68","56","","","2","56","training","adjacent","BA","2","1","N.jpg","O.jpg","0","0","1","",""
"","feedback","","html-keyboard-response","359","5425950","0.0-1.0-510.0-0.0","0","0","43279","","null","","","null","56","","","","","","","","","","","","","","","",""
"","ITI","","html-keyboard-response","360","5426952","0.0-1.0-513.0","0","0","43279","","null","","","null","56","","","","","","","","","","","","","","","NaN",""
"","S1","","html-keyboard-response","361","5427216","0.0-1.0-515.0","0","0","43279","","null","","","null","57","","","","","","","","","","","","","","","",""
"","ISI","","html-keyboard-response","362","5427370","0.0-1.0-516.0","0","0","43279","","null","","","null","57","NaN","","","","","","","","","","","","","","",""
"","S2","","html-keyboard-response","363","5427624","0.0-1.0-517.0","0","0","43279","","null","","","null","57","","NaN","","","","","","","","","","","","","",""
"","response","","html-keyboard-response","364","5427654","0.0-1.0-518.0-0.0","0","0","43279","","28","","","68","57","","","2","57","training","adjacent","BC","2","3","N.jpg","M.jpg","0","1","0","",""
"","feedback","","html-keyboard-response","365","5428666","0.0-1.0-519.0-0.0","0","0","43279","","null","","","null","57","","","","","","","","","","","","","","","",""
"","time_out","","html-keyboard-response","366","5430670","0.0-1.0-521.0-0.0","0","0","43279","","null","","","null","57","","","","","","","","","","","","","","","",""
"","ITI","","html-keyboard-response","367","5431672","0.0-1.0-522.0","0","0","43279","","null","","","null","57","","","","","","","","","","","","","","","NaN",""
"","S1","","html-keyboard-response","368","5431926","0.0-1.0-524.0","0","0","43279","","null","","","null","58","","","","","","","","","","","","","","","",""
"","ISI","","html-keyboard-response","369","5432078","0.0-1.0-525.0","0","0","43279","","null","","","null","58","NaN","","","","","","","","","","","","","","",""
"","S2","","html-keyboard-response","370","5432318","0.0-1.0-526.0","0","0","43279","","238","","","75","58","","k","2","58","training","adjacent","FE","6","5","R.jpg","P.jpg","1","0","0","",""
"","feedback","","html-keyboard-response","371","5433321","0.0-1.0-528.0-0.0","0","0","43279","","null","","","null","58","","","","","","","","","","","","","","","",""
"","time_out","","html-keyboard-response","372","5435324","0.0-1.0-530.0-0.0","0","0","43279","","null","","","null","58","","","","","","","","","","","","","","","",""
"","ITI","","html-keyboard-response","373","5436326","0.0-1.0-531.0","0","0","43279","","null","","","null","58","","","","","","","","","","","","","","","NaN",""
"","S1","","html-keyboard-response","374","5436579","0.0-1.0-533.0","0","0","43279","","null","","","null","59","","","","","","","","","","","","","","","",""
"","ISI","","html-keyboard-response","375","5436732","0.0-1.0-534.0","0","0","43279","","null","","","null","59","NaN","","","","","","","","","","","","","","",""
"","S2","","html-keyboard-response","376","5436985","0.0-1.0-535.0","0","0","43279","","null","","","null","59","","NaN","","","","","","","","","","","","","",""
"","response","","html-keyboard-response","377","5437030","0.0-1.0-536.0-0.0","0","0","43279","","44","","","68","59","","","2","59","training","adjacent","CB","3","2","M.jpg","N.jpg","0","0","1","",""
"","feedback","","html-keyboard-response","378","5438033","0.0-1.0-537.0-0.0","0","0","43279","","null","","","null","59","","","","","","","","","","","","","","","",""
"","ITI","","html-keyboard-response","379","5439036","0.0-1.0-540.0","0","0","43279","","null","","","null","59","","","","","","","","","","","","","","","NaN",""
"","S1","","html-keyboard-response","380","5439290","0.0-1.0-542.0","0","0","43279","","null","","","null","60","","","","","","","","","","","","","","","",""
"","ISI","","html-keyboard-response","381","5439442","0.0-1.0-543.0","0","0","43279","","null","","","null","60","NaN","","","","","","","","","","","","","","",""
"","S2","","html-keyboard-response","382","5439695","0.0-1.0-544.0","0","0","43279","","null","","","null","60","","NaN","","","","","","","","","","","","","",""
"","response","","html-keyboard-response","383","5439767","0.0-1.0-545.0-0.0","0","0","43279","","70","","","68","60","","","2","60","training","adjacent","ED","5","4","P.jpg","L.jpg","0","0","1","",""
"","feedback","","html-keyboard-response","384","5440770","0.0-1.0-546.0-0.0","0","0","43279","","null","","","null","60","","","","","","","","","","","","","","","",""
"","ITI","","html-keyboard-response","385","5441772","0.0-1.0-549.0","0","0","43279","","null","","","null","60","","","","","","","","","","","","","","","NaN",""
"","S1","","html-keyboard-response","386","5442026","0.0-1.0-551.0","0","0","43279","","null","","","null","61","","","","","","","","","","","","","","","",""
"","ISI","","html-keyboard-response","387","5442178","0.0-1.0-552.0","0","0","43279","","null","","","null","61","NaN","","","","","","","","","","","","","","",""
"","S2","","html-keyboard-response","388","5442431","0.0-1.0-553.0","0","0","43279","","null","","","null","61","","NaN","","","","","","","","","","","","","",""
"","response","","html-keyboard-response","389","5442531","0.0-1.0-554.0-0.0","0","0","43279","","99","","","75","61","","","2","61","training","adjacent","CD","3","4","M.jpg","L.jpg","1","1","1","",""
"","feedback","","html-keyboard-response","390","5443534","0.0-1.0-555.0-0.0","0","0","43279","","null","","","null","61","","","","","","","","","","","","","","","",""
"","ITI","","html-keyboard-response","391","5444537","0.0-1.0-558.0","0","0","43279","","null","","","null","61","","","","","","","","","","","","","","","NaN",""
"","S1","","html-keyboard-response","392","5444790","0.0-1.0-560.0","0","0","43279","","null","","","null","62","","","","","","","","","","","","","","","",""
"","ISI","","html-keyboard-response","393","5444942","0.0-1.0-561.0","0","0","43279","","null","","","null","62","NaN","","","","","","","","","","","","","","",""
"","S2","","html-keyboard-response","394","5445195","0.0-1.0-562.0","0","0","43279","","null","","","null","62","","NaN","","","","","","","","","","","","","",""
"","response","","html-keyboard-response","395","5445296","0.0-1.0-563.0-0.0","0","0","43279","","99","","","75","62","","","2","62","training","adjacent","DC","4","3","L.jpg","M.jpg","1","0","0","",""
"","feedback","","html-keyboard-response","396","5446299","0.0-1.0-564.0-0.0","0","0","43279","","null","","","null","62","","","","","","","","","","","","","","","",""
"","time_out","","html-keyboard-response","397","5448301","0.0-1.0-566.0-0.0","0","0","43279","","null","","","null","62","","","","","","","","","","","","","","","",""
"","ITI","","html-keyboard-response","398","5449304","0.0-1.0-567.0","0","0","43279","","null","","","null","62","","","","","","","","","","","","","","","NaN",""
"","S1","","html-keyboard-response","399","5449557","0.0-1.0-569.0","0","0","43279","","null","","","null","63","","","","","","","","","","","","","","","",""
"","ISI","","html-keyboard-response","400","5449710","0.0-1.0-570.0","0","0","43279","","null","","","null","63","NaN","","","","","","","","","","","","","","",""
"","S2","","html-keyboard-response","401","5449963","0.0-1.0-571.0","0","0","43279","","null","","","null","63","","NaN","","","","","","","","","","","","","",""
"","response","","html-keyboard-response","402","5450071","0.0-1.0-572.0-0.0","0","0","43279","","105","","","75","63","","","2","63","training","adjacent","FE","6","5","R.jpg","P.jpg","1","0","0","",""
"","feedback","","html-keyboard-response","403","5451073","0.0-1.0-573.0-0.0","0","0","43279","","null","","","null","63","","","","","","","","","","","","","","","",""
"","time_out","","html-keyboard-response","404","5453075","0.0-1.0-575.0-0.0","0","0","43279","","null","","","null","63","","","","","","","","","","","","","","","",""
"","ITI","","html-keyboard-response","405","5454079","0.0-1.0-576.0","0","0","43279","","null","","","null","63","","","","","","","","","","","","","","","NaN",""
"","S1","","html-keyboard-response","406","5454332","0.0-1.0-578.0","0","0","43279","","null","","","null","64","","","","","","","","","","","","","","","",""
"","ISI","","html-keyboard-response","407","5454486","0.0-1.0-579.0","0","0","43279","","null","","","null","64","NaN","","","","","","","","","","","","","","",""
"","S2","","html-keyboard-response","408","5454740","0.0-1.0-580.0","0","0","43279","","null","","","null","64","","NaN","","","","","","","","","","","","","",""
"","response","","html-keyboard-response","409","5454773","0.0-1.0-581.0-0.0","0","0","43279","","30","","","68","64","","","2","64","training","adjacent","DC","4","3","L.jpg","M.jpg","0","0","1","",""
"","feedback","","html-keyboard-response","410","5455776","0.0-1.0-582.0-0.0","0","0","43279","","null","","","null","64","","","","","","","","","","","","","","","",""
"","ITI","","html-keyboard-response","411","5456778","0.0-1.0-585.0","0","0","43279","","null","","","null","64","","","","","","","","","","","","","","","NaN",""
"","S1","","html-keyboard-response","412","5457032","0.0-1.0-587.0","0","0","43279","","null","","","null","65","","","","","","","","","","","","","","","",""
"","ISI","","html-keyboard-response","413","5457184","0.0-1.0-588.0","0","0","43279","","null","","","null","65","NaN","","","","","","","","","","","","","","",""
"","S2","","html-keyboard-response","414","5457438","0.0-1.0-589.0","0","0","43279","","null","","","null","65","","NaN","","","","","","","","","","","","","",""
"","response","","html-keyboard-response","415","5457462","0.0-1.0-590.0-0.0","0","0","43279","","23","","","68","65","","","2","65","training","adjacent","BA","2","1","N.jpg","O.jpg","0","0","1","",""
"","feedback","","html-keyboard-response","416","5458465","0.0-1.0-591.0-0.0","0","0","43279","","null","","","null","65","","","","","","","","","","","","","","","",""
"","ITI","","html-keyboard-response","417","5459469","0.0-1.0-594.0","0","0","43279","","null","","","null","65","","","","","","","","","","","","","","","NaN",""
"","S1","","html-keyboard-response","418","5459722","0.0-1.0-596.0","0","0","43279","","null","","","null","66","","","","","","","","","","","","","","","",""
"","ISI","","html-keyboard-response","419","5459880","0.0-1.0-597.0","0","0","43279","","null","","","null","66","NaN","","","","","","","","","","","","","","",""
"","S2","","html-keyboard-response","420","5460133","0.0-1.0-598.0","0","0","43279","","null","","","null","66","","NaN","","","","","","","","","","","","","",""
"","response","","html-keyboard-response","421","5460181","0.0-1.0-599.0-0.0","0","0","43279","","47","","","75","66","","","2","66","training","adjacent","EF","5","6","P.jpg","R.jpg","1","1","1","",""
"","feedback","","html-keyboard-response","422","5461184","0.0-1.0-600.0-0.0","0","0","43279","","null","","","null","66","","","","","","","","","","","","","","","",""
"","ITI","","html-keyboard-response","423","5462188","0.0-1.0-603.0","0","0","43279","","null","","","null","66","","","","","","","","","","","","","","","NaN",""
"","S1","","html-keyboard-response","424","5462440","0.0-1.0-605.0","0","0","43279","","null","","","null","67","","","","","","","","","","","","","","","",""
"","ISI","","html-keyboard-response","425","5462593","0.0-1.0-606.0","0","0","43279","","null","","","null","67","NaN","","","","","","","","","","","","","","",""
"","S2","","html-keyboard-response","426","5462847","0.0-1.0-607.0","0","0","43279","","null","","","null","67","","NaN","","","","","","","","","","","","","",""
"","response","","html-keyboard-response","427","5463036","0.0-1.0-608.0-0.0","0","0","43279","","188","","","75","67","","","2","67","training","adjacent","CB","3","2","M.jpg","N.jpg","1","0","0","",""
"","feedback","","html-keyboard-response","428","5464039","0.0-1.0-609.0-0.0","0","0","43279","","null","","","null","67","","","","","","","","","","","","","","","",""
"","time_out","","html-keyboard-response","429","5466042","0.0-1.0-611.0-0.0","0","0","43279","","null","","","null","67","","","","","","","","","","","","","","","",""
"","ITI","","html-keyboard-response","430","5467046","0.0-1.0-612.0","0","0","43279","","null","","","null","67","","","","","","","","","","","","","","","NaN",""
"","S1","","html-keyboard-response","431","5467299","0.0-1.0-614.0","0","0","43279","","null","","","null","68","","","","","","","","","","","","","","","",""
"","ISI","","html-keyboard-response","432","5467452","0.0-1.0-615.0","0","0","43279","","null","","","null","68","NaN","","","","","","","","","","","","","","",""
"","S2","","html-keyboard-response","433","5467705","0.0-1.0-616.0","0","0","43279","","null","","","null","68","","NaN","","","","","","","","","","","","","",""
"","response","","html-keyboard-response","434","5467773","0.0-1.0-617.0-0.0","0","0","43279","","66","","","68","68","","","2","68","training","adjacent","AB","1","2","O.jpg","N.jpg","0","1","0","",""
"","feedback","","html-keyboard-response","435","5468777","0.0-1.0-618.0-0.0","0","0","43279","","null","","","null","68","","","","","","","","","","","","","","","",""
"","time_out","","html-keyboard-response","436","5470780","0.0-1.0-620.0-0.0","0","0","43279","","null","","","null","68","","","","","","","","","","","","","","","",""
"","ITI","","html-keyboard-response","437","5471783","0.0-1.0-621.0","0","0","43279","","null","","","null","68","","","","","","","","","","","","","","","NaN",""
"","S1","","html-keyboard-response","438","5472036","0.0-1.0-623.0","0","0","43279","","null","","","null","69","","","","","","","","","","","","","","","",""
"","ISI","","html-keyboard-response","439","5472188","0.0-1.0-624.0","0","0","43279","","null","","","null","69","NaN","","","","","","","","","","","","","","",""
"","S2","","html-keyboard-response","440","5472441","0.0-1.0-625.0","0","0","43279","","null","","","null","69","","NaN","","","","","","","","","","","","","",""
"","response","","html-keyboard-response","441","5472473","0.0-1.0-626.0-0.0","0","0","43279","","30","","","75","69","","","2","69","training","adjacent","ED","5","4","P.jpg","L.jpg","1","0","0","",""
"","feedback","","html-keyboard-response","442","5473477","0.0-1.0-627.0-0.0","0","0","43279","","null","","","null","69","","","","","","","","","","","","","","","",""
"","time_out","","html-keyboard-response","443","5475479","0.0-1.0-629.0-0.0","0","0","43279","","null","","","null","69","","","","","","","","","","","","","","","",""
"","ITI","","html-keyboard-response","444","5476482","0.0-1.0-630.0","0","0","43279","","null","","","null","69","","","","","","","","","","","","","","","NaN",""
"","S1","","html-keyboard-response","445","5476734","0.0-1.0-632.0","0","0","43279","","null","","","null","70","","","","","","","","","","","","","","","",""
"","ISI","","html-keyboard-response","446","5476887","0.0-1.0-633.0","0","0","43279","","null","","","null","70","NaN","","","","","","","","","","","","","","",""
"","S2","","html-keyboard-response","447","5477140","0.0-1.0-634.0","0","0","43279","","null","","","null","70","","NaN","","","","","","","","","","","","","",""
"","response","","html-keyboard-response","448","5477317","0.0-1.0-635.0-0.0","0","0","43279","","175","","","68","70","","","2","70","training","adjacent","DE","4","5","L.jpg","P.jpg","0","1","0","",""
"","feedback","","html-keyboard-response","449","5478320","0.0-1.0-636.0-0.0","0","0","43279","","null","","","null","70","","","","","","","","","","","","","","","",""
"","time_out","","html-keyboard-response","450","5480323","0.0-1.0-638.0-0.0","0","0","43279","","null","","","null","70","","","","","","","","","","","","","","","",""
"","ITI","","html-keyboard-response","451","5481326","0.0-1.0-639.0","0","0","43279","","null","","","null","70","","","","","","","","","","","","","","","NaN",""
"","S1","","html-keyboard-response","452","5481591","0.0-1.0-641.0","0","0","43279","","null","","","null","71","","","","","","","","","","","","","","","",""
"","ISI","","html-keyboard-response","453","5481744","0.0-1.0-642.0","0","0","43279","","null","","","null","71","NaN","","","","","","","","","","","","","","",""
"","S2","","html-keyboard-response","454","5481997","0.0-1.0-643.0","0","0","43279","","null","","","null","71","","NaN","","","","","","","","","","","","","",""
"","response","","html-keyboard-response","455","5482058","0.0-1.0-644.0-0.0","0","0","43279","","60","","","68","71","","","2","71","training","adjacent","FG","6","7","R.jpg","Q.jpg","0","1","0","",""
"","feedback","","html-keyboard-response","456","5483064","0.0-1.0-645.0-0.0","0","0","43279","","null","","","null","71","","","","","","","","","","","","","","","",""
"","time_out","","html-keyboard-response","457","5485068","0.0-1.0-647.0-0.0","0","0","43279","","null","","","null","71","","","","","","","","","","","","","","","",""
"","ITI","","html-keyboard-response","458","5486071","0.0-1.0-648.0","0","0","43279","","null","","","null","71","","","","","","","","","","","","","","","NaN",""
"","S1","","html-keyboard-response","459","5486324","0.0-1.0-650.0","0","0","43279","","null","","","null","72","","","","","","","","","","","","","","","",""
"","ISI","","html-keyboard-response","460","5486476","0.0-1.0-651.0","0","0","43279","","null","","","null","72","NaN","","","","","","","","","","","","","","",""
"","S2","","html-keyboard-response","461","5486730","0.0-1.0-652.0","0","0","43279","","null","","","null","72","","NaN","","","","","","","","","","","","","",""
"","response","","html-keyboard-response","462","5486762","0.0-1.0-653.0-0.0","0","0","43279","","30","","","75","72","","","2","72","training","adjacent","DE","4","5","L.jpg","P.jpg","1","1","1","",""
"","feedback","","html-keyboard-response","463","5487766","0.0-1.0-654.0-0.0","0","0","43279","","null","","","null","72","","","","","","","","","","","","","","","",""
"","ITI","","html-keyboard-response","464","5488769","0.0-1.0-657.0","0","0","43279","","null","","","null","72","","","","","","","","","","","","","","","NaN",""
"","S1","","html-keyboard-response","465","5489022","0.0-1.0-659.0","0","0","43279","","null","","","null","73","","","","","","","","","","","","","","","",""
"","ISI","","html-keyboard-response","466","5489175","0.0-1.0-660.0","0","0","43279","","null","","","null","73","NaN","","","","","","","","","","","","","","",""
"","S2","","html-keyboard-response","467","5489428","0.0-1.0-661.0","0","0","43279","","null","","","null","73","","NaN","","","","","","","","","","","","","",""
"","response","","html-keyboard-response","468","5489496","0.0-1.0-662.0-0.0","0","0","43279","","67","","","75","73","","","2","73","training","adjacent","EF","5","6","P.jpg","R.jpg","1","1","1","",""
"","feedback","","html-keyboard-response","469","5490499","0.0-1.0-663.0-0.0","0","0","43279","","null","","","null","73","","","","","","","","","","","","","","","",""
"","ITI","","html-keyboard-response","470","5491502","0.0-1.0-666.0","0","0","43279","","null","","","null","73","","","","","","","","","","","","","","","NaN",""
"","S1","","html-keyboard-response","471","5491754","0.0-1.0-668.0","0","0","43279","","null","","","null","74","","","","","","","","","","","","","","","",""
"","ISI","","html-keyboard-response","472","5491908","0.0-1.0-669.0","0","0","43279","","null","","","null","74","NaN","","","","","","","","","","","","","","",""
"","S2","","html-keyboard-response","473","5492161","0.0-1.0-670.0","0","0","43279","","null","","","null","74","","NaN","","","","","","","","","","","","","",""
"","response","","html-keyboard-response","474","5492238","0.0-1.0-671.0-0.0","0","0","43279","","76","","","68","74","","","2","74","training","adjacent","GF","7","6","Q.jpg","R.jpg","0","0","1","",""
"","feedback","","html-keyboard-response","475","5493242","0.0-1.0-672.0-0.0","0","0","43279","","null","","","null","74","","","","","","","","","","","","","","","",""
"","ITI","","html-keyboard-response","476","5494245","0.0-1.0-675.0","0","0","43279","","null","","","null","74","","","","","","","","","","","","","","","NaN",""
"","S1","","html-keyboard-response","477","5494498","0.0-1.0-677.0","0","0","43279","","null","","","null","75","","","","","","","","","","","","","","","",""
"","ISI","","html-keyboard-response","478","5494650","0.0-1.0-678.0","0","0","43279","","null","","","null","75","NaN","","","","","","","","","","","","","","",""
"","S2","","html-keyboard-response","479","5494903","0.0-1.0-679.0","0","0","43279","","null","","","null","75","","NaN","","","","","","","","","","","","","",""
"","response","","html-keyboard-response","480","5494964","0.0-1.0-680.0-0.0","0","0","43279","","59","","","68","75","","","2","75","training","adjacent","DE","4","5","L.jpg","P.jpg","0","1","0","",""
"","feedback","","html-keyboard-response","481","5495968","0.0-1.0-681.0-0.0","0","0","43279","","null","","","null","75","","","","","","","","","","","","","","","",""
"","time_out","","html-keyboard-response","482","5497971","0.0-1.0-683.0-0.0","0","0","43279","","null","","","null","75","","","","","","","","","","","","","","","",""
"","ITI","","html-keyboard-response","483","5498973","0.0-1.0-684.0","0","0","43279","","null","","","null","75","","","","","","","","","","","","","","","NaN",""
"","S1","","html-keyboard-response","484","5499234","0.0-1.0-686.0","0","0","43279","","null","","","null","76","","","","","","","","","","","","","","","",""
"","ISI","","html-keyboard-response","485","5499387","0.0-1.0-687.0","0","0","43279","","null","","","null","76","NaN","","","","","","","","","","","","","","",""
"","S2","","html-keyboard-response","486","5499630","0.0-1.0-688.0","0","0","43279","","241","","","68","76","","d","2","76","training","adjacent","BA","2","1","N.jpg","O.jpg","0","0","1","",""
"","feedback","","html-keyboard-response","487","5500634","0.0-1.0-690.0-0.0","0","0","43279","","null","","","null","76","","","","","","","","","","","","","","","",""
"","ITI","","html-keyboard-response","488","5501636","0.0-1.0-693.0","0","0","43279","","null","","","null","76","","","","","","","","","","","","","","","NaN",""
"","S1","","html-keyboard-response","489","5501889","0.0-1.0-695.0","0","0","43279","","null","","","null","77","","","","","","","","","","","","","","","",""
"","ISI","","html-keyboard-response","490","5502042","0.0-1.0-696.0","0","0","43279","","null","","","null","77","NaN","","","","","","","","","","","","","","",""
"","S2","","html-keyboard-response","491","5502294","0.0-1.0-697.0","0","0","43279","","null","","","null","77","","NaN","","","","","","","","","","","","","",""
"","response","","html-keyboard-response","492","5502307","0.0-1.0-698.0-0.0","0","0","43279","","11","","","75","77","","","2","77","training","adjacent","AB","1","2","O.jpg","N.jpg","1","1","1","",""
"","feedback","","html-keyboard-response","493","5503311","0.0-1.0-699.0-0.0","0","0","43279","","null","","","null","77","","","","","","","","","","","","","","","",""
"","ITI","","html-keyboard-response","494","5504313","0.0-1.0-702.0","0","0","43279","","null","","","null","77","","","","","","","","","","","","","","","NaN",""
"","S1","","html-keyboard-response","495","5504567","0.0-1.0-704.0","0","0","43279","","null","","","null","78","","","","","","","","","","","","","","","",""
"","ISI","","html-keyboard-response","496","5504720","0.0-1.0-705.0","0","0","43279","","null","","","null","78","NaN","","","","","","","","","","","","","","",""
"","S2","","html-keyboard-response","497","5504944","0.0-1.0-706.0","0","0","43279","","222","","","75","78","","k","2","78","training","adjacent","GF","7","6","Q.jpg","R.jpg","1","0","0","",""
"","feedback","","html-keyboard-response","498","5505948","0.0-1.0-708.0-0.0","0","0","43279","","null","","","null","78","","","","","","","","","","","","","","","",""
"","time_out","","html-keyboard-response","499","5507951","0.0-1.0-710.0-0.0","0","0","43279","","null","","","null","78","","","","","","","","","","","","","","","",""
"","ITI","","html-keyboard-response","500","5508954","0.0-1.0-711.0","0","0","43279","","null","","","null","78","","","","","","","","","","","","","","","NaN",""
"","S1","","html-keyboard-response","501","5509207","0.0-1.0-713.0","0","0","43279","","null","","","null","79","","","","","","","","","","","","","","","",""
"","ISI","","html-keyboard-response","502","5509360","0.0-1.0-714.0","0","0","43279","","null","","","null","79","NaN","","","","","","","","","","","","","","",""
"","S2","","html-keyboard-response","503","5509555","0.0-1.0-715.0","0","0","43279","","193","","","68","79","","d","2","79","training","adjacent","FG","6","7","R.jpg","Q.jpg","0","1","0","",""
"","feedback","","html-keyboard-response","504","5510558","0.0-1.0-717.0-0.0","0","0","43279","","null","","","null","79","","","","","","","","","","","","","","","",""
"","time_out","","html-keyboard-response","505","5512561","0.0-1.0-719.0-0.0","0","0","43279","","null","","","null","79","","","","","","","","","","","","","","","",""
"","ITI","","html-keyboard-response","506","5513564","0.0-1.0-720.0","0","0","43279","","null","","","null","79","","","","","","","","","","","","","","","NaN",""
"","S1","","html-keyboard-response","507","5513817","0.0-1.0-722.0","0","0","43279","","null","","","null","80","","","","","","","","","","","","","","","",""
"","ISI","","html-keyboard-response","508","5513969","0.0-1.0-723.0","0","0","43279","","null","","","null","80","NaN","","","","","","","","","","","","","","",""
"","S2","","html-keyboard-response","509","5514222","0.0-1.0-724.0","0","0","43279","","null","","","null","80","","NaN","","","","","","","","","","","","","",""
"","response","","html-keyboard-response","510","5514265","0.0-1.0-725.0-0.0","0","0","43279","","41","","","68","80","","","2","80","training","adjacent","EF","5","6","P.jpg","R.jpg","0","1","0","",""
"","feedback","","html-keyboard-response","511","5515268","0.0-1.0-726.0-0.0","0","0","43279","","null","","","null","80","","","","","","","","","","","","","","","",""
"","time_out","","html-keyboard-response","512","5517271","0.0-1.0-728.0-0.0","0","0","43279","","null","","","null","80","","","","","","","","","","","","","","","",""
"","ITI","","html-keyboard-response","513","5518273","0.0-1.0-729.0","0","0","43279","","null","","","null","80","","","","","","","","","","","","","","","NaN",""
"","S1","","html-keyboard-response","514","5518525","0.0-1.0-731.0","0","0","43279","","null","","","null","81","","","","","","","","","","","","","","","",""
"","ISI","","html-keyboard-response","515","5518677","0.0-1.0-732.0","0","0","43279","","null","","","null","81","NaN","","","","","","","","","","","","","","",""
"","S2","","html-keyboard-response","516","5518931","0.0-1.0-733.0","0","0","43279","","null","","","null","81","","NaN","","","","","","","","","","","","","",""
"","response","","html-keyboard-response","517","5519080","0.0-1.0-734.0-0.0","0","0","43279","","148","","","68","81","","","2","81","training","adjacent","CB","3","2","M.jpg","N.jpg","0","0","1","",""
"","feedback","","html-keyboard-response","518","5520093","0.0-1.0-735.0-0.0","0","0","43279","","null","","","null","81","","","","","","","","","","","","","","","",""
"","ITI","","html-keyboard-response","519","5521096","0.0-1.0-738.0","0","0","43279","","null","","","null","81","","","","","","","","","","","","","","","NaN",""
"","S1","","html-keyboard-response","520","5521350","0.0-1.0-740.0","0","0","43279","","null","","","null","82","","","","","","","","","","","","","","","",""
"","ISI","","html-keyboard-response","521","5521502","0.0-1.0-741.0","0","0","43279","","null","","","null","82","NaN","","","","","","","","","","","","","","",""
"","S2","","html-keyboard-response","522","5521756","0.0-1.0-742.0","0","0","43279","","null","","","null","82","","NaN","","","","","","","","","","","","","",""
"","response","","html-keyboard-response","523","5521857","0.0-1.0-743.0-0.0","0","0","43279","","100","","","68","82","","","2","82","training","adjacent","BA","2","1","N.jpg","O.jpg","0","0","1","",""
"","feedback","","html-keyboard-response","524","5522860","0.0-1.0-744.0-0.0","0","0","43279","","null","","","null","82","","","","","","","","","","","","","","","",""
"","ITI","","html-keyboard-response","525","5523870","0.0-1.0-747.0","0","0","43279","","null","","","null","82","","","","","","","","","","","","","","","NaN",""
"","S1","","html-keyboard-response","526","5524123","0.0-1.0-749.0","0","0","43279","","null","","","null","83","","","","","","","","","","","","","","","",""
"","ISI","","html-keyboard-response","527","5524276","0.0-1.0-750.0","0","0","43279","","null","","","null","83","NaN","","","","","","","","","","","","","","",""
"","S2","","html-keyboard-response","528","5524529","0.0-1.0-751.0","0","0","43279","","null","","","null","83","","NaN","","","","","","","","","","","","","",""
"","response","","html-keyboard-response","529","5524579","0.0-1.0-752.0-0.0","0","0","43279","","48","","","75","83","","","2","83","training","adjacent","DC","4","3","L.jpg","M.jpg","1","0","0","",""
"","feedback","","html-keyboard-response","530","5525582","0.0-1.0-753.0-0.0","0","0","43279","","null","","","null","83","","","","","","","","","","","","","","","",""
"","time_out","","html-keyboard-response","531","5527600","0.0-1.0-755.0-0.0","0","0","43279","","null","","","null","83","","","","","","","","","","","","","","","",""
"","ITI","","html-keyboard-response","532","5528604","0.0-1.0-756.0","0","0","43279","","null","","","null","83","","","","","","","","","","","","","","","NaN",""
"","S1","","html-keyboard-response","533","5528857","0.0-1.0-758.0","0","0","43279","","null","","","null","84","","","","","","","","","","","","","","","",""
"","ISI","","html-keyboard-response","534","5529009","0.0-1.0-759.0","0","0","43279","","null","","","null","84","NaN","","","","","","","","","","","","","","",""
"","S2","","html-keyboard-response","535","5529246","0.0-1.0-760.0","0","0","43279","","234","","","75","84","","k","2","84","training","adjacent","ED","5","4","P.jpg","L.jpg","1","0","0","",""
"","feedback","","html-keyboard-response","536","5530249","0.0-1.0-762.0-0.0","0","0","43279","","null","","","null","84","","","","","","","","","","","","","","","",""
"","time_out","","html-keyboard-response","537","5532252","0.0-1.0-764.0-0.0","0","0","43279","","null","","","null","84","","","","","","","","","","","","","","","",""
"","ITI","","html-keyboard-response","538","5533254","0.0-1.0-765.0","0","0","43279","","null","","","null","84","","","","","","","","","","","","","","","NaN",""
"","S1","","html-keyboard-response","539","5533506","0.0-1.0-767.0","0","0","43279","","null","","","null","85","","","","","","","","","","","","","","","",""
"","ISI","","html-keyboard-response","540","5533659","0.0-1.0-768.0","0","0","43279","","null","","","null","85","NaN","","","","","","","","","","","","","","",""
"","S2","","html-keyboard-response","541","5533912","0.0-1.0-769.0","0","0","43279","","null","","","null","85","","NaN","","","","","","","","","","","","","",""
"","response","","html-keyboard-response","542","5534003","0.0-1.0-770.0-0.0","0","0","43279","","89","","","75","85","","","2","85","training","adjacent","CD","3","4","M.jpg","L.jpg","1","1","1","",""
"","feedback","","html-keyboard-response","543","5535006","0.0-1.0-771.0-0.0","0","0","43279","","null","","","null","85","","","","","","","","","","","","","","","",""
"","ITI","","html-keyboard-response","544","5536008","0.0-1.0-774.0","0","0","43279","","null","","","null","85","","","","","","","","","","","","","","","NaN",""
"","S1","","html-keyboard-response","545","5536260","0.0-1.0-776.0","0","0","43279","","null","","","null","86","","","","","","","","","","","","","","","",""
"","ISI","","html-keyboard-response","546","5536413","0.0-1.0-777.0","0","0","43279","","null","","","null","86","NaN","","","","","","","","","","","","","","",""
"","S2","","html-keyboard-response","547","5536666","0.0-1.0-778.0","0","0","43279","","null","","","null","86","","NaN","","","","","","","","","","","","","",""
"","response","","html-keyboard-response","548","5536871","0.0-1.0-779.0-0.0","0","0","43279","","203","","","75","86","","","2","86","training","adjacent","CD","3","4","M.jpg","L.jpg","1","1","1","",""
"","feedback","","html-keyboard-response","549","5537875","0.0-1.0-780.0-0.0","0","0","43279","","null","","","null","86","","","","","","","","","","","","","","","",""
"","ITI","","html-keyboard-response","550","5538878","0.0-1.0-783.0","0","0","43279","","null","","","null","86","","","","","","","","","","","","","","","NaN",""
"","S1","","html-keyboard-response","551","5539131","0.0-1.0-785.0","0","0","43279","","null","","","null","87","","","","","","","","","","","","","","","",""
"","ISI","","html-keyboard-response","552","5539284","0.0-1.0-786.0","0","0","43279","","null","","","null","87","NaN","","","","","","","","","","","","","","",""
"","S2","","html-keyboard-response","553","5539537","0.0-1.0-787.0","0","0","43279","","null","","","null","87","","NaN","","","","","","","","","","","","","",""
"","response","","html-keyboard-response","554","5539585","0.0-1.0-788.0-0.0","0","0","43279","","45","","","68","87","","","2","87","training","adjacent","BC","2","3","N.jpg","M.jpg","0","1","0","",""
"","feedback","","html-keyboard-response","555","5540600","0.0-1.0-789.0-0.0","0","0","43279","","null","","","null","87","","","","","","","","","","","","","","","",""
"","time_out","","html-keyboard-response","556","5542603","0.0-1.0-791.0-0.0","0","0","43279","","null","","","null","87","","","","","","","","","","","","","","","",""
"","ITI","","html-keyboard-response","557","5543606","0.0-1.0-792.0","0","0","43279","","null","","","null","87","","","","","","","","","","","","","","","NaN",""
"","S1","","html-keyboard-response","558","5543859","0.0-1.0-794.0","0","0","43279","","null","","","null","88","","","","","","","","","","","","","","","",""
"","ISI","","html-keyboard-response","559","5544012","0.0-1.0-795.0","0","0","43279","","null","","","null","88","NaN","","","","","","","","","","","","","","",""
"","S2","","html-keyboard-response","560","5544265","0.0-1.0-796.0","0","0","43279","","null","","","null","88","","NaN","","","","","","","","","","","","","",""
"","response","","html-keyboard-response","561","5544345","0.0-1.0-797.0-0.0","0","0","43279","","77","","","68","88","","","2","88","training","adjacent","CB","3","2","M.jpg","N.jpg","0","0","1","",""
"","feedback","","html-keyboard-response","562","5545348","0.0-1.0-798.0-0.0","0","0","43279","","null","","","null","88","","","","","","","","","","","","","","","",""
"","ITI","","html-keyboard-response","563","5546351","0.0-1.0-801.0","0","0","43279","","null","","","null","88","","","","","","","","","","","","","","","NaN",""
"","S1","","html-keyboard-response","564","5546603","0.0-1.0-803.0","0","0","43279","","null","","","null","89","","","","","","","","","","","","","","","",""
"","ISI","","html-keyboard-response","565","5546757","0.0-1.0-804.0","0","0","43279","","null","","","null","89","NaN","","","","","","","","","","","","","","",""
"","S2","","html-keyboard-response","566","5547011","0.0-1.0-805.0","0","0","43279","","null","","","null","89","","NaN","","","","","","","","","","","","","",""
"","response","","html-keyboard-response","567","5547124","0.0-1.0-806.0-0.0","0","0","43279","","110","","","68","89","","","2","89","training","adjacent","FG","6","7","R.jpg","Q.jpg","0","1","0","",""
"","feedback","","html-keyboard-response","568","5548127","0.0-1.0-807.0-0.0","0","0","43279","","null","","","null","89","","","","","","","","","","","","","","","",""
"","time_out","","html-keyboard-response","569","5550141","0.0-1.0-809.0-0.0","0","0","43279","","null","","","null","89","","","","","","","","","","","","","","","",""
"","ITI","","html-keyboard-response","570","5551143","0.0-1.0-810.0","0","0","43279","","null","","","null","89","","","","","","","","","","","","","","","NaN",""
"","S1","","html-keyboard-response","571","5551396","0.0-1.0-812.0","0","0","43279","","null","","","null","90","","","","","","","","","","","","","","","",""
"","ISI","","html-keyboard-response","572","5551549","0.0-1.0-813.0","0","0","43279","","null","","","null","90","NaN","","","","","","","","","","","","","","",""
"","S2","","html-keyboard-response","573","5551803","0.0-1.0-814.0","0","0","43279","","null","","","null","90","","NaN","","","","","","","","","","","","","",""
"","response","","html-keyboard-response","574","5551876","0.0-1.0-815.0-0.0","0","0","43279","","71","","","75","90","","","2","90","training","adjacent","BC","2","3","N.jpg","M.jpg","1","1","1","",""
"","feedback","","html-keyboard-response","575","5552879","0.0-1.0-816.0-0.0","0","0","43279","","null","","","null","90","","","","","","","","","","","","","","","",""
"","ITI","","html-keyboard-response","576","5553882","0.0-1.0-819.0","0","0","43279","","null","","","null","90","","","","","","","","","","","","","","","NaN",""
"","S1","","html-keyboard-response","577","5554135","0.0-1.0-821.0","0","0","43279","","null","","","null","91","","","","","","","","","","","","","","","",""
