"success","ttype","start_time","trial_type","trial_index","time_elapsed","internal_node_id","warning","missed_checkup","PID","view_history","rt","responses","repeat_instructions","key_press","index","keypress_isi","keypress_S2","block","trial_num","phase","group_type","pair_type","S1_stim","S2_stim","S1_img","S2_img","S1_chosen","S1_higher","accuracy","keypress_iti","total_bonus_tally"
"true","full_screen","d04072023hr0021","fullscreen","0","7793","0.0-0.0","0","0","12608","","","","","","","","","","","","","","","","","","","","","",""
"","instructions","","instructions","1","40258","0.0-1.0-0.0-0.0","0","0","12608","[{""page_index"":0,""viewing_time"":8773},{""page_index"":1,""viewing_time"":14730},{""page_index"":2,""viewing_time"":6692},{""page_index"":3,""viewing_time"":2268}]","32463","","","","","","","","","","","","","","","","","","","",""
"","comprehension_check","","survey-multi-choice","2","61843","0.0-1.0-0.0-1.0","0","0","12608","","21579","{""Q0"":""True"",""Q1"":""D"",""Q2"":""Only when the screen 'MAKE A CHOICE' is shown"",""Q3"":""Green mark"",""Q4"":""either D or K""}","1","","","","","","","","","","","","","","","","","",""
"","missed_instruction_checkup","","html-keyboard-response","3","63475","0.0-1.0-0.0-2.0-0.0","0","1","12608","","1626","","","32","","","","","","","","","","","","","","","","",""
"","instructions","","instructions","4","71541","0.0-1.0-0.1-0.1","0","0","12608","[{""page_index"":0,""viewing_time"":1732},{""page_index"":1,""viewing_time"":3891},{""page_index"":2,""viewing_time"":1324},{""page_index"":3,""viewing_time"":1117}]","8064","","","","","","","","","","","","","","","","","","","",""
"","comprehension_check","","survey-multi-choice","5","84911","0.0-1.0-0.1-1.1","0","0","12608","","13366","{""Q0"":""True"",""Q1"":""D"",""Q2"":""Once the second image appears and while the screen 'MAKE A CHOICE' is shown"",""Q3"":""Green mark"",""Q4"":""either D or K""}","0","","","","","","","","","","","","","","","","","",""
"","start_exp","","html-keyboard-response","6","86037","0.0-1.0-1.0","0","0","12608","","1124","","","32","","","","","","","","","","","","","","","","",""
"","S1","","html-keyboard-response","7","86192","0.0-1.0-2.0","0","0","12608","","null","","","null","0","","","","","","","","","","","","","","","",""
"","ISI","","html-keyboard-response","8","88195","0.0-1.0-3.0","0","0","12608","","null","","","null","0","NaN","","","","","","","","","","","","","","",""
"","S2","","html-keyboard-response","9","88351","0.0-1.0-4.0","0","0","12608","","null","","","null","0","","NaN","","","","","","","","","","","","","",""
"","response","","html-keyboard-response","10","89985","0.0-1.0-5.0-0.0","0","0","12608","","1630","","","68","0","","","1","0","training","adjacent","BC","2","3","P.jpg","M.jpg","1","1","1","",""
"","feedback","","html-keyboard-response","11","90987","0.0-1.0-6.0-0.0","0","0","12608","","null","","","null","0","","","","","","","","","","","","","","","",""
"","ITI","","html-keyboard-response","12","91990","0.0-1.0-9.0","0","0","12608","","null","","","null","0","","","","","","","","","","","","","","","NaN",""
"","S1","","html-keyboard-response","13","92143","0.0-1.0-11.0","0","0","12608","","null","","","null","1","","","","","","","","","","","","","","","",""
"","ISI","","html-keyboard-response","14","94147","0.0-1.0-12.0","0","0","12608","","null","","","null","1","NaN","","","","","","","","","","","","","","",""
"","S2","","html-keyboard-response","15","94301","0.0-1.0-13.0","0","0","12608","","null","","","null","1","","NaN","","","","","","","","","","","","","",""
"","response","","html-keyboard-response","16","94504","0.0-1.0-14.0-0.0","0","0","12608","","202","","","75","1","","","1","1","training","adjacent","FE","6","5","N.jpg","R.jpg","0","0","1","",""
"","feedback","","html-keyboard-response","17","95508","0.0-1.0-15.0-0.0","0","0","12608","","null","","","null","1","","","","","","","","","","","","","","","",""
"","ITI","","html-keyboard-response","18","96510","0.0-1.0-18.0","0","0","12608","","null","","","null","1","","","","","","","","","","","","","","","NaN",""
"","S1","","html-keyboard-response","19","96663","0.0-1.0-20.0","0","0","12608","","null","","","null","2","","","","","","","","","","","","","","","",""
"","ISI","","html-keyboard-response","20","98667","0.0-1.0-21.0","0","0","12608","","null","","","null","2","NaN","","","","","","","","","","","","","","",""
"","S2","","html-keyboard-response","21","98821","0.0-1.0-22.0","0","0","12608","","null","","","null","2","","NaN","","","","","","","","","","","","","",""
"","response","","html-keyboard-response","22","99038","0.0-1.0-23.0-0.0","0","0","12608","","215","","","68","2","","","1","2","training","adjacent","FE","6","5","N.jpg","R.jpg","1","0","0","",""
"","feedback","","html-keyboard-response","23","100041","0.0-1.0-24.0-0.0","0","0","12608","","null","","","null","2","","","","","","","","","","","","","","","",""
"","time_out","","html-keyboard-response","24","102043","0.0-1.0-26.0-0.0","0","0","12608","","null","","","null","2","","","","","","","","","","","","","","","",""
"","ITI","","html-keyboard-response","25","103047","0.0-1.0-27.0","0","0","12608","","null","","","null","2","","","","","","","","","","","","","","","NaN",""
"","S1","","html-keyboard-response","26","103201","0.0-1.0-29.0","0","0","12608","","null","","","null","3","","","","","","","","","","","","","","","",""
"","ISI","","html-keyboard-response","27","105204","0.0-1.0-30.0","0","0","12608","","null","","","null","3","NaN","","","","","","","","","","","","","","",""
"","S2","","html-keyboard-response","28","105357","0.0-1.0-31.0","0","0","12608","","null","","","null","3","","NaN","","","","","","","","","","","","","",""
"","response","","html-keyboard-response","29","105563","0.0-1.0-32.0-0.0","0","0","12608","","202","","","75","3","","","1","3","training","adjacent","EF","5","6","R.jpg","N.jpg","0","1","0","",""
"","feedback","","html-keyboard-response","30","106566","0.0-1.0-33.0-0.0","0","0","12608","","null","","","null","3","","","","","","","","","","","","","","","",""
"","time_out","","html-keyboard-response","31","108569","0.0-1.0-35.0-0.0","0","0","12608","","null","","","null","3","","","","","","","","","","","","","","","",""
"","ITI","","html-keyboard-response","32","109571","0.0-1.0-36.0","0","0","12608","","null","","","null","3","","","","","","","","","","","","","","","NaN",""
"","S1","","html-keyboard-response","33","109726","0.0-1.0-38.0","0","0","12608","","null","","","null","4","","","","","","","","","","","","","","","",""
"","ISI","","html-keyboard-response","34","111729","0.0-1.0-39.0","0","0","12608","","null","","","null","4","NaN","","","","","","","","","","","","","","",""
"","S2","","html-keyboard-response","35","111884","0.0-1.0-40.0","0","0","12608","","null","","","null","4","","NaN","","","","","","","","","","","","","",""
"","response","","html-keyboard-response","36","111983","0.0-1.0-41.0-0.0","0","0","12608","","95","","","68","4","","","1","4","training","adjacent","DC","4","3","Q.jpg","M.jpg","1","0","0","",""
"","feedback","","html-keyboard-response","37","112987","0.0-1.0-42.0-0.0","0","0","12608","","null","","","null","4","","","","","","","","","","","","","","","",""
"","time_out","","html-keyboard-response","38","114989","0.0-1.0-44.0-0.0","0","0","12608","","null","","","null","4","","","","","","","","","","","","","","","",""
"","ITI","","html-keyboard-response","39","115991","0.0-1.0-45.0","0","0","12608","","null","","","null","4","","","","","","","","","","","","","","","NaN",""
"","S1","","html-keyboard-response","40","116144","0.0-1.0-47.0","0","0","12608","","null","","","null","5","","","","","","","","","","","","","","","",""
"","ISI","","html-keyboard-response","41","118147","0.0-1.0-48.0","0","0","12608","","null","","","null","5","NaN","","","","","","","","","","","","","","",""
"","S2","","html-keyboard-response","42","118300","0.0-1.0-49.0","0","0","12608","","null","","","null","5","","NaN","","","","","","","","","","","","","",""
"","response","","html-keyboard-response","43","118406","0.0-1.0-50.0-0.0","0","0","12608","","104","","","75","5","","","1","5","training","adjacent","BA","2","1","P.jpg","L.jpg","0","0","1","",""
"","feedback","","html-keyboard-response","44","119408","0.0-1.0-51.0-0.0","0","0","12608","","null","","","null","5","","","","","","","","","","","","","","","",""
"","ITI","","html-keyboard-response","45","120411","0.0-1.0-54.0","0","0","12608","","null","","","null","5","","","","","","","","","","","","","","","NaN",""
"","S1","","html-keyboard-response","46","120564","0.0-1.0-56.0","0","0","12608","","null","","","null","6","","","","","","","","","","","","","","","",""
"","ISI","","html-keyboard-response","47","122568","0.0-1.0-57.0","0","0","12608","","null","","","null","6","NaN","","","","","","","","","","","","","","",""
"","S2","","html-keyboard-response","48","122722","0.0-1.0-58.0","0","0","12608","","null","","","null","6","","NaN","","","","","","","","","","","","","",""
"","response","","html-keyboard-response","49","122846","0.0-1.0-59.0-0.0","0","0","12608","","122","","","75","6","","","1","6","training","adjacent","FE","6","5","N.jpg","R.jpg","0","0","1","",""
"","feedback","","html-keyboard-response","50","123849","0.0-1.0-60.0-0.0","0","0","12608","","null","","","null","6","","","","","","","","","","","","","","","",""
"","ITI","","html-keyboard-response","51","124853","0.0-1.0-63.0","0","0","12608","","null","","","null","6","","","","","","","","","","","","","","","NaN",""
"","S1","","html-keyboard-response","52","125008","0.0-1.0-65.0","0","0","12608","","null","","","null","7","","","","","","","","","","","","","","","",""
"","ISI","","html-keyboard-response","53","127012","0.0-1.0-66.0","0","0","12608","","null","","","null","7","NaN","","","","","","","","","","","","","","",""
"","S2","","html-keyboard-response","54","127165","0.0-1.0-67.0","0","0","12608","","null","","","null","7","","NaN","","","","","","","","","","","","","",""
"","response","","html-keyboard-response","55","127356","0.0-1.0-68.0-0.0","0","0","12608","","189","","","75","7","","","1","7","training","adjacent","FG","6","7","N.jpg","O.jpg","0","1","0","",""
"","feedback","","html-keyboard-response","56","128361","0.0-1.0-69.0-0.0","0","0","12608","","null","","","null","7","","","","","","","","","","","","","","","",""
"","time_out","","html-keyboard-response","57","130364","0.0-1.0-71.0-0.0","0","0","12608","","null","","","null","7","","","","","","","","","","","","","","","",""
"","ITI","","html-keyboard-response","58","131368","0.0-1.0-72.0","0","0","12608","","null","","","null","7","","","","","","","","","","","","","","","NaN",""
"","S1","","html-keyboard-response","59","131522","0.0-1.0-74.0","0","0","12608","","null","","","null","8","","","","","","","","","","","","","","","",""
"","ISI","","html-keyboard-response","60","133527","0.0-1.0-75.0","0","0","12608","","null","","","null","8","NaN","","","","","","","","","","","","","","",""
"","S2","","html-keyboard-response","61","133681","0.0-1.0-76.0","0","0","12608","","null","","","null","8","","NaN","","","","","","","","","","","","","",""
"","response","","html-keyboard-response","62","133822","0.0-1.0-77.0-0.0","0","0","12608","","139","","","68","8","","","1","8","training","adjacent","ED","5","4","R.jpg","Q.jpg","1","0","0","",""
"","feedback","","html-keyboard-response","63","134825","0.0-1.0-78.0-0.0","0","0","12608","","null","","","null","8","","","","","","","","","","","","","","","",""
"","time_out","","html-keyboard-response","64","136828","0.0-1.0-80.0-0.0","0","0","12608","","null","","","null","8","","","","","","","","","","","","","","","",""
"","ITI","","html-keyboard-response","65","137834","0.0-1.0-81.0","0","0","12608","","null","","","null","8","","","","","","","","","","","","","","","NaN",""
"","S1","","html-keyboard-response","66","137988","0.0-1.0-83.0","0","0","12608","","null","","","null","9","","","","","","","","","","","","","","","",""
"","ISI","","html-keyboard-response","67","139989","0.0-1.0-84.0","0","0","12608","","null","","","null","9","NaN","","","","","","","","","","","","","","",""
"","S2","","html-keyboard-response","68","140142","0.0-1.0-85.0","0","0","12608","","null","","","null","9","","NaN","","","","","","","","","","","","","",""
"","response","","html-keyboard-response","69","140355","0.0-1.0-86.0-0.0","0","0","12608","","212","","","75","9","","","1","9","training","adjacent","GF","7","6","O.jpg","N.jpg","0","0","1","",""
"","feedback","","html-keyboard-response","70","141357","0.0-1.0-87.0-0.0","0","0","12608","","null","","","null","9","","","","","","","","","","","","","","","",""
"","ITI","","html-keyboard-response","71","142360","0.0-1.0-90.0","0","0","12608","","null","","","null","9","","","","","","","","","","","","","","","NaN",""
"","S1","","html-keyboard-response","72","142513","0.0-1.0-92.0","0","0","12608","","null","","","null","10","","","","","","","","","","","","","","","",""
"","ISI","","html-keyboard-response","73","144516","0.0-1.0-93.0","0","0","12608","","null","","","null","10","NaN","","","","","","","","","","","","","","",""
"","S2","","html-keyboard-response","74","144669","0.0-1.0-94.0","0","0","12608","","null","","","null","10","","NaN","","","","","","","","","","","","","",""
"","response","","html-keyboard-response","75","145489","0.0-1.0-95.0-0.0","0","0","12608","","817","","","75","10","","","1","10","training","adjacent","AB","1","2","L.jpg","P.jpg","0","1","0","",""
"","feedback","","html-keyboard-response","76","146492","0.0-1.0-96.0-0.0","0","0","12608","","null","","","null","10","","","","","","","","","","","","","","","",""
"","time_out","","html-keyboard-response","77","148496","0.0-1.0-98.0-0.0","0","0","12608","","null","","","null","10","","","","","","","","","","","","","","","",""
"","ITI","","html-keyboard-response","78","149500","0.0-1.0-99.0","0","0","12608","","null","","","null","10","","","","","","","","","","","","","","","NaN",""
"","S1","","html-keyboard-response","79","149653","0.0-1.0-101.0","0","0","12608","","null","","","null","11","","","","","","","","","","","","","","","",""
"","ISI","","html-keyboard-response","80","151656","0.0-1.0-102.0","0","0","12608","","null","","","null","11","NaN","","","","","","","","","","","","","","",""
"","S2","","html-keyboard-response","81","151810","0.0-1.0-103.0","0","0","12608","","null","","","null","11","","NaN","","","","","","","","","","","","","",""
"","response","","html-keyboard-response","82","152066","0.0-1.0-104.0-0.0","0","0","12608","","252","","","68","11","","","1","11","training","adjacent","BA","2","1","P.jpg","L.jpg","1","0","0","",""
"","feedback","","html-keyboard-response","83","153071","0.0-1.0-105.0-0.0","0","0","12608","","null","","","null","11","","","","","","","","","","","","","","","",""
"","time_out","","html-keyboard-response","84","155075","0.0-1.0-107.0-0.0","0","0","12608","","null","","","null","11","","","","","","","","","","","","","","","",""
"","ITI","","html-keyboard-response","85","156079","0.0-1.0-108.0","0","0","12608","","null","","","null","11","","","","","","","","","","","","","","","NaN",""
"","S1","","html-keyboard-response","86","156233","0.0-1.0-110.0","0","0","12608","","null","","","null","12","","","","","","","","","","","","","","","",""
"","ISI","","html-keyboard-response","87","158236","0.0-1.0-111.0","0","0","12608","","211","","","75","12","k","","","","","","","","","","","","","","",""
"","S2","","html-keyboard-response","88","158393","0.0-1.0-112.0","0","0","12608","","null","","","null","12","","NaN","","","","","","","","","","","","","",""
"","response","","html-keyboard-response","89","158567","0.0-1.0-113.0-0.0","0","0","12608","","173","","","75","12","","","1","12","training","adjacent","CB","3","2","M.jpg","P.jpg","0","0","1","",""
"","feedback","","html-keyboard-response","90","159570","0.0-1.0-114.0-0.0","0","0","12608","","null","","","null","12","","","","","","","","","","","","","","","",""
"","ITI","","html-keyboard-response","91","160573","0.0-1.0-117.0","0","0","12608","","null","","","null","12","","","","","","","","","","","","","","","NaN",""
"","S1","","html-keyboard-response","92","160725","0.0-1.0-119.0","0","0","12608","","null","","","null","13","","","","","","","","","","","","","","","",""
"","ISI","","html-keyboard-response","93","162730","0.0-1.0-120.0","0","0","12608","","null","","","null","13","NaN","","","","","","","","","","","","","","",""
"","S2","","html-keyboard-response","94","162885","0.0-1.0-121.0","0","0","12608","","null","","","null","13","","NaN","","","","","","","","","","","","","",""
"","response","","html-keyboard-response","95","163075","0.0-1.0-122.0-0.0","0","0","12608","","187","","","75","13","","","1","13","training","adjacent","DC","4","3","Q.jpg","M.jpg","0","0","1","",""
"","feedback","","html-keyboard-response","96","164078","0.0-1.0-123.0-0.0","0","0","12608","","null","","","null","13","","","","","","","","","","","","","","","",""
"","ITI","","html-keyboard-response","97","165081","0.0-1.0-126.0","0","0","12608","","null","","","null","13","","","","","","","","","","","","","","","NaN",""
"","S1","","html-keyboard-response","98","165235","0.0-1.0-128.0","0","0","12608","","null","","","null","14","","","","","","","","","","","","","","","",""
"","ISI","","html-keyboard-response","99","167238","0.0-1.0-129.0","0","0","12608","","null","","","null","14","NaN","","","","","","","","","","","","","","",""
"","S2","","html-keyboard-response","100","167392","0.0-1.0-130.0","0","0","12608","","null","","","null","14","","NaN","","","","","","","","","","","","","",""
"","response","","html-keyboard-response","101","167495","0.0-1.0-131.0-0.0","0","0","12608","","102","","","75","14","","","1","14","training","adjacent","CB","3","2","M.jpg","P.jpg","0","0","1","",""
"","feedback","","html-keyboard-response","102","168498","0.0-1.0-132.0-0.0","0","0","12608","","null","","","null","14","","","","","","","","","","","","","","","",""
"","ITI","","html-keyboard-response","103","169500","0.0-1.0-135.0","0","0","12608","","null","","","null","14","","","","","","","","","","","","","","","NaN",""
"","S1","","html-keyboard-response","104","169653","0.0-1.0-137.0","0","0","12608","","null","","","null","15","","","","","","","","","","","","","","","",""
"","ISI","","html-keyboard-response","105","171655","0.0-1.0-138.0","0","0","12608","","null","","","null","15","NaN","","","","","","","","","","","","","","",""
"","S2","","html-keyboard-response","106","171809","0.0-1.0-139.0","0","0","12608","","null","","","null","15","","NaN","","","","","","","","","","","","","",""
"","response","","html-keyboard-response","107","171918","0.0-1.0-140.0-0.0","0","0","12608","","107","","","68","15","","","1","15","training","adjacent","BA","2","1","P.jpg","L.jpg","1","0","0","",""
"","feedback","","html-keyboard-response","108","172920","0.0-1.0-141.0-0.0","0","0","12608","","null","","","null","15","","","","","","","","","","","","","","","",""
"","time_out","","html-keyboard-response","109","174923","0.0-1.0-143.0-0.0","0","0","12608","","null","","","null","15","","","","","","","","","","","","","","","",""
"","ITI","","html-keyboard-response","110","175925","0.0-1.0-144.0","0","0","12608","","null","","","null","15","","","","","","","","","","","","","","","NaN",""
"","S1","","html-keyboard-response","111","176079","0.0-1.0-146.0","0","0","12608","","null","","","null","16","","","","","","","","","","","","","","","",""
"","ISI","","html-keyboard-response","112","178081","0.0-1.0-147.0","0","0","12608","","119","","","75","16","k","","","","","","","","","","","","","","",""
"","S2","","html-keyboard-response","113","178235","0.0-1.0-148.0","0","0","12608","","null","","","null","16","","NaN","","","","","","","","","","","","","",""
"","response","","html-keyboard-response","114","178308","0.0-1.0-149.0-0.0","0","0","12608","","72","","","75","16","","","1","16","training","adjacent","CD","3","4","M.jpg","Q.jpg","0","1","0","",""
"","feedback","","html-keyboard-response","115","179311","0.0-1.0-150.0-0.0","0","0","12608","","null","","","null","16","","","","","","","","","","","","","","","",""
"","time_out","","html-keyboard-response","116","181313","0.0-1.0-152.0-0.0","0","0","12608","","null","","","null","16","","","","","","","","","","","","","","","",""
"","ITI","","html-keyboard-response","117","182316","0.0-1.0-153.0","0","0","12608","","null","","","null","16","","","","","","","","","","","","","","","NaN",""
"","S1","","html-keyboard-response","118","182469","0.0-1.0-155.0","0","0","12608","","null","","","null","17","","","","","","","","","","","","","","","",""
"","ISI","","html-keyboard-response","119","184472","0.0-1.0-156.0","0","0","12608","","null","","","null","17","NaN","","","","","","","","","","","","","","",""
"","S2","","html-keyboard-response","120","184610","0.0-1.0-157.0","0","0","12608","","135","","","68","17","","d","1","17","training","adjacent","AB","1","2","L.jpg","P.jpg","1","1","1","",""
"","feedback","","html-keyboard-response","121","185613","0.0-1.0-159.0-0.0","0","0","12608","","null","","","null","17","","","","","","","","","","","","","","","",""
"","ITI","","html-keyboard-response","122","186617","0.0-1.0-162.0","0","0","12608","","null","","","null","17","","","","","","","","","","","","","","","NaN",""
"","S1","","html-keyboard-response","123","186771","0.0-1.0-164.0","0","0","12608","","null","","","null","18","","","","","","","","","","","","","","","",""
"","ISI","","html-keyboard-response","124","188775","0.0-1.0-165.0","0","0","12608","","null","","","null","18","NaN","","","","","","","","","","","","","","",""
"","S2","","html-keyboard-response","125","188928","0.0-1.0-166.0","0","0","12608","","null","","","null","18","","NaN","","","","","","","","","","","","","",""
"","response","","html-keyboard-response","126","189034","0.0-1.0-167.0-0.0","0","0","12608","","104","","","75","18","","","1","18","training","adjacent","BC","2","3","P.jpg","M.jpg","0","1","0","",""
"","feedback","","html-keyboard-response","127","190038","0.0-1.0-168.0-0.0","0","0","12608","","null","","","null","18","","","","","","","","","","","","","","","",""
"","time_out","","html-keyboard-response","128","192040","0.0-1.0-170.0-0.0","0","0","12608","","null","","","null","18","","","","","","","","","","","","","","","",""
"","ITI","","html-keyboard-response","129","193044","0.0-1.0-171.0","0","0","12608","","null","","","null","18","","","","","","","","","","","","","","","NaN",""
"","S1","","html-keyboard-response","130","193197","0.0-1.0-173.0","0","0","12608","","null","","","null","19","","","","","","","","","","","","","","","",""
"","ISI","","html-keyboard-response","131","195201","0.0-1.0-174.0","0","0","12608","","215","","","68","19","d","","","","","","","","","","","","","","",""
"","S2","","html-keyboard-response","132","195354","0.0-1.0-175.0","0","0","12608","","null","","","null","19","","NaN","","","","","","","","","","","","","",""
"","response","","html-keyboard-response","133","195488","0.0-1.0-176.0-0.0","0","0","12608","","131","","","68","19","","","1","19","training","adjacent","DC","4","3","Q.jpg","M.jpg","1","0","0","",""
"","feedback","","html-keyboard-response","134","196492","0.0-1.0-177.0-0.0","0","0","12608","","null","","","null","19","","","","","","","","","","","","","","","",""
"","time_out","","html-keyboard-response","135","198495","0.0-1.0-179.0-0.0","0","0","12608","","null","","","null","19","","","","","","","","","","","","","","","",""
"","ITI","","html-keyboard-response","136","199498","0.0-1.0-180.0","0","0","12608","","null","","","null","19","","","","","","","","","","","","","","","NaN",""
"","S1","","html-keyboard-response","137","199651","0.0-1.0-182.0","0","0","12608","","null","","","null","20","","","","","","","","","","","","","","","",""
"","ISI","","html-keyboard-response","138","201654","0.0-1.0-183.0","0","0","12608","","null","","","null","20","NaN","","","","","","","","","","","","","","",""
"","S2","","html-keyboard-response","139","201808","0.0-1.0-184.0","0","0","12608","","null","","","null","20","","NaN","","","","","","","","","","","","","",""
"","response","","html-keyboard-response","140","202047","0.0-1.0-185.0-0.0","0","0","12608","","238","","","75","20","","","1","20","training","adjacent","ED","5","4","R.jpg","Q.jpg","0","0","1","",""
"","feedback","","html-keyboard-response","141","203050","0.0-1.0-186.0-0.0","0","0","12608","","null","","","null","20","","","","","","","","","","","","","","","",""
"","ITI","","html-keyboard-response","142","204054","0.0-1.0-189.0","0","0","12608","","null","","","null","20","","","","","","","","","","","","","","","NaN",""
"","S1","","html-keyboard-response","143","204207","0.0-1.0-191.0","0","0","12608","","null","","","null","21","","","","","","","","","","","","","","","",""
"","ISI","","html-keyboard-response","144","206210","0.0-1.0-192.0","0","0","12608","","null","","","null","21","NaN","","","","","","","","","","","","","","",""
"","S2","","html-keyboard-response","145","206363","0.0-1.0-193.0","0","0","12608","","null","","","null","21","","NaN","","","","","","","","","","","","","",""
"","response","","html-keyboard-response","146","206545","0.0-1.0-194.0-0.0","0","0","12608","","181","","","75","21","","","1","21","training","adjacent","CD","3","4","M.jpg","Q.jpg","0","1","0","",""
"","feedback","","html-keyboard-response","147","207547","0.0-1.0-195.0-0.0","0","0","12608","","null","","","null","21","","","","","","","","","","","","","","","",""
"","time_out","","html-keyboard-response","148","209550","0.0-1.0-197.0-0.0","0","0","12608","","null","","","null","21","","","","","","","","","","","","","","","",""
"","ITI","","html-keyboard-response","149","210553","0.0-1.0-198.0","0","0","12608","","null","","","null","21","","","","","","","","","","","","","","","NaN",""
"","S1","","html-keyboard-response","150","210706","0.0-1.0-200.0","0","0","12608","","null","","","null","22","","","","","","","","","","","","","","","",""
"","ISI","","html-keyboard-response","151","212708","0.0-1.0-201.0","0","0","12608","","null","","","null","22","NaN","","","","","","","","","","","","","","",""
"","S2","","html-keyboard-response","152","212861","0.0-1.0-202.0","0","0","12608","","null","","","null","22","","NaN","","","","","","","","","","","","","",""
"","response","","html-keyboard-response","153","212973","0.0-1.0-203.0-0.0","0","0","12608","","109","","","68","22","","","1","22","training","adjacent","EF","5","6","R.jpg","N.jpg","1","1","1","",""
"","feedback","","html-keyboard-response","154","213975","0.0-1.0-204.0-0.0","0","0","12608","","null","","","null","22","","","","","","","","","","","","","","","",""
"","ITI","","html-keyboard-response","155","214978","0.0-1.0-207.0","0","0","12608","","null","","","null","22","","","","","","","","","","","","","","","NaN",""
"","S1","","html-keyboard-response","156","215132","0.0-1.0-209.0","0","0","12608","","null","","","null","23","","","","","","","","","","","","","","","",""
"","ISI","","html-keyboard-response","157","217134","0.0-1.0-210.0","0","0","12608","","null","","","null","23","NaN","","","","","","","","","","","","","","",""
"","S2","","html-keyboard-response","158","217288","0.0-1.0-211.0","0","0","12608","","null","","","null","23","","NaN","","","","","","","","","","","","","",""
"","response","","html-keyboard-response","159","217594","0.0-1.0-212.0-0.0","0","0","12608","","305","","","68","23","","","1","23","training","adjacent","FG","6","7","N.jpg","O.jpg","1","1","1","",""
"","feedback","","html-keyboard-response","160","218599","0.0-1.0-213.0-0.0","0","0","12608","","null","","","null","23","","","","","","","","","","","","","","","",""
"","ITI","","html-keyboard-response","161","219603","0.0-1.0-216.0","0","0","12608","","null","","","null","23","","","","","","","","","","","","","","","NaN",""
"","S1","","html-keyboard-response","162","219757","0.0-1.0-218.0","0","0","12608","","null","","","null","24","","","","","","","","","","","","","","","",""
"","ISI","","html-keyboard-response","163","221760","0.0-1.0-219.0","0","0","12608","","null","","","null","24","NaN","","","","","","","","","","","","","","",""
"","S2","","html-keyboard-response","164","221915","0.0-1.0-220.0","0","0","12608","","null","","","null","24","","NaN","","","","","","","","","","","","","",""
"","response","","html-keyboard-response","165","222112","0.0-1.0-221.0-0.0","0","0","12608","","194","","","68","24","","","1","24","training","adjacent","CB","3","2","M.jpg","P.jpg","1","0","0","",""
"","feedback","","html-keyboard-response","166","223116","0.0-1.0-222.0-0.0","0","0","12608","","null","","","null","24","","","","","","","","","","","","","","","",""
"","time_out","","html-keyboard-response","167","225120","0.0-1.0-224.0-0.0","0","0","12608","","null","","","null","24","","","","","","","","","","","","","","","",""
"","ITI","","html-keyboard-response","168","226125","0.0-1.0-225.0","0","0","12608","","null","","","null","24","","","","","","","","","","","","","","","NaN",""
"","S1","","html-keyboard-response","169","226279","0.0-1.0-227.0","0","0","12608","","null","","","null","25","","","","","","","","","","","","","","","",""
"","ISI","","html-keyboard-response","170","228283","0.0-1.0-228.0","0","0","12608","","140","","","68","25","d","","","","","","","","","","","","","","",""
"","S2","","html-keyboard-response","171","228438","0.0-1.0-229.0","0","0","12608","","null","","","null","25","","NaN","","","","","","","","","","","","","",""
"","response","","html-keyboard-response","172","228564","0.0-1.0-230.0-0.0","0","0","12608","","124","","","68","25","","","1","25","training","adjacent","BC","2","3","P.jpg","M.jpg","1","1","1","",""
"","feedback","","html-keyboard-response","173","229566","0.0-1.0-231.0-0.0","0","0","12608","","null","","","null","25","","","","","","","","","","","","","","","",""
"","ITI","","html-keyboard-response","174","230569","0.0-1.0-234.0","0","0","12608","","null","","","null","25","","","","","","","","","","","","","","","NaN",""
"","S1","","html-keyboard-response","175","230723","0.0-1.0-236.0","0","0","12608","","null","","","null","26","","","","","","","","","","","","","","","",""
"","ISI","","html-keyboard-response","176","232728","0.0-1.0-237.0","0","0","12608","","null","","","null","26","NaN","","","","","","","","","","","","","","",""
"","S2","","html-keyboard-response","177","232881","0.0-1.0-238.0","0","0","12608","","null","","","null","26","","NaN","","","","","","","","","","","","","",""
"","response","","html-keyboard-response","178","233059","0.0-1.0-239.0-0.0","0","0","12608","","175","","","68","26","","","1","26","training","adjacent","GF","7","6","O.jpg","N.jpg","1","0","0","",""
"","feedback","","html-keyboard-response","179","234061","0.0-1.0-240.0-0.0","0","0","12608","","null","","","null","26","","","","","","","","","","","","","","","",""
"","time_out","","html-keyboard-response","180","236064","0.0-1.0-242.0-0.0","0","0","12608","","null","","","null","26","","","","","","","","","","","","","","","",""
"","ITI","","html-keyboard-response","181","237067","0.0-1.0-243.0","0","0","12608","","null","","","null","26","","","","","","","","","","","","","","","NaN",""
"","S1","","html-keyboard-response","182","237221","0.0-1.0-245.0","0","0","12608","","null","","","null","27","","","","","","","","","","","","","","","",""
"","ISI","","html-keyboard-response","183","239223","0.0-1.0-246.0","0","0","12608","","null","","","null","27","NaN","","","","","","","","","","","","","","",""
"","S2","","html-keyboard-response","184","239377","0.0-1.0-247.0","0","0","12608","","null","","","null","27","","NaN","","","","","","","","","","","","","",""
"","response","","html-keyboard-response","185","239631","0.0-1.0-248.0-0.0","0","0","12608","","253","","","68","27","","","1","27","training","adjacent","CD","3","4","M.jpg","Q.jpg","1","1","1","",""
"","feedback","","html-keyboard-response","186","240634","0.0-1.0-249.0-0.0","0","0","12608","","null","","","null","27","","","","","","","","","","","","","","","",""
"","ITI","","html-keyboard-response","187","241638","0.0-1.0-252.0","0","0","12608","","null","","","null","27","","","","","","","","","","","","","","","NaN",""
"","S1","","html-keyboard-response","188","241792","0.0-1.0-254.0","0","0","12608","","null","","","null","28","","","","","","","","","","","","","","","",""
"","ISI","","html-keyboard-response","189","243795","0.0-1.0-255.0","0","0","12608","","null","","","null","28","NaN","","","","","","","","","","","","","","",""
"","S2","","html-keyboard-response","190","243950","0.0-1.0-256.0","0","0","12608","","null","","","null","28","","NaN","","","","","","","","","","","","","",""
"","response","","html-keyboard-response","191","244320","0.0-1.0-257.0-0.0","0","0","12608","","368","","","68","28","","","1","28","training","adjacent","DE","4","5","Q.jpg","R.jpg","1","1","1","",""
"","feedback","","html-keyboard-response","192","245324","0.0-1.0-258.0-0.0","0","0","12608","","null","","","null","28","","","","","","","","","","","","","","","",""
"","ITI","","html-keyboard-response","193","246329","0.0-1.0-261.0","0","0","12608","","null","","","null","28","","","","","","","","","","","","","","","NaN",""
"","S1","","html-keyboard-response","194","246483","0.0-1.0-263.0","0","0","12608","","null","","","null","29","","","","","","","","","","","","","","","",""
"","ISI","","html-keyboard-response","195","248487","0.0-1.0-264.0","0","0","12608","","null","","","null","29","NaN","","","","","","","","","","","","","","",""
"","S2","","html-keyboard-response","196","248641","0.0-1.0-265.0","0","0","12608","","null","","","null","29","","NaN","","","","","","","","","","","","","",""
"","response","","html-keyboard-response","197","249051","0.0-1.0-266.0-0.0","0","0","12608","","407","","","75","29","","","1","29","training","adjacent","FE","6","5","N.jpg","R.jpg","0","0","1","",""
"","feedback","","html-keyboard-response","198","250055","0.0-1.0-267.0-0.0","0","0","12608","","null","","","null","29","","","","","","","","","","","","","","","",""
"","ITI","","html-keyboard-response","199","251058","0.0-1.0-270.0","0","0","12608","","null","","","null","29","","","","","","","","","","","","","","","NaN",""
"","S1","","html-keyboard-response","200","251212","0.0-1.0-272.0","0","0","12608","","null","","","null","30","","","","","","","","","","","","","","","",""
"","ISI","","html-keyboard-response","201","253216","0.0-1.0-273.0","0","0","12608","","694","","","68","30","d","","","","","","","","","","","","","","",""
"","S2","","html-keyboard-response","202","253369","0.0-1.0-274.0","0","0","12608","","null","","","null","30","","NaN","","","","","","","","","","","","","",""
"","response","","html-keyboard-response","203","253926","0.0-1.0-275.0-0.0","0","0","12608","","555","","","68","30","","","1","30","training","adjacent","GF","7","6","O.jpg","N.jpg","1","0","0","",""
"","feedback","","html-keyboard-response","204","254931","0.0-1.0-276.0-0.0","0","0","12608","","null","","","null","30","","","","","","","","","","","","","","","",""
"","time_out","","html-keyboard-response","205","256934","0.0-1.0-278.0-0.0","0","0","12608","","null","","","null","30","","","","","","","","","","","","","","","",""
"","ITI","","html-keyboard-response","206","257936","0.0-1.0-279.0","0","0","12608","","null","","","null","30","","","","","","","","","","","","","","","NaN",""
"","S1","","html-keyboard-response","207","258090","0.0-1.0-281.0","0","0","12608","","null","","","null","31","","","","","","","","","","","","","","","",""
"","ISI","","html-keyboard-response","208","260092","0.0-1.0-282.0","0","0","12608","","null","","","null","31","NaN","","","","","","","","","","","","","","",""
"","S2","","html-keyboard-response","209","260246","0.0-1.0-283.0","0","0","12608","","null","","","null","31","","NaN","","","","","","","","","","","","","",""
"","response","","html-keyboard-response","210","260349","0.0-1.0-284.0-0.0","0","0","12608","","101","","","68","31","","","1","31","training","adjacent","FG","6","7","N.jpg","O.jpg","1","1","1","",""
"","feedback","","html-keyboard-response","211","261352","0.0-1.0-285.0-0.0","0","0","12608","","null","","","null","31","","","","","","","","","","","","","","","",""
"","ITI","","html-keyboard-response","212","262355","0.0-1.0-288.0","0","0","12608","","null","","","null","31","","","","","","","","","","","","","","","NaN",""
"","S1","","html-keyboard-response","213","262509","0.0-1.0-290.0","0","0","12608","","null","","","null","32","","","","","","","","","","","","","","","",""
"","ISI","","html-keyboard-response","214","264512","0.0-1.0-291.0","0","0","12608","","null","","","null","32","NaN","","","","","","","","","","","","","","",""
"","S2","","html-keyboard-response","215","264665","0.0-1.0-292.0","0","0","12608","","null","","","null","32","","NaN","","","","","","","","","","","","","",""
"","response","","html-keyboard-response","216","264749","0.0-1.0-293.0-0.0","0","0","12608","","82","","","68","32","","","1","32","training","adjacent","DE","4","5","Q.jpg","R.jpg","1","1","1","",""
"","feedback","","html-keyboard-response","217","265751","0.0-1.0-294.0-0.0","0","0","12608","","null","","","null","32","","","","","","","","","","","","","","","",""
"","ITI","","html-keyboard-response","218","266755","0.0-1.0-297.0","0","0","12608","","null","","","null","32","","","","","","","","","","","","","","","NaN",""
"","S1","","html-keyboard-response","219","266908","0.0-1.0-299.0","0","0","12608","","null","","","null","33","","","","","","","","","","","","","","","",""
"","ISI","","html-keyboard-response","220","268911","0.0-1.0-300.0","0","0","12608","","null","","","null","33","NaN","","","","","","","","","","","","","","",""
"","S2","","html-keyboard-response","221","269066","0.0-1.0-301.0","0","0","12608","","null","","","null","33","","NaN","","","","","","","","","","","","","",""
"","response","","html-keyboard-response","222","269314","0.0-1.0-302.0-0.0","0","0","12608","","245","","","68","33","","","1","33","training","adjacent","FG","6","7","N.jpg","O.jpg","1","1","1","",""
"","feedback","","html-keyboard-response","223","270319","0.0-1.0-303.0-0.0","0","0","12608","","null","","","null","33","","","","","","","","","","","","","","","",""
"","ITI","","html-keyboard-response","224","271322","0.0-1.0-306.0","0","0","12608","","null","","","null","33","","","","","","","","","","","","","","","NaN",""
"","S1","","html-keyboard-response","225","271476","0.0-1.0-308.0","0","0","12608","","null","","","null","34","","","","","","","","","","","","","","","",""
"","ISI","","html-keyboard-response","226","273479","0.0-1.0-309.0","0","0","12608","","null","","","null","34","NaN","","","","","","","","","","","","","","",""
"","S2","","html-keyboard-response","227","273634","0.0-1.0-310.0","0","0","12608","","null","","","null","34","","NaN","","","","","","","","","","","","","",""
"","response","","html-keyboard-response","228","274420","0.0-1.0-311.0-0.0","0","0","12608","","783","","","68","34","","","1","34","training","adjacent","AB","1","2","L.jpg","P.jpg","1","1","1","",""
"","feedback","","html-keyboard-response","229","275424","0.0-1.0-312.0-0.0","0","0","12608","","null","","","null","34","","","","","","","","","","","","","","","",""
"","ITI","","html-keyboard-response","230","276428","0.0-1.0-315.0","0","0","12608","","null","","","null","34","","","","","","","","","","","","","","","NaN",""
"","S1","","html-keyboard-response","231","276582","0.0-1.0-317.0","0","0","12608","","null","","","null","35","","","","","","","","","","","","","","","",""
"","ISI","","html-keyboard-response","232","278585","0.0-1.0-318.0","0","0","12608","","null","","","null","35","NaN","","","","","","","","","","","","","","",""
"","S2","","html-keyboard-response","233","278740","0.0-1.0-319.0","0","0","12608","","null","","","null","35","","NaN","","","","","","","","","","","","","",""
"","response","","html-keyboard-response","234","278815","0.0-1.0-320.0-0.0","0","0","12608","","73","","","68","35","","","1","35","training","adjacent","DE","4","5","Q.jpg","R.jpg","1","1","1","",""
"","feedback","","html-keyboard-response","235","279817","0.0-1.0-321.0-0.0","0","0","12608","","null","","","null","35","","","","","","","","","","","","","","","",""
"","ITI","","html-keyboard-response","236","280822","0.0-1.0-324.0","0","0","12608","","null","","","null","35","","","","","","","","","","","","","","","NaN",""
"","S1","","html-keyboard-response","237","280977","0.0-1.0-326.0","0","0","12608","","null","","","null","36","","","","","","","","","","","","","","","",""
"","ISI","","html-keyboard-response","238","282981","0.0-1.0-327.0","0","0","12608","","null","","","null","36","NaN","","","","","","","","","","","","","","",""
"","S2","","html-keyboard-response","239","283134","0.0-1.0-328.0","0","0","12608","","null","","","null","36","","NaN","","","","","","","","","","","","","",""
"","response","","html-keyboard-response","240","283410","0.0-1.0-329.0-0.0","0","0","12608","","273","","","68","36","","","1","36","training","adjacent","GF","7","6","O.jpg","N.jpg","1","0","0","",""
"","feedback","","html-keyboard-response","241","284412","0.0-1.0-330.0-0.0","0","0","12608","","null","","","null","36","","","","","","","","","","","","","","","",""
"","time_out","","html-keyboard-response","242","286415","0.0-1.0-332.0-0.0","0","0","12608","","null","","","null","36","","","","","","","","","","","","","","","",""
"","ITI","","html-keyboard-response","243","287417","0.0-1.0-333.0","0","0","12608","","null","","","null","36","","","","","","","","","","","","","","","NaN",""
"","S1","","html-keyboard-response","244","287570","0.0-1.0-335.0","0","0","12608","","null","","","null","37","","","","","","","","","","","","","","","",""
"","ISI","","html-keyboard-response","245","289573","0.0-1.0-336.0","0","0","12608","","null","","","null","37","NaN","","","","","","","","","","","","","","",""
"","S2","","html-keyboard-response","246","289591","0.0-1.0-337.0","0","0","12608","","17","","","75","37","","k","1","37","training","adjacent","ED","5","4","R.jpg","Q.jpg","0","0","1","",""
"","feedback","","html-keyboard-response","247","290594","0.0-1.0-339.0-0.0","0","0","12608","","null","","","null","37","","","","","","","","","","","","","","","",""
"","ITI","","html-keyboard-response","248","291597","0.0-1.0-342.0","0","0","12608","","null","","","null","37","","","","","","","","","","","","","","","NaN",""
"","S1","","html-keyboard-response","249","291751","0.0-1.0-344.0","0","0","12608","","null","","","null","38","","","","","","","","","","","","","","","",""
"","ISI","","html-keyboard-response","250","293754","0.0-1.0-345.0","0","0","12608","","null","","","null","38","NaN","","","","","","","","","","","","","","",""
"","S2","","html-keyboard-response","251","293908","0.0-1.0-346.0","0","0","12608","","null","","","null","38","","NaN","","","","","","","","","","","","","",""
"","response","","html-keyboard-response","252","293974","0.0-1.0-347.0-0.0","0","0","12608","","64","","","75","38","","","1","38","training","adjacent","EF","5","6","R.jpg","N.jpg","0","1","0","",""
"","feedback","","html-keyboard-response","253","294978","0.0-1.0-348.0-0.0","0","0","12608","","null","","","null","38","","","","","","","","","","","","","","","",""
"","time_out","","html-keyboard-response","254","296980","0.0-1.0-350.0-0.0","0","0","12608","","null","","","null","38","","","","","","","","","","","","","","","",""
"","ITI","","html-keyboard-response","255","297983","0.0-1.0-351.0","0","0","12608","","null","","","null","38","","","","","","","","","","","","","","","NaN",""
"","S1","","html-keyboard-response","256","298137","0.0-1.0-353.0","0","0","12608","","null","","","null","39","","","","","","","","","","","","","","","",""
"","ISI","","html-keyboard-response","257","300141","0.0-1.0-354.0","0","0","12608","","null","","","null","39","NaN","","","","","","","","","","","","","","",""
"","S2","","html-keyboard-response","258","300294","0.0-1.0-355.0","0","0","12608","","null","","","null","39","","NaN","","","","","","","","","","","","","",""
"","response","","html-keyboard-response","259","300438","0.0-1.0-356.0-0.0","0","0","12608","","141","","","68","39","","","1","39","training","adjacent","DE","4","5","Q.jpg","R.jpg","1","1","1","",""
"","feedback","","html-keyboard-response","260","301442","0.0-1.0-357.0-0.0","0","0","12608","","null","","","null","39","","","","","","","","","","","","","","","",""
"","ITI","","html-keyboard-response","261","302445","0.0-1.0-360.0","0","0","12608","","null","","","null","39","","","","","","","","","","","","","","","NaN",""
"","S1","","html-keyboard-response","262","302597","0.0-1.0-362.0","0","0","12608","","null","","","null","40","","","","","","","","","","","","","","","",""
"","ISI","","html-keyboard-response","263","304600","0.0-1.0-363.0","0","0","12608","","null","","","null","40","NaN","","","","","","","","","","","","","","",""
"","S2","","html-keyboard-response","264","304754","0.0-1.0-364.0","0","0","12608","","null","","","null","40","","NaN","","","","","","","","","","","","","",""
"","response","","html-keyboard-response","265","305054","0.0-1.0-365.0-0.0","0","0","12608","","297","","","68","40","","","1","40","training","adjacent","ED","5","4","R.jpg","Q.jpg","1","0","0","",""
"","feedback","","html-keyboard-response","266","306059","0.0-1.0-366.0-0.0","0","0","12608","","null","","","null","40","","","","","","","","","","","","","","","",""
"","time_out","","html-keyboard-response","267","308063","0.0-1.0-368.0-0.0","0","0","12608","","null","","","null","40","","","","","","","","","","","","","","","",""
"","ITI","","html-keyboard-response","268","309065","0.0-1.0-369.0","0","0","12608","","null","","","null","40","","","","","","","","","","","","","","","NaN",""
"","S1","","html-keyboard-response","269","309219","0.0-1.0-371.0","0","0","12608","","null","","","null","41","","","","","","","","","","","","","","","",""
"","ISI","","html-keyboard-response","270","311222","0.0-1.0-372.0","0","0","12608","","null","","","null","41","NaN","","","","","","","","","","","","","","",""
"","S2","","html-keyboard-response","271","311375","0.0-1.0-373.0","0","0","12608","","null","","","null","41","","NaN","","","","","","","","","","","","","",""
"","response","","html-keyboard-response","272","311787","0.0-1.0-374.0-0.0","0","0","12608","","411","","","75","41","","","1","41","training","adjacent","EF","5","6","R.jpg","N.jpg","0","1","0","",""
"","feedback","","html-keyboard-response","273","312791","0.0-1.0-375.0-0.0","0","0","12608","","null","","","null","41","","","","","","","","","","","","","","","",""
"","time_out","","html-keyboard-response","274","314793","0.0-1.0-377.0-0.0","0","0","12608","","null","","","null","41","","","","","","","","","","","","","","","",""
"","ITI","","html-keyboard-response","275","315796","0.0-1.0-378.0","0","0","12608","","null","","","null","41","","","","","","","","","","","","","","","NaN",""
"","S1","","html-keyboard-response","276","315949","0.0-1.0-380.0","0","0","12608","","null","","","null","42","","","","","","","","","","","","","","","",""
"","ISI","","html-keyboard-response","277","317952","0.0-1.0-381.0","0","0","12608","","null","","","null","42","NaN","","","","","","","","","","","","","","",""
"","S2","","html-keyboard-response","278","318107","0.0-1.0-382.0","0","0","12608","","null","","","null","42","","NaN","","","","","","","","","","","","","",""
"","response","","html-keyboard-response","279","318273","0.0-1.0-383.0-0.0","0","0","12608","","165","","","68","42","","","1","42","training","adjacent","CB","3","2","M.jpg","P.jpg","1","0","0","",""
"","feedback","","html-keyboard-response","280","319276","0.0-1.0-384.0-0.0","0","0","12608","","null","","","null","42","","","","","","","","","","","","","","","",""
"","time_out","","html-keyboard-response","281","321279","0.0-1.0-386.0-0.0","0","0","12608","","null","","","null","42","","","","","","","","","","","","","","","",""
"","ITI","","html-keyboard-response","282","322283","0.0-1.0-387.0","0","0","12608","","null","","","null","42","","","","","","","","","","","","","","","NaN",""
"","S1","","html-keyboard-response","283","322438","0.0-1.0-389.0","0","0","12608","","null","","","null","43","","","","","","","","","","","","","","","",""
"","ISI","","html-keyboard-response","284","324442","0.0-1.0-390.0","0","0","12608","","220","","","75","43","k","","","","","","","","","","","","","","",""
"","S2","","html-keyboard-response","285","324597","0.0-1.0-391.0","0","0","12608","","null","","","null","43","","NaN","","","","","","","","","","","","","",""
"","response","","html-keyboard-response","286","324693","0.0-1.0-392.0-0.0","0","0","12608","","93","","","75","43","","","1","43","training","adjacent","CD","3","4","M.jpg","Q.jpg","0","1","0","",""
"","feedback","","html-keyboard-response","287","325698","0.0-1.0-393.0-0.0","0","0","12608","","null","","","null","43","","","","","","","","","","","","","","","",""
"","time_out","","html-keyboard-response","288","327703","0.0-1.0-395.0-0.0","0","0","12608","","null","","","null","43","","","","","","","","","","","","","","","",""
"","ITI","","html-keyboard-response","289","328706","0.0-1.0-396.0","0","0","12608","","null","","","null","43","","","","","","","","","","","","","","","NaN",""
"","S1","","html-keyboard-response","290","328858","0.0-1.0-398.0","0","0","12608","","null","","","null","44","","","","","","","","","","","","","","","",""
"","ISI","","html-keyboard-response","291","330861","0.0-1.0-399.0","0","0","12608","","null","","","null","44","NaN","","","","","","","","","","","","","","",""
"","S2","","html-keyboard-response","292","331015","0.0-1.0-400.0","0","0","12608","","null","","","null","44","","NaN","","","","","","","","","","","","","",""
"","response","","html-keyboard-response","293","331116","0.0-1.0-401.0-0.0","0","0","12608","","98","","","68","44","","","1","44","training","adjacent","AB","1","2","L.jpg","P.jpg","1","1","1","",""
"","feedback","","html-keyboard-response","294","332120","0.0-1.0-402.0-0.0","0","0","12608","","null","","","null","44","","","","","","","","","","","","","","","",""
"","ITI","","html-keyboard-response","295","333123","0.0-1.0-405.0","0","0","12608","","null","","","null","44","","","","","","","","","","","","","","","NaN",""
"","S1","","html-keyboard-response","296","333275","0.0-1.0-407.0","0","0","12608","","null","","","null","45","","","","","","","","","","","","","","","",""
"","ISI","","html-keyboard-response","297","335278","0.0-1.0-408.0","0","0","12608","","null","","","null","45","NaN","","","","","","","","","","","","","","",""
"","S2","","html-keyboard-response","298","335432","0.0-1.0-409.0","0","0","12608","","null","","","null","45","","NaN","","","","","","","","","","","","","",""
"","response","","html-keyboard-response","299","335756","0.0-1.0-410.0-0.0","0","0","12608","","322","","","68","45","","","1","45","training","adjacent","BA","2","1","P.jpg","L.jpg","1","0","0","",""
"","feedback","","html-keyboard-response","300","336759","0.0-1.0-411.0-0.0","0","0","12608","","null","","","null","45","","","","","","","","","","","","","","","",""
"","time_out","","html-keyboard-response","301","338762","0.0-1.0-413.0-0.0","0","0","12608","","null","","","null","45","","","","","","","","","","","","","","","",""
"","ITI","","html-keyboard-response","302","339764","0.0-1.0-414.0","0","0","12608","","null","","","null","45","","","","","","","","","","","","","","","NaN",""
"","S1","","html-keyboard-response","303","339918","0.0-1.0-416.0","0","0","12608","","null","","","null","46","","","","","","","","","","","","","","","",""
"","ISI","","html-keyboard-response","304","341921","0.0-1.0-417.0","0","0","12608","","null","","","null","46","NaN","","","","","","","","","","","","","","",""
"","S2","","html-keyboard-response","305","342074","0.0-1.0-418.0","0","0","12608","","null","","","null","46","","NaN","","","","","","","","","","","","","",""
"","response","","html-keyboard-response","306","342328","0.0-1.0-419.0-0.0","0","0","12608","","252","","","68","46","","","1","46","training","adjacent","DC","4","3","Q.jpg","M.jpg","1","0","0","",""
"","feedback","","html-keyboard-response","307","343332","0.0-1.0-420.0-0.0","0","0","12608","","null","","","null","46","","","","","","","","","","","","","","","",""
"","time_out","","html-keyboard-response","308","345335","0.0-1.0-422.0-0.0","0","0","12608","","null","","","null","46","","","","","","","","","","","","","","","",""
"","ITI","","html-keyboard-response","309","346338","0.0-1.0-423.0","0","0","12608","","null","","","null","46","","","","","","","","","","","","","","","NaN",""
"","S1","","html-keyboard-response","310","346492","0.0-1.0-425.0","0","0","12608","","null","","","null","47","","","","","","","","","","","","","","","",""
"","ISI","","html-keyboard-response","311","348498","0.0-1.0-426.0","0","0","12608","","null","","","null","47","NaN","","","","","","","","","","","","","","",""
"","S2","","html-keyboard-response","312","348653","0.0-1.0-427.0","0","0","12608","","null","","","null","47","","NaN","","","","","","","","","","","","","",""
"","response","","html-keyboard-response","313","348724","0.0-1.0-428.0-0.0","0","0","12608","","67","","","75","47","","","1","47","training","adjacent","BC","2","3","P.jpg","M.jpg","0","1","0","",""
"","feedback","","html-keyboard-response","314","349729","0.0-1.0-429.0-0.0","0","0","12608","","null","","","null","47","","","","","","","","","","","","","","","",""
"","time_out","","html-keyboard-response","315","351734","0.0-1.0-431.0-0.0","0","0","12608","","null","","","null","47","","","","","","","","","","","","","","","",""
"","ITI","","html-keyboard-response","316","352738","0.0-1.0-432.0","0","0","12608","","null","","","null","47","","","","","","","","","","","","","","","NaN",""
"","block_over","","html-keyboard-response","317","361634","0.0-1.0-433.0-0.0","0","0","12608","","8893","","","32","47","","","","","","","","","","","","","","","",""
"","S1","","html-keyboard-response","318","361787","0.0-1.0-434.0","0","0","12608","","null","","","null","48","","","","","","","","","","","","","","","",""
"","ISI","","html-keyboard-response","319","363790","0.0-1.0-435.0","0","0","12608","","null","","","null","48","NaN","","","","","","","","","","","","","","",""
"","S2","","html-keyboard-response","320","363942","0.0-1.0-436.0","0","0","12608","","null","","","null","48","","NaN","","","","","","","","","","","","","",""
"","response","","html-keyboard-response","321","364334","0.0-1.0-437.0-0.0","0","0","12608","","390","","","68","48","","","2","48","training","adjacent","AB","1","2","L.jpg","P.jpg","1","1","1","",""
"","feedback","","html-keyboard-response","322","365337","0.0-1.0-438.0-0.0","0","0","12608","","null","","","null","48","","","","","","","","","","","","","","","",""
"","ITI","","html-keyboard-response","323","366340","0.0-1.0-441.0","0","0","12608","","null","","","null","48","","","","","","","","","","","","","","","NaN",""
"","S1","","html-keyboard-response","324","366494","0.0-1.0-443.0","0","0","12608","","null","","","null","49","","","","","","","","","","","","","","","",""
"","ISI","","html-keyboard-response","325","368496","0.0-1.0-444.0","0","0","12608","","null","","","null","49","NaN","","","","","","","","","","","","","","",""
"","S2","","html-keyboard-response","326","368651","0.0-1.0-445.0","0","0","12608","","null","","","null","49","","NaN","","","","","","","","","","","","","",""
"","response","","html-keyboard-response","327","369013","0.0-1.0-446.0-0.0","0","0","12608","","359","","","68","49","","","2","49","training","adjacent","FG","6","7","N.jpg","O.jpg","1","1","1","",""
"","feedback","","html-keyboard-response","328","370018","0.0-1.0-447.0-0.0","0","0","12608","","null","","","null","49","","","","","","","","","","","","","","","",""
"","ITI","","html-keyboard-response","329","371022","0.0-1.0-450.0","0","0","12608","","null","","","null","49","","","","","","","","","","","","","","","NaN",""
"","S1","","html-keyboard-response","330","371176","0.0-1.0-452.0","0","0","12608","","null","","","null","50","","","","","","","","","","","","","","","",""
"","ISI","","html-keyboard-response","331","373179","0.0-1.0-453.0","0","0","12608","","null","","","null","50","NaN","","","","","","","","","","","","","","",""
"","S2","","html-keyboard-response","332","373334","0.0-1.0-454.0","0","0","12608","","null","","","null","50","","NaN","","","","","","","","","","","","","",""
"","response","","html-keyboard-response","333","373558","0.0-1.0-455.0-0.0","0","0","12608","","221","","","68","50","","","2","50","training","adjacent","FE","6","5","N.jpg","R.jpg","1","0","0","",""
"","feedback","","html-keyboard-response","334","374561","0.0-1.0-456.0-0.0","0","0","12608","","null","","","null","50","","","","","","","","","","","","","","","",""
"","time_out","","html-keyboard-response","335","376563","0.0-1.0-458.0-0.0","0","0","12608","","null","","","null","50","","","","","","","","","","","","","","","",""
"","ITI","","html-keyboard-response","336","377565","0.0-1.0-459.0","0","0","12608","","null","","","null","50","","","","","","","","","","","","","","","NaN",""
"","S1","","html-keyboard-response","337","377718","0.0-1.0-461.0","0","0","12608","","null","","","null","51","","","","","","","","","","","","","","","",""
"","ISI","","html-keyboard-response","338","379722","0.0-1.0-462.0","0","0","12608","","null","","","null","51","NaN","","","","","","","","","","","","","","",""
"","S2","","html-keyboard-response","339","379877","0.0-1.0-463.0","0","0","12608","","null","","","null","51","","NaN","","","","","","","","","","","","","",""
"","response","","html-keyboard-response","340","380016","0.0-1.0-464.0-0.0","0","0","12608","","137","","","68","51","","","2","51","training","adjacent","AB","1","2","L.jpg","P.jpg","1","1","1","",""
"","feedback","","html-keyboard-response","341","381020","0.0-1.0-465.0-0.0","0","0","12608","","null","","","null","51","","","","","","","","","","","","","","","",""
"","ITI","","html-keyboard-response","342","382023","0.0-1.0-468.0","0","0","12608","","null","","","null","51","","","","","","","","","","","","","","","NaN",""
"","S1","","html-keyboard-response","343","382177","0.0-1.0-470.0","0","0","12608","","null","","","null","52","","","","","","","","","","","","","","","",""
"","ISI","","html-keyboard-response","344","384179","0.0-1.0-471.0","0","0","12608","","null","","","null","52","NaN","","","","","","","","","","","","","","",""
"","S2","","html-keyboard-response","345","384333","0.0-1.0-472.0","0","0","12608","","null","","","null","52","","NaN","","","","","","","","","","","","","",""
"","response","","html-keyboard-response","346","384540","0.0-1.0-473.0-0.0","0","0","12608","","206","","","68","52","","","2","52","training","adjacent","DC","4","3","Q.jpg","M.jpg","1","0","0","",""
"","feedback","","html-keyboard-response","347","385543","0.0-1.0-474.0-0.0","0","0","12608","","null","","","null","52","","","","","","","","","","","","","","","",""
"","time_out","","html-keyboard-response","348","387546","0.0-1.0-476.0-0.0","0","0","12608","","null","","","null","52","","","","","","","","","","","","","","","",""
"","ITI","","html-keyboard-response","349","388548","0.0-1.0-477.0","0","0","12608","","null","","","null","52","","","","","","","","","","","","","","","NaN",""
"","S1","","html-keyboard-response","350","388702","0.0-1.0-479.0","0","0","12608","","null","","","null","53","","","","","","","","","","","","","","","",""
"","ISI","","html-keyboard-response","351","390705","0.0-1.0-480.0","0","0","12608","","null","","","null","53","NaN","","","","","","","","","","","","","","",""
"","S2","","html-keyboard-response","352","390858","0.0-1.0-481.0","0","0","12608","","null","","","null","53","","NaN","","","","","","","","","","","","","",""
"","response","","html-keyboard-response","353","391571","0.0-1.0-482.0-0.0","0","0","12608","","711","","","75","53","","","2","53","training","adjacent","EF","5","6","R.jpg","N.jpg","0","1","0","",""
"","feedback","","html-keyboard-response","354","392574","0.0-1.0-483.0-0.0","0","0","12608","","null","","","null","53","","","","","","","","","","","","","","","",""
"","time_out","","html-keyboard-response","355","394577","0.0-1.0-485.0-0.0","0","0","12608","","null","","","null","53","","","","","","","","","","","","","","","",""
"","ITI","","html-keyboard-response","356","395580","0.0-1.0-486.0","0","0","12608","","null","","","null","53","","","","","","","","","","","","","","","NaN",""
"","S1","","html-keyboard-response","357","395734","0.0-1.0-488.0","0","0","12608","","null","","","null","54","","","","","","","","","","","","","","","",""
"","ISI","","html-keyboard-response","358","397739","0.0-1.0-489.0","0","0","12608","","null","","","null","54","NaN","","","","","","","","","","","","","","",""
"","S2","","html-keyboard-response","359","397893","0.0-1.0-490.0","0","0","12608","","null","","","null","54","","NaN","","","","","","","","","","","","","",""
"","response","","html-keyboard-response","360","398050","0.0-1.0-491.0-0.0","0","0","12608","","154","","","68","54","","","2","54","training","adjacent","GF","7","6","O.jpg","N.jpg","1","0","0","",""
"","feedback","","html-keyboard-response","361","399053","0.0-1.0-492.0-0.0","0","0","12608","","null","","","null","54","","","","","","","","","","","","","","","",""
"","time_out","","html-keyboard-response","362","401055","0.0-1.0-494.0-0.0","0","0","12608","","null","","","null","54","","","","","","","","","","","","","","","",""
"","ITI","","html-keyboard-response","363","402059","0.0-1.0-495.0","0","0","12608","","null","","","null","54","","","","","","","","","","","","","","","NaN",""
"","S1","","html-keyboard-response","364","402212","0.0-1.0-497.0","0","0","12608","","null","","","null","55","","","","","","","","","","","","","","","",""
"","ISI","","html-keyboard-response","365","404216","0.0-1.0-498.0","0","0","12608","","null","","","null","55","NaN","","","","","","","","","","","","","","",""
"","S2","","html-keyboard-response","366","404370","0.0-1.0-499.0","0","0","12608","","null","","","null","55","","NaN","","","","","","","","","","","","","",""
"","response","","html-keyboard-response","367","405188","0.0-1.0-500.0-0.0","0","0","12608","","816","","","75","55","","","2","55","training","adjacent","GF","7","6","O.jpg","N.jpg","0","0","1","",""
"","feedback","","html-keyboard-response","368","406191","0.0-1.0-501.0-0.0","0","0","12608","","null","","","null","55","","","","","","","","","","","","","","","",""
"","ITI","","html-keyboard-response","369","407194","0.0-1.0-504.0","0","0","12608","","null","","","null","55","","","","","","","","","","","","","","","NaN",""
"","S1","","html-keyboard-response","370","407348","0.0-1.0-506.0","0","0","12608","","null","","","null","56","","","","","","","","","","","","","","","",""
"","ISI","","html-keyboard-response","371","409350","0.0-1.0-507.0","0","0","12608","","null","","","null","56","NaN","","","","","","","","","","","","","","",""
"","S2","","html-keyboard-response","372","409504","0.0-1.0-508.0","0","0","12608","","null","","","null","56","","NaN","","","","","","","","","","","","","",""
"","response","","html-keyboard-response","373","410445","0.0-1.0-509.0-0.0","0","0","12608","","940","","","75","56","","","2","56","training","adjacent","CD","3","4","M.jpg","Q.jpg","0","1","0","",""
"","feedback","","html-keyboard-response","374","411448","0.0-1.0-510.0-0.0","0","0","12608","","null","","","null","56","","","","","","","","","","","","","","","",""
"","time_out","","html-keyboard-response","375","413451","0.0-1.0-512.0-0.0","0","0","12608","","null","","","null","56","","","","","","","","","","","","","","","",""
"","ITI","","html-keyboard-response","376","414454","0.0-1.0-513.0","0","0","12608","","null","","","null","56","","","","","","","","","","","","","","","NaN",""
"","S1","","html-keyboard-response","377","414607","0.0-1.0-515.0","0","0","12608","","null","","","null","57","","","","","","","","","","","","","","","",""
"","ISI","","html-keyboard-response","378","416611","0.0-1.0-516.0","0","0","12608","","null","","","null","57","NaN","","","","","","","","","","","","","","",""
"","S2","","html-keyboard-response","379","416766","0.0-1.0-517.0","0","0","12608","","null","","","null","57","","NaN","","","","","","","","","","","","","",""
"","response","","html-keyboard-response","380","417769","0.0-1.0-518.0-0.0","0","0","12608","","1000","","","68","57","","","2","57","training","adjacent","CD","3","4","M.jpg","Q.jpg","1","1","1","",""
"","feedback","","html-keyboard-response","381","418773","0.0-1.0-519.0-0.0","0","0","12608","","null","","","null","57","","","","","","","","","","","","","","","",""
"","ITI","","html-keyboard-response","382","419777","0.0-1.0-522.0","0","0","12608","","null","","","null","57","","","","","","","","","","","","","","","NaN",""
"","S1","","html-keyboard-response","383","419931","0.0-1.0-524.0","0","0","12608","","null","","","null","58","","","","","","","","","","","","","","","",""
"","ISI","","html-keyboard-response","384","421934","0.0-1.0-525.0","0","0","12608","","null","","","null","58","NaN","","","","","","","","","","","","","","",""
"","S2","","html-keyboard-response","385","422089","0.0-1.0-526.0","0","0","12608","","null","","","null","58","","NaN","","","","","","","","","","","","","",""
"","response","","html-keyboard-response","386","422622","0.0-1.0-527.0-0.0","0","0","12608","","531","","","68","58","","","2","58","training","adjacent","CB","3","2","M.jpg","P.jpg","1","0","0","",""
"","feedback","","html-keyboard-response","387","423627","0.0-1.0-528.0-0.0","0","0","12608","","null","","","null","58","","","","","","","","","","","","","","","",""
"","time_out","","html-keyboard-response","388","425630","0.0-1.0-530.0-0.0","0","0","12608","","null","","","null","58","","","","","","","","","","","","","","","",""
"","ITI","","html-keyboard-response","389","426633","0.0-1.0-531.0","0","0","12608","","null","","","null","58","","","","","","","","","","","","","","","NaN",""
"","S1","","html-keyboard-response","390","426786","0.0-1.0-533.0","0","0","12608","","null","","","null","59","","","","","","","","","","","","","","","",""
"","ISI","","html-keyboard-response","391","428789","0.0-1.0-534.0","0","0","12608","","null","","","null","59","NaN","","","","","","","","","","","","","","",""
"","S2","","html-keyboard-response","392","428943","0.0-1.0-535.0","0","0","12608","","null","","","null","59","","NaN","","","","","","","","","","","","","",""
"","response","","html-keyboard-response","393","429166","0.0-1.0-536.0-0.0","0","0","12608","","221","","","75","59","","","2","59","training","adjacent","FG","6","7","N.jpg","O.jpg","0","1","0","",""
"","feedback","","html-keyboard-response","394","430170","0.0-1.0-537.0-0.0","0","0","12608","","null","","","null","59","","","","","","","","","","","","","","","",""
"","time_out","","html-keyboard-response","395","432173","0.0-1.0-539.0-0.0","0","0","12608","","null","","","null","59","","","","","","","","","","","","","","","",""
"","ITI","","html-keyboard-response","396","433176","0.0-1.0-540.0","0","0","12608","","null","","","null","59","","","","","","","","","","","","","","","NaN",""
"","S1","","html-keyboard-response","397","433329","0.0-1.0-542.0","0","0","12608","","null","","","null","60","","","","","","","","","","","","","","","",""
"","ISI","","html-keyboard-response","398","435332","0.0-1.0-543.0","0","0","12608","","null","","","null","60","NaN","","","","","","","","","","","","","","",""
"","S2","","html-keyboard-response","399","435486","0.0-1.0-544.0","0","0","12608","","null","","","null","60","","NaN","","","","","","","","","","","","","",""
"","response","","html-keyboard-response","400","435586","0.0-1.0-545.0-0.0","0","0","12608","","99","","","68","60","","","2","60","training","adjacent","AB","1","2","L.jpg","P.jpg","1","1","1","",""
"","feedback","","html-keyboard-response","401","436590","0.0-1.0-546.0-0.0","0","0","12608","","null","","","null","60","","","","","","","","","","","","","","","",""
"","ITI","","html-keyboard-response","402","437593","0.0-1.0-549.0","0","0","12608","","null","","","null","60","","","","","","","","","","","","","","","NaN",""
"","S1","","html-keyboard-response","403","437746","0.0-1.0-551.0","0","0","12608","","null","","","null","61","","","","","","","","","","","","","","","",""
"","ISI","","html-keyboard-response","404","439749","0.0-1.0-552.0","0","0","12608","","null","","","null","61","NaN","","","","","","","","","","","","","","",""
"","S2","","html-keyboard-response","405","439799","0.0-1.0-553.0","0","0","12608","","48","","","68","61","","d","2","61","training","adjacent","CD","3","4","M.jpg","Q.jpg","1","1","1","",""
"","feedback","","html-keyboard-response","406","440802","0.0-1.0-555.0-0.0","0","0","12608","","null","","","null","61","","","","","","","","","","","","","","","",""
"","ITI","","html-keyboard-response","407","441804","0.0-1.0-558.0","0","0","12608","","null","","","null","61","","","","","","","","","","","","","","","NaN",""
"","S1","","html-keyboard-response","408","441958","0.0-1.0-560.0","0","0","12608","","null","","","null","62","","","","","","","","","","","","","","","",""
"","ISI","","html-keyboard-response","409","443960","0.0-1.0-561.0","0","0","12608","","null","","","null","62","NaN","","","","","","","","","","","","","","",""
"","S2","","html-keyboard-response","410","444115","0.0-1.0-562.0","0","0","12608","","null","","","null","62","","NaN","","","","","","","","","","","","","",""
"","response","","html-keyboard-response","411","444658","0.0-1.0-563.0-0.0","0","0","12608","","542","","","68","62","","","2","62","training","adjacent","BC","2","3","P.jpg","M.jpg","1","1","1","",""
"","feedback","","html-keyboard-response","412","445662","0.0-1.0-564.0-0.0","0","0","12608","","null","","","null","62","","","","","","","","","","","","","","","",""
"","ITI","","html-keyboard-response","413","446665","0.0-1.0-567.0","0","0","12608","","null","","","null","62","","","","","","","","","","","","","","","NaN",""
"","S1","","html-keyboard-response","414","446818","0.0-1.0-569.0","0","0","12608","","null","","","null","63","","","","","","","","","","","","","","","",""
"","ISI","","html-keyboard-response","415","448822","0.0-1.0-570.0","0","0","12608","","null","","","null","63","NaN","","","","","","","","","","","","","","",""
"","S2","","html-keyboard-response","416","448975","0.0-1.0-571.0","0","0","12608","","null","","","null","63","","NaN","","","","","","","","","","","","","",""
"","response","","html-keyboard-response","417","449393","0.0-1.0-572.0-0.0","0","0","12608","","416","","","68","63","","","2","63","training","adjacent","BC","2","3","P.jpg","M.jpg","1","1","1","",""
"","feedback","","html-keyboard-response","418","450396","0.0-1.0-573.0-0.0","0","0","12608","","null","","","null","63","","","","","","","","","","","","","","","",""
"","ITI","","html-keyboard-response","419","451399","0.0-1.0-576.0","0","0","12608","","null","","","null","63","","","","","","","","","","","","","","","NaN",""
"","S1","","html-keyboard-response","420","451551","0.0-1.0-578.0","0","0","12608","","null","","","null","64","","","","","","","","","","","","","","","",""
"","ISI","","html-keyboard-response","421","453554","0.0-1.0-579.0","0","0","12608","","null","","","null","64","NaN","","","","","","","","","","","","","","",""
"","S2","","html-keyboard-response","422","453707","0.0-1.0-580.0","0","0","12608","","null","","","null","64","","NaN","","","","","","","","","","","","","",""
"","response","","html-keyboard-response","423","453880","0.0-1.0-581.0-0.0","0","0","12608","","171","","","68","64","","","2","64","training","adjacent","ED","5","4","R.jpg","Q.jpg","1","0","0","",""
"","feedback","","html-keyboard-response","424","454883","0.0-1.0-582.0-0.0","0","0","12608","","null","","","null","64","","","","","","","","","","","","","","","",""
"","time_out","","html-keyboard-response","425","456886","0.0-1.0-584.0-0.0","0","0","12608","","null","","","null","64","","","","","","","","","","","","","","","",""
"","ITI","","html-keyboard-response","426","457888","0.0-1.0-585.0","0","0","12608","","null","","","null","64","","","","","","","","","","","","","","","NaN",""
"","S1","","html-keyboard-response","427","458042","0.0-1.0-587.0","0","0","12608","","null","","","null","65","","","","","","","","","","","","","","","",""
"","ISI","","html-keyboard-response","428","460044","0.0-1.0-588.0","0","0","12608","","174","","","75","65","k","","","","","","","","","","","","","","",""
"","S2","","html-keyboard-response","429","460198","0.0-1.0-589.0","0","0","12608","","null","","","null","65","","NaN","","","","","","","","","","","","","",""
"","response","","html-keyboard-response","430","460369","0.0-1.0-590.0-0.0","0","0","12608","","170","","","75","65","","","2","65","training","adjacent","CD","3","4","M.jpg","Q.jpg","0","1","0","",""
"","feedback","","html-keyboard-response","431","461372","0.0-1.0-591.0-0.0","0","0","12608","","null","","","null","65","","","","","","","","","","","","","","","",""
"","time_out","","html-keyboard-response","432","463375","0.0-1.0-593.0-0.0","0","0","12608","","null","","","null","65","","","","","","","","","","","","","","","",""
"","ITI","","html-keyboard-response","433","464377","0.0-1.0-594.0","0","0","12608","","null","","","null","65","","","","","","","","","","","","","","","NaN",""
"","S1","","html-keyboard-response","434","464530","0.0-1.0-596.0","0","0","12608","","null","","","null","66","","","","","","","","","","","","","","","",""
"","ISI","","html-keyboard-response","435","466533","0.0-1.0-597.0","0","0","12608","","575","","","68","66","d","","","","","","","","","","","","","","",""
"","S2","","html-keyboard-response","436","466686","0.0-1.0-598.0","0","0","12608","","null","","","null","66","","NaN","","","","","","","","","","","","","",""
"","response","","html-keyboard-response","437","467080","0.0-1.0-599.0-0.0","0","0","12608","","392","","","68","66","","","2","66","training","adjacent","GF","7","6","O.jpg","N.jpg","1","0","0","",""
"","feedback","","html-keyboard-response","438","468084","0.0-1.0-600.0-0.0","0","0","12608","","null","","","null","66","","","","","","","","","","","","","","","",""
"","time_out","","html-keyboard-response","439","470089","0.0-1.0-602.0-0.0","0","0","12608","","null","","","null","66","","","","","","","","","","","","","","","",""
"","ITI","","html-keyboard-response","440","471092","0.0-1.0-603.0","0","0","12608","","null","","","null","66","","","","","","","","","","","","","","","NaN",""
"","S1","","html-keyboard-response","441","471247","0.0-1.0-605.0","0","0","12608","","null","","","null","67","","","","","","","","","","","","","","","",""
"","ISI","","html-keyboard-response","442","473250","0.0-1.0-606.0","0","0","12608","","null","","","null","67","NaN","","","","","","","","","","","","","","",""
"","S2","","html-keyboard-response","443","473404","0.0-1.0-607.0","0","0","12608","","null","","","null","67","","NaN","","","","","","","","","","","","","",""
"","response","","html-keyboard-response","444","473556","0.0-1.0-608.0-0.0","0","0","12608","","149","","","75","67","","","2","67","training","adjacent","EF","5","6","R.jpg","N.jpg","0","1","0","",""
"","feedback","","html-keyboard-response","445","474560","0.0-1.0-609.0-0.0","0","0","12608","","null","","","null","67","","","","","","","","","","","","","","","",""
"","time_out","","html-keyboard-response","446","476563","0.0-1.0-611.0-0.0","0","0","12608","","null","","","null","67","","","","","","","","","","","","","","","",""
"","ITI","","html-keyboard-response","447","477565","0.0-1.0-612.0","0","0","12608","","null","","","null","67","","","","","","","","","","","","","","","NaN",""
"","S1","","html-keyboard-response","448","477718","0.0-1.0-614.0","0","0","12608","","null","","","null","68","","","","","","","","","","","","","","","",""
"","ISI","","html-keyboard-response","449","479721","0.0-1.0-615.0","0","0","12608","","null","","","null","68","NaN","","","","","","","","","","","","","","",""
"","S2","","html-keyboard-response","450","479875","0.0-1.0-616.0","0","0","12608","","null","","","null","68","","NaN","","","","","","","","","","","","","",""
"","response","","html-keyboard-response","451","480402","0.0-1.0-617.0-0.0","0","0","12608","","525","","","68","68","","","2","68","training","adjacent","CB","3","2","M.jpg","P.jpg","1","0","0","",""
"","feedback","","html-keyboard-response","452","481405","0.0-1.0-618.0-0.0","0","0","12608","","null","","","null","68","","","","","","","","","","","","","","","",""
"","time_out","","html-keyboard-response","453","483408","0.0-1.0-620.0-0.0","0","0","12608","","null","","","null","68","","","","","","","","","","","","","","","",""
"","ITI","","html-keyboard-response","454","484410","0.0-1.0-621.0","0","0","12608","","null","","","null","68","","","","","","","","","","","","","","","NaN",""
"","S1","","html-keyboard-response","455","484564","0.0-1.0-623.0","0","0","12608","","null","","","null","69","","","","","","","","","","","","","","","",""
"","ISI","","html-keyboard-response","456","486566","0.0-1.0-624.0","0","0","12608","","null","","","null","69","NaN","","","","","","","","","","","","","","",""
"","S2","","html-keyboard-response","457","486720","0.0-1.0-625.0","0","0","12608","","null","","","null","69","","NaN","","","","","","","","","","","","","",""
"","response","","html-keyboard-response","458","486854","0.0-1.0-626.0-0.0","0","0","12608","","131","","","75","69","","","2","69","training","adjacent","DE","4","5","Q.jpg","R.jpg","0","1","0","",""
"","feedback","","html-keyboard-response","459","487857","0.0-1.0-627.0-0.0","0","0","12608","","null","","","null","69","","","","","","","","","","","","","","","",""
"","time_out","","html-keyboard-response","460","489860","0.0-1.0-629.0-0.0","0","0","12608","","null","","","null","69","","","","","","","","","","","","","","","",""
"","ITI","","html-keyboard-response","461","490862","0.0-1.0-630.0","0","0","12608","","null","","","null","69","","","","","","","","","","","","","","","NaN",""
"","S1","","html-keyboard-response","462","491016","0.0-1.0-632.0","0","0","12608","","null","","","null","70","","","","","","","","","","","","","","","",""
"","ISI","","html-keyboard-response","463","493018","0.0-1.0-633.0","0","0","12608","","null","","","null","70","NaN","","","","","","","","","","","","","","",""
"","S2","","html-keyboard-response","464","493172","0.0-1.0-634.0","0","0","12608","","null","","","null","70","","NaN","","","","","","","","","","","","","",""
"","response","","html-keyboard-response","465","493730","0.0-1.0-635.0-0.0","0","0","12608","","555","","","68","70","","","2","70","training","adjacent","FE","6","5","N.jpg","R.jpg","1","0","0","",""
"","feedback","","html-keyboard-response","466","494735","0.0-1.0-636.0-0.0","0","0","12608","","null","","","null","70","","","","","","","","","","","","","","","",""
"","time_out","","html-keyboard-response","467","496739","0.0-1.0-638.0-0.0","0","0","12608","","null","","","null","70","","","","","","","","","","","","","","","",""
"","ITI","","html-keyboard-response","468","497744","0.0-1.0-639.0","0","0","12608","","null","","","null","70","","","","","","","","","","","","","","","NaN",""
"","S1","","html-keyboard-response","469","497898","0.0-1.0-641.0","0","0","12608","","null","","","null","71","","","","","","","","","","","","","","","",""
"","ISI","","html-keyboard-response","470","499903","0.0-1.0-642.0","0","0","12608","","1004","","","75","71","k","","","","","","","","","","","","","","",""
"","S2","","html-keyboard-response","471","500056","0.0-1.0-643.0","0","0","12608","","null","","","null","71","","NaN","","","","","","","","","","","","","",""
"","response","","html-keyboard-response","472","500167","0.0-1.0-644.0-0.0","0","0","12608","","109","","","75","71","","","2","71","training","adjacent","EF","5","6","R.jpg","N.jpg","0","1","0","",""
"","feedback","","html-keyboard-response","473","501171","0.0-1.0-645.0-0.0","0","0","12608","","null","","","null","71","","","","","","","","","","","","","","","",""
"","time_out","","html-keyboard-response","474","503174","0.0-1.0-647.0-0.0","0","0","12608","","null","","","null","71","","","","","","","","","","","","","","","",""
"","ITI","","html-keyboard-response","475","504177","0.0-1.0-648.0","0","0","12608","","null","","","null","71","","","","","","","","","","","","","","","NaN",""
"","S1","","html-keyboard-response","476","504333","0.0-1.0-650.0","0","0","12608","","null","","","null","72","","","","","","","","","","","","","","","",""
"","ISI","","html-keyboard-response","477","506336","0.0-1.0-651.0","0","0","12608","","null","","","null","72","NaN","","","","","","","","","","","","","","",""
"","S2","","html-keyboard-response","478","506489","0.0-1.0-652.0","0","0","12608","","null","","","null","72","","NaN","","","","","","","","","","","","","",""
"","response","","html-keyboard-response","479","508341","0.0-1.0-653.0-0.0","0","0","12608","","null","","","null","72","","","2","72","training","adjacent","BA","2","1","P.jpg","L.jpg","NaN","0","0","",""
"","too_slow_prompt","","html-keyboard-response","480","509344","0.0-1.0-655.0-0.0","1","0","12608","","null","","","null","","","","","","","","","","","","","","","","",""
"","time_out","","html-keyboard-response","481","511348","0.0-1.0-656.0-0.0","0","0","12608","","null","","","null","72","","","","","","","","","","","","","","","",""
"","ITI","","html-keyboard-response","482","512352","0.0-1.0-657.0","0","0","12608","","null","","","null","72","","","","","","","","","","","","","","","NaN",""
"","S1","","html-keyboard-response","483","512505","0.0-1.0-659.0","0","0","12608","","null","","","null","73","","","","","","","","","","","","","","","",""
"","ISI","","html-keyboard-response","484","514508","0.0-1.0-660.0","0","0","12608","","null","","","null","73","NaN","","","","","","","","","","","","","","",""
"","S2","","html-keyboard-response","485","514661","0.0-1.0-661.0","0","0","12608","","null","","","null","73","","NaN","","","","","","","","","","","","","",""
"","response","","html-keyboard-response","486","514823","0.0-1.0-662.0-0.0","0","0","12608","","160","","","68","73","","","2","73","training","adjacent","DE","4","5","Q.jpg","R.jpg","1","1","1","",""
"","feedback","","html-keyboard-response","487","515826","0.0-1.0-663.0-0.0","0","0","12608","","null","","","null","73","","","","","","","","","","","","","","","",""
"","ITI","","html-keyboard-response","488","516829","0.0-1.0-666.0","0","0","12608","","null","","","null","73","","","","","","","","","","","","","","","NaN",""
"","S1","","html-keyboard-response","489","516982","0.0-1.0-668.0","0","0","12608","","null","","","null","74","","","","","","","","","","","","","","","",""
"","ISI","","html-keyboard-response","490","518985","0.0-1.0-669.0","0","0","12608","","null","","","null","74","NaN","","","","","","","","","","","","","","",""
"","S2","","html-keyboard-response","491","519139","0.0-1.0-670.0","0","0","12608","","null","","","null","74","","NaN","","","","","","","","","","","","","",""
"","response","","html-keyboard-response","492","519274","0.0-1.0-671.0-0.0","0","0","12608","","134","","","68","74","","","2","74","training","adjacent","EF","5","6","R.jpg","N.jpg","1","1","1","",""
"","feedback","","html-keyboard-response","493","520277","0.0-1.0-672.0-0.0","0","0","12608","","null","","","null","74","","","","","","","","","","","","","","","",""
"","ITI","","html-keyboard-response","494","521279","0.0-1.0-675.0","0","0","12608","","null","","","null","74","","","","","","","","","","","","","","","NaN",""
"","S1","","html-keyboard-response","495","521432","0.0-1.0-677.0","0","0","12608","","null","","","null","75","","","","","","","","","","","","","","","",""
"","ISI","","html-keyboard-response","496","523434","0.0-1.0-678.0","0","0","12608","","null","","","null","75","NaN","","","","","","","","","","","","","","",""
"","S2","","html-keyboard-response","497","523588","0.0-1.0-679.0","0","0","12608","","null","","","null","75","","NaN","","","","","","","","","","","","","",""
"","response","","html-keyboard-response","498","524117","0.0-1.0-680.0-0.0","0","0","12608","","528","","","75","75","","","2","75","training","adjacent","DE","4","5","Q.jpg","R.jpg","0","1","0","",""
"","feedback","","html-keyboard-response","499","525121","0.0-1.0-681.0-0.0","0","0","12608","","null","","","null","75","","","","","","","","","","","","","","","",""
"","time_out","","html-keyboard-response","500","527125","0.0-1.0-683.0-0.0","0","0","12608","","null","","","null","75","","","","","","","","","","","","","","","",""
"","ITI","","html-keyboard-response","501","528129","0.0-1.0-684.0","0","0","12608","","null","","","null","75","","","","","","","","","","","","","","","NaN",""
"","S1","","html-keyboard-response","502","528282","0.0-1.0-686.0","0","0","12608","","null","","","null","76","","","","","","","","","","","","","","","",""
"","ISI","","html-keyboard-response","503","530285","0.0-1.0-687.0","0","0","12608","","null","","","null","76","NaN","","","","","","","","","","","","","","",""
"","S2","","html-keyboard-response","504","530439","0.0-1.0-688.0","0","0","12608","","null","","","null","76","","NaN","","","","","","","","","","","","","",""
"","response","","html-keyboard-response","505","530815","0.0-1.0-689.0-0.0","0","0","12608","","374","","","68","76","","","2","76","training","adjacent","DC","4","3","Q.jpg","M.jpg","1","0","0","",""
"","feedback","","html-keyboard-response","506","531819","0.0-1.0-690.0-0.0","0","0","12608","","null","","","null","76","","","","","","","","","","","","","","","",""
"","time_out","","html-keyboard-response","507","533823","0.0-1.0-692.0-0.0","0","0","12608","","null","","","null","76","","","","","","","","","","","","","","","",""
"","ITI","","html-keyboard-response","508","534826","0.0-1.0-693.0","0","0","12608","","null","","","null","76","","","","","","","","","","","","","","","NaN",""
"","S1","","html-keyboard-response","509","534981","0.0-1.0-695.0","0","0","12608","","null","","","null","77","","","","","","","","","","","","","","","",""
"","ISI","","html-keyboard-response","510","536984","0.0-1.0-696.0","0","0","12608","","413","","","75","77","k","","","","","","","","","","","","","","",""
"","S2","","html-keyboard-response","511","537138","0.0-1.0-697.0","0","0","12608","","null","","","null","77","","NaN","","","","","","","","","","","","","",""
"","response","","html-keyboard-response","512","537790","0.0-1.0-698.0-0.0","0","0","12608","","649","","","68","77","","","2","77","training","adjacent","ED","5","4","R.jpg","Q.jpg","1","0","0","",""
"","feedback","","html-keyboard-response","513","538795","0.0-1.0-699.0-0.0","0","0","12608","","null","","","null","77","","","","","","","","","","","","","","","",""
"","time_out","","html-keyboard-response","514","540799","0.0-1.0-701.0-0.0","0","0","12608","","null","","","null","77","","","","","","","","","","","","","","","",""
"","ITI","","html-keyboard-response","515","541803","0.0-1.0-702.0","0","0","12608","","null","","","null","77","","","","","","","","","","","","","","","NaN",""
"","S1","","html-keyboard-response","516","541956","0.0-1.0-704.0","0","0","12608","","null","","","null","78","","","","","","","","","","","","","","","",""
"","ISI","","html-keyboard-response","517","543959","0.0-1.0-705.0","0","0","12608","","null","","","null","78","NaN","","","","","","","","","","","","","","",""
"","S2","","html-keyboard-response","518","544112","0.0-1.0-706.0","0","0","12608","","null","","","null","78","","NaN","","","","","","","","","","","","","",""
"","response","","html-keyboard-response","519","544354","0.0-1.0-707.0-0.0","0","0","12608","","239","","","75","78","","","2","78","training","adjacent","CB","3","2","M.jpg","P.jpg","0","0","1","",""
"","feedback","","html-keyboard-response","520","545357","0.0-1.0-708.0-0.0","0","0","12608","","null","","","null","78","","","","","","","","","","","","","","","",""
"","ITI","","html-keyboard-response","521","546360","0.0-1.0-711.0","0","0","12608","","null","","","null","78","","","","","","","","","","","","","","","NaN",""
"","S1","","html-keyboard-response","522","546514","0.0-1.0-713.0","0","0","12608","","null","","","null","79","","","","","","","","","","","","","","","",""
"","ISI","","html-keyboard-response","523","548517","0.0-1.0-714.0","0","0","12608","","null","","","null","79","NaN","","","","","","","","","","","","","","",""
"","S2","","html-keyboard-response","524","548670","0.0-1.0-715.0","0","0","12608","","null","","","null","79","","NaN","","","","","","","","","","","","","",""
"","response","","html-keyboard-response","525","548941","0.0-1.0-716.0-0.0","0","0","12608","","268","","","75","79","","","2","79","training","adjacent","BC","2","3","P.jpg","M.jpg","0","1","0","",""
"","feedback","","html-keyboard-response","526","549944","0.0-1.0-717.0-0.0","0","0","12608","","null","","","null","79","","","","","","","","","","","","","","","",""
"","time_out","","html-keyboard-response","527","551948","0.0-1.0-719.0-0.0","0","0","12608","","null","","","null","79","","","","","","","","","","","","","","","",""
"","ITI","","html-keyboard-response","528","552951","0.0-1.0-720.0","0","0","12608","","null","","","null","79","","","","","","","","","","","","","","","NaN",""
"","S1","","html-keyboard-response","529","553105","0.0-1.0-722.0","0","0","12608","","null","","","null","80","","","","","","","","","","","","","","","",""
"","ISI","","html-keyboard-response","530","555109","0.0-1.0-723.0","0","0","12608","","null","","","null","80","NaN","","","","","","","","","","","","","","",""
"","S2","","html-keyboard-response","531","555264","0.0-1.0-724.0","0","0","12608","","null","","","null","80","","NaN","","","","","","","","","","","","","",""
"","response","","html-keyboard-response","532","555710","0.0-1.0-725.0-0.0","0","0","12608","","443","","","68","80","","","2","80","training","adjacent","DC","4","3","Q.jpg","M.jpg","1","0","0","",""
"","feedback","","html-keyboard-response","533","556714","0.0-1.0-726.0-0.0","0","0","12608","","null","","","null","80","","","","","","","","","","","","","","","",""
"","time_out","","html-keyboard-response","534","558716","0.0-1.0-728.0-0.0","0","0","12608","","null","","","null","80","","","","","","","","","","","","","","","",""
"","ITI","","html-keyboard-response","535","559718","0.0-1.0-729.0","0","0","12608","","null","","","null","80","","","","","","","","","","","","","","","NaN",""
"","S1","","html-keyboard-response","536","559872","0.0-1.0-731.0","0","0","12608","","null","","","null","81","","","","","","","","","","","","","","","",""
"","ISI","","html-keyboard-response","537","561877","0.0-1.0-732.0","0","0","12608","","null","","","null","81","NaN","","","","","","","","","","","","","","",""
"","S2","","html-keyboard-response","538","562031","0.0-1.0-733.0","0","0","12608","","null","","","null","81","","NaN","","","","","","","","","","","","","",""
"","response","","html-keyboard-response","539","562115","0.0-1.0-734.0-0.0","0","0","12608","","81","","","75","81","","","2","81","training","adjacent","BA","2","1","P.jpg","L.jpg","0","0","1","",""
"","feedback","","html-keyboard-response","540","563118","0.0-1.0-735.0-0.0","0","0","12608","","null","","","null","81","","","","","","","","","","","","","","","",""
"","ITI","","html-keyboard-response","541","564122","0.0-1.0-738.0","0","0","12608","","null","","","null","81","","","","","","","","","","","","","","","NaN",""
"","S1","","html-keyboard-response","542","564276","0.0-1.0-740.0","0","0","12608","","null","","","null","82","","","","","","","","","","","","","","","",""
"","ISI","","html-keyboard-response","543","566280","0.0-1.0-741.0","0","0","12608","","null","","","null","82","NaN","","","","","","","","","","","","","","",""
"","S2","","html-keyboard-response","544","566433","0.0-1.0-742.0","0","0","12608","","null","","","null","82","","NaN","","","","","","","","","","","","","",""
"","response","","html-keyboard-response","545","567783","0.0-1.0-743.0-0.0","0","0","12608","","1348","","","75","82","","","2","82","training","adjacent","FE","6","5","N.jpg","R.jpg","0","0","1","",""
"","feedback","","html-keyboard-response","546","568786","0.0-1.0-744.0-0.0","0","0","12608","","null","","","null","82","","","","","","","","","","","","","","","",""
"","ITI","","html-keyboard-response","547","569789","0.0-1.0-747.0","0","0","12608","","null","","","null","82","","","","","","","","","","","","","","","NaN",""
"","S1","","html-keyboard-response","548","569942","0.0-1.0-749.0","0","0","12608","","null","","","null","83","","","","","","","","","","","","","","","",""
"","ISI","","html-keyboard-response","549","571947","0.0-1.0-750.0","0","0","12608","","null","","","null","83","NaN","","","","","","","","","","","","","","",""
"","S2","","html-keyboard-response","550","572099","0.0-1.0-751.0","0","0","12608","","null","","","null","83","","NaN","","","","","","","","","","","","","",""
"","response","","html-keyboard-response","551","572269","0.0-1.0-752.0-0.0","0","0","12608","","167","","","75","83","","","2","83","training","adjacent","DE","4","5","Q.jpg","R.jpg","0","1","0","",""
"","feedback","","html-keyboard-response","552","573271","0.0-1.0-753.0-0.0","0","0","12608","","null","","","null","83","","","","","","","","","","","","","","","",""
"","time_out","","html-keyboard-response","553","575274","0.0-1.0-755.0-0.0","0","0","12608","","null","","","null","83","","","","","","","","","","","","","","","",""
"","ITI","","html-keyboard-response","554","576277","0.0-1.0-756.0","0","0","12608","","null","","","null","83","","","","","","","","","","","","","","","NaN",""
"","S1","","html-keyboard-response","555","576432","0.0-1.0-758.0","0","0","12608","","null","","","null","84","","","","","","","","","","","","","","","",""
"","ISI","","html-keyboard-response","556","578436","0.0-1.0-759.0","0","0","12608","","null","","","null","84","NaN","","","","","","","","","","","","","","",""
"","S2","","html-keyboard-response","557","578589","0.0-1.0-760.0","0","0","12608","","null","","","null","84","","NaN","","","","","","","","","","","","","",""
"","response","","html-keyboard-response","558","579001","0.0-1.0-761.0-0.0","0","0","12608","","411","","","68","84","","","2","84","training","adjacent","ED","5","4","R.jpg","Q.jpg","1","0","0","",""
"","feedback","","html-keyboard-response","559","580004","0.0-1.0-762.0-0.0","0","0","12608","","null","","","null","84","","","","","","","","","","","","","","","",""
"","time_out","","html-keyboard-response","560","582008","0.0-1.0-764.0-0.0","0","0","12608","","null","","","null","84","","","","","","","","","","","","","","","",""
"","ITI","","html-keyboard-response","561","583013","0.0-1.0-765.0","0","0","12608","","null","","","null","84","","","","","","","","","","","","","","","NaN",""
"","S1","","html-keyboard-response","562","583166","0.0-1.0-767.0","0","0","12608","","null","","","null","85","","","","","","","","","","","","","","","",""
"","ISI","","html-keyboard-response","563","585171","0.0-1.0-768.0","0","0","12608","","1623","","","75","85","k","","","","","","","","","","","","","","",""
"","S2","","html-keyboard-response","564","585324","0.0-1.0-769.0","0","0","12608","","null","","","null","85","","NaN","","","","","","","","","","","","","",""
"","response","","html-keyboard-response","565","585384","0.0-1.0-770.0-0.0","0","0","12608","","58","","","75","85","","","2","85","training","adjacent","DC","4","3","Q.jpg","M.jpg","0","0","1","",""
"","feedback","","html-keyboard-response","566","586387","0.0-1.0-771.0-0.0","0","0","12608","","null","","","null","85","","","","","","","","","","","","","","","",""
"","ITI","","html-keyboard-response","567","587391","0.0-1.0-774.0","0","0","12608","","null","","","null","85","","","","","","","","","","","","","","","NaN",""
"","S1","","html-keyboard-response","568","587544","0.0-1.0-776.0","0","0","12608","","null","","","null","86","","","","","","","","","","","","","","","",""
"","ISI","","html-keyboard-response","569","589547","0.0-1.0-777.0","0","0","12608","","null","","","null","86","NaN","","","","","","","","","","","","","","",""
"","S2","","html-keyboard-response","570","589701","0.0-1.0-778.0","0","0","12608","","null","","","null","86","","NaN","","","","","","","","","","","","","",""
"","response","","html-keyboard-response","571","590230","0.0-1.0-779.0-0.0","0","0","12608","","528","","","68","86","","","2","86","training","adjacent","FG","6","7","N.jpg","O.jpg","1","1","1","",""
"","feedback","","html-keyboard-response","572","591232","0.0-1.0-780.0-0.0","0","0","12608","","null","","","null","86","","","","","","","","","","","","","","","",""
"","ITI","","html-keyboard-response","573","592235","0.0-1.0-783.0","0","0","12608","","null","","","null","86","","","","","","","","","","","","","","","NaN",""
"","S1","","html-keyboard-response","574","592389","0.0-1.0-785.0","0","0","12608","","null","","","null","87","","","","","","","","","","","","","","","",""
"","ISI","","html-keyboard-response","575","594391","0.0-1.0-786.0","0","0","12608","","null","","","null","87","NaN","","","","","","","","","","","","","","",""
"","S2","","html-keyboard-response","576","594545","0.0-1.0-787.0","0","0","12608","","null","","","null","87","","NaN","","","","","","","","","","","","","",""
"","response","","html-keyboard-response","577","594835","0.0-1.0-788.0-0.0","0","0","12608","","289","","","68","87","","","2","87","training","adjacent","FE","6","5","N.jpg","R.jpg","1","0","0","",""
"","feedback","","html-keyboard-response","578","595838","0.0-1.0-789.0-0.0","0","0","12608","","null","","","null","87","","","","","","","","","","","","","","","",""
"","time_out","","html-keyboard-response","579","597840","0.0-1.0-791.0-0.0","0","0","12608","","null","","","null","87","","","","","","","","","","","","","","","",""
"","ITI","","html-keyboard-response","580","598843","0.0-1.0-792.0","0","0","12608","","null","","","null","87","","","","","","","","","","","","","","","NaN",""
"","S1","","html-keyboard-response","581","598997","0.0-1.0-794.0","0","0","12608","","null","","","null","88","","","","","","","","","","","","","","","",""
