"success","ttype","start_time","trial_type","trial_index","time_elapsed","internal_node_id","warning","missed_checkup","PID","view_history","rt","responses","repeat_instructions","key_press","index","keypress_isi","keypress_S2","block","trial_num","phase","group_type","pair_type","S1_stim","S2_stim","S1_img","S2_img","S1_chosen","S1_higher","accuracy","keypress_iti","total_bonus_tally"
"true","full_screen","d04132023hr2158","fullscreen","0","5875","0.0-0.0","0","0","76997","","","","","","","","","","","","","","","","","","","","","",""
"","instructions","","instructions","1","19505","0.0-1.0-0.0-0.0","0","0","76997","[{""page_index"":0,""viewing_time"":4755},{""page_index"":1,""viewing_time"":5599},{""page_index"":2,""viewing_time"":1990},{""page_index"":3,""viewing_time"":1282}]","13627","","","","","","","","","","","","","","","","","","","",""
"","comprehension_check","","survey-multi-choice","2","31219","0.0-1.0-0.0-1.0","0","0","76997","","11707","{""Q0"":""True"",""Q1"":""K"",""Q2"":""Only when the screen 'MAKE A CHOICE' is shown"",""Q3"":""Green mark"",""Q4"":""either D or K""}","1","","","","","","","","","","","","","","","","","",""
"","missed_instruction_checkup","","html-keyboard-response","3","33616","0.0-1.0-0.0-2.0-0.0","0","1","76997","","2394","","","32","","","","","","","","","","","","","","","","",""
"","instructions","","instructions","4","43318","0.0-1.0-0.1-0.1","0","0","76997","[{""page_index"":0,""viewing_time"":1734},{""page_index"":1,""viewing_time"":3946},{""page_index"":2,""viewing_time"":3120},{""page_index"":3,""viewing_time"":897}]","9698","","","","","","","","","","","","","","","","","","","",""
"","comprehension_check","","survey-multi-choice","5","53061","0.0-1.0-0.1-1.1","0","0","76997","","9730","{""Q0"":""True"",""Q1"":""K"",""Q2"":""Once the second image appears and while the screen 'MAKE A CHOICE' is shown"",""Q3"":""Green mark"",""Q4"":""either D or K""}","0","","","","","","","","","","","","","","","","","",""
"","start_exp","","html-keyboard-response","6","54488","0.0-1.0-1.0","0","0","76997","","1421","","","32","","","","","","","","","","","","","","","","",""
"","S1","","html-keyboard-response","7","54742","0.0-1.0-2.0","0","0","76997","","null","","","null","0","","","","","","","","","","","","","","","",""
"","ISI","","html-keyboard-response","8","55748","0.0-1.0-3.0","0","0","76997","","null","","","null","0","NaN","","","","","","","","","","","","","","",""
"","S2","","html-keyboard-response","9","56005","0.0-1.0-4.0","0","0","76997","","null","","","null","0","","NaN","","","","","","","","","","","","","",""
"","response","","html-keyboard-response","10","56979","0.0-1.0-5.0-0.0","0","0","76997","","970","","","75","0","","","1","0","training","adjacent","CD","3","4","N.jpg","O.jpg","1","1","1","",""
"","feedback","","html-keyboard-response","11","57984","0.0-1.0-6.0-0.0","0","0","76997","","null","","","null","0","","","","","","","","","","","","","","","",""
"","ITI","","html-keyboard-response","12","58988","0.0-1.0-9.0","0","0","76997","","null","","","null","0","","","","","","","","","","","","","","","NaN",""
"","S1","","html-keyboard-response","13","59243","0.0-1.0-11.0","0","0","76997","","null","","","null","1","","","","","","","","","","","","","","","",""
"","ISI","","html-keyboard-response","14","60247","0.0-1.0-12.0","0","0","76997","","null","","","null","1","NaN","","","","","","","","","","","","","","",""
"","S2","","html-keyboard-response","15","60500","0.0-1.0-13.0","0","0","76997","","null","","","null","1","","NaN","","","","","","","","","","","","","",""
"","response","","html-keyboard-response","16","61208","0.0-1.0-14.0-0.0","0","0","76997","","705","","","75","1","","","1","1","training","adjacent","AB","1","2","R.jpg","Q.jpg","1","1","1","",""
"","feedback","","html-keyboard-response","17","62212","0.0-1.0-15.0-0.0","0","0","76997","","null","","","null","1","","","","","","","","","","","","","","","",""
"","ITI","","html-keyboard-response","18","63217","0.0-1.0-18.0","0","0","76997","","null","","","null","1","","","","","","","","","","","","","","","NaN",""
"","S1","","html-keyboard-response","19","63472","0.0-1.0-20.0","0","0","76997","","null","","","null","2","","","","","","","","","","","","","","","",""
"","ISI","","html-keyboard-response","20","64476","0.0-1.0-21.0","0","0","76997","","null","","","null","2","NaN","","","","","","","","","","","","","","",""
"","S2","","html-keyboard-response","21","64730","0.0-1.0-22.0","0","0","76997","","null","","","null","2","","NaN","","","","","","","","","","","","","",""
"","response","","html-keyboard-response","22","65360","0.0-1.0-23.0-0.0","0","0","76997","","627","","","75","2","","","1","2","training","adjacent","DE","4","5","O.jpg","L.jpg","1","1","1","",""
"","feedback","","html-keyboard-response","23","66364","0.0-1.0-24.0-0.0","0","0","76997","","null","","","null","2","","","","","","","","","","","","","","","",""
"","ITI","","html-keyboard-response","24","67370","0.0-1.0-27.0","0","0","76997","","null","","","null","2","","","","","","","","","","","","","","","NaN",""
"","S1","","html-keyboard-response","25","67627","0.0-1.0-29.0","0","0","76997","","null","","","null","3","","","","","","","","","","","","","","","",""
"","ISI","","html-keyboard-response","26","68632","0.0-1.0-30.0","0","0","76997","","null","","","null","3","NaN","","","","","","","","","","","","","","",""
"","S2","","html-keyboard-response","27","68887","0.0-1.0-31.0","0","0","76997","","null","","","null","3","","NaN","","","","","","","","","","","","","",""
"","response","","html-keyboard-response","28","69443","0.0-1.0-32.0-0.0","0","0","76997","","553","","","75","3","","","1","3","training","adjacent","DE","4","5","O.jpg","L.jpg","1","1","1","",""
"","feedback","","html-keyboard-response","29","70457","0.0-1.0-33.0-0.0","0","0","76997","","null","","","null","3","","","","","","","","","","","","","","","",""
"","ITI","","html-keyboard-response","30","71463","0.0-1.0-36.0","0","0","76997","","null","","","null","3","","","","","","","","","","","","","","","NaN",""
"","S1","","html-keyboard-response","31","71718","0.0-1.0-38.0","0","0","76997","","null","","","null","4","","","","","","","","","","","","","","","",""
"","ISI","","html-keyboard-response","32","72723","0.0-1.0-39.0","0","0","76997","","null","","","null","4","NaN","","","","","","","","","","","","","","",""
"","S2","","html-keyboard-response","33","72977","0.0-1.0-40.0","0","0","76997","","null","","","null","4","","NaN","","","","","","","","","","","","","",""
"","response","","html-keyboard-response","34","74136","0.0-1.0-41.0-0.0","0","0","76997","","1156","","","75","4","","","1","4","training","adjacent","AB","1","2","R.jpg","Q.jpg","1","1","1","",""
"","feedback","","html-keyboard-response","35","75140","0.0-1.0-42.0-0.0","0","0","76997","","null","","","null","4","","","","","","","","","","","","","","","",""
"","ITI","","html-keyboard-response","36","76146","0.0-1.0-45.0","0","0","76997","","null","","","null","4","","","","","","","","","","","","","","","NaN",""
"","S1","","html-keyboard-response","37","76410","0.0-1.0-47.0","0","0","76997","","null","","","null","5","","","","","","","","","","","","","","","",""
"","ISI","","html-keyboard-response","38","77414","0.0-1.0-48.0","0","0","76997","","null","","","null","5","NaN","","","","","","","","","","","","","","",""
"","S2","","html-keyboard-response","39","77671","0.0-1.0-49.0","0","0","76997","","null","","","null","5","","NaN","","","","","","","","","","","","","",""
"","response","","html-keyboard-response","40","77976","0.0-1.0-50.0-0.0","0","0","76997","","302","","","68","5","","","1","5","training","adjacent","CD","3","4","N.jpg","O.jpg","0","1","0","",""
"","feedback","","html-keyboard-response","41","78979","0.0-1.0-51.0-0.0","0","0","76997","","null","","","null","5","","","","","","","","","","","","","","","",""
"","time_out","","html-keyboard-response","42","80981","0.0-1.0-53.0-0.0","0","0","76997","","null","","","null","5","","","","","","","","","","","","","","","",""
"","ITI","","html-keyboard-response","43","81984","0.0-1.0-54.0","0","0","76997","","null","","","null","5","","","","","","","","","","","","","","","NaN",""
"","S1","","html-keyboard-response","44","82237","0.0-1.0-56.0","0","0","76997","","null","","","null","6","","","","","","","","","","","","","","","",""
"","ISI","","html-keyboard-response","45","83241","0.0-1.0-57.0","0","0","76997","","null","","","null","6","NaN","","","","","","","","","","","","","","",""
"","S2","","html-keyboard-response","46","83498","0.0-1.0-58.0","0","0","76997","","null","","","null","6","","NaN","","","","","","","","","","","","","",""
"","response","","html-keyboard-response","47","84096","0.0-1.0-59.0-0.0","0","0","76997","","594","","","75","6","","","1","6","training","adjacent","BC","2","3","Q.jpg","N.jpg","1","1","1","",""
"","feedback","","html-keyboard-response","48","85100","0.0-1.0-60.0-0.0","0","0","76997","","null","","","null","6","","","","","","","","","","","","","","","",""
"","ITI","","html-keyboard-response","49","86103","0.0-1.0-63.0","0","0","76997","","null","","","null","6","","","","","","","","","","","","","","","NaN",""
"","S1","","html-keyboard-response","50","86357","0.0-1.0-65.0","0","0","76997","","null","","","null","7","","","","","","","","","","","","","","","",""
"","ISI","","html-keyboard-response","51","87359","0.0-1.0-66.0","0","0","76997","","null","","","null","7","NaN","","","","","","","","","","","","","","",""
"","S2","","html-keyboard-response","52","87613","0.0-1.0-67.0","0","0","76997","","null","","","null","7","","NaN","","","","","","","","","","","","","",""
"","response","","html-keyboard-response","53","88789","0.0-1.0-68.0-0.0","0","0","76997","","1171","","","68","7","","","1","7","training","adjacent","ED","5","4","L.jpg","O.jpg","0","0","1","",""
"","feedback","","html-keyboard-response","54","89797","0.0-1.0-69.0-0.0","0","0","76997","","null","","","null","7","","","","","","","","","","","","","","","",""
"","ITI","","html-keyboard-response","55","90813","0.0-1.0-72.0","0","0","76997","","null","","","null","7","","","","","","","","","","","","","","","NaN",""
"","S1","","html-keyboard-response","56","91068","0.0-1.0-74.0","0","0","76997","","null","","","null","8","","","","","","","","","","","","","","","",""
"","ISI","","html-keyboard-response","57","92073","0.0-1.0-75.0","0","0","76997","","null","","","null","8","NaN","","","","","","","","","","","","","","",""
"","S2","","html-keyboard-response","58","92329","0.0-1.0-76.0","0","0","76997","","null","","","null","8","","NaN","","","","","","","","","","","","","",""
"","response","","html-keyboard-response","59","93980","0.0-1.0-77.0-0.0","0","0","76997","","1646","","","68","8","","","1","8","training","adjacent","GF","7","6","M.jpg","P.jpg","0","0","1","",""
"","feedback","","html-keyboard-response","60","94986","0.0-1.0-78.0-0.0","0","0","76997","","null","","","null","8","","","","","","","","","","","","","","","",""
"","ITI","","html-keyboard-response","61","95990","0.0-1.0-81.0","0","0","76997","","null","","","null","8","","","","","","","","","","","","","","","NaN",""
"","S1","","html-keyboard-response","62","96244","0.0-1.0-83.0","0","0","76997","","null","","","null","9","","","","","","","","","","","","","","","",""
"","ISI","","html-keyboard-response","63","97247","0.0-1.0-84.0","0","0","76997","","null","","","null","9","NaN","","","","","","","","","","","","","","",""
"","S2","","html-keyboard-response","64","97503","0.0-1.0-85.0","0","0","76997","","null","","","null","9","","NaN","","","","","","","","","","","","","",""
"","response","","html-keyboard-response","65","98696","0.0-1.0-86.0-0.0","0","0","76997","","1190","","","75","9","","","1","9","training","adjacent","FG","6","7","P.jpg","M.jpg","1","1","1","",""
"","feedback","","html-keyboard-response","66","99700","0.0-1.0-87.0-0.0","0","0","76997","","null","","","null","9","","","","","","","","","","","","","","","",""
"","ITI","","html-keyboard-response","67","100703","0.0-1.0-90.0","0","0","76997","","null","","","null","9","","","","","","","","","","","","","","","NaN",""
"","S1","","html-keyboard-response","68","101130","0.0-1.0-92.0","0","0","76997","","null","","","null","10","","","","","","","","","","","","","","","",""
"","ISI","","html-keyboard-response","69","102134","0.0-1.0-93.0","0","0","76997","","null","","","null","10","NaN","","","","","","","","","","","","","","",""
"","S2","","html-keyboard-response","70","102386","0.0-1.0-94.0","0","0","76997","","null","","","null","10","","NaN","","","","","","","","","","","","","",""
"","response","","html-keyboard-response","71","104140","0.0-1.0-95.0-0.0","0","0","76997","","null","","","null","10","","","1","10","training","adjacent","CD","3","4","N.jpg","O.jpg","NaN","1","0","",""
"","too_slow_prompt","","html-keyboard-response","72","105142","0.0-1.0-97.0-0.0","1","0","76997","","null","","","null","","","","","","","","","","","","","","","","",""
"","time_out","","html-keyboard-response","73","107147","0.0-1.0-98.0-0.0","0","0","76997","","null","","","null","10","","","","","","","","","","","","","","","",""
"","ITI","","html-keyboard-response","74","108150","0.0-1.0-99.0","0","0","76997","","null","","","null","10","","","","","","","","","","","","","","","NaN",""
"","S1","","html-keyboard-response","75","108406","0.0-1.0-101.0","0","0","76997","","null","","","null","11","","","","","","","","","","","","","","","",""
"","ISI","","html-keyboard-response","76","109411","0.0-1.0-102.0","0","0","76997","","null","","","null","11","NaN","","","","","","","","","","","","","","",""
"","S2","","html-keyboard-response","77","109666","0.0-1.0-103.0","0","0","76997","","null","","","null","11","","NaN","","","","","","","","","","","","","",""
"","response","","html-keyboard-response","78","110278","0.0-1.0-104.0-0.0","0","0","76997","","606","","","68","11","","","1","11","training","adjacent","BC","2","3","Q.jpg","N.jpg","0","1","0","",""
"","feedback","","html-keyboard-response","79","111282","0.0-1.0-105.0-0.0","0","0","76997","","null","","","null","11","","","","","","","","","","","","","","","",""
"","time_out","","html-keyboard-response","80","113289","0.0-1.0-107.0-0.0","0","0","76997","","null","","","null","11","","","","","","","","","","","","","","","",""
"","ITI","","html-keyboard-response","81","114294","0.0-1.0-108.0","0","0","76997","","null","","","null","11","","","","","","","","","","","","","","","NaN",""
"","S1","","html-keyboard-response","82","114548","0.0-1.0-110.0","0","0","76997","","null","","","null","12","","","","","","","","","","","","","","","",""
"","ISI","","html-keyboard-response","83","115551","0.0-1.0-111.0","0","0","76997","","null","","","null","12","NaN","","","","","","","","","","","","","","",""
"","S2","","html-keyboard-response","84","115803","0.0-1.0-112.0","0","0","76997","","null","","","null","12","","NaN","","","","","","","","","","","","","",""
"","response","","html-keyboard-response","85","117163","0.0-1.0-113.0-0.0","0","0","76997","","1355","","","68","12","","","1","12","training","adjacent","EF","5","6","L.jpg","P.jpg","0","1","0","",""
"","feedback","","html-keyboard-response","86","118175","0.0-1.0-114.0-0.0","0","0","76997","","null","","","null","12","","","","","","","","","","","","","","","",""
"","time_out","","html-keyboard-response","87","120179","0.0-1.0-116.0-0.0","0","0","76997","","null","","","null","12","","","","","","","","","","","","","","","",""
"","ITI","","html-keyboard-response","88","121182","0.0-1.0-117.0","0","0","76997","","null","","","null","12","","","","","","","","","","","","","","","NaN",""
"","S1","","html-keyboard-response","89","121450","0.0-1.0-119.0","0","0","76997","","null","","","null","13","","","","","","","","","","","","","","","",""
"","ISI","","html-keyboard-response","90","122454","0.0-1.0-120.0","0","0","76997","","null","","","null","13","NaN","","","","","","","","","","","","","","",""
"","S2","","html-keyboard-response","91","122708","0.0-1.0-121.0","0","0","76997","","null","","","null","13","","NaN","","","","","","","","","","","","","",""
"","response","","html-keyboard-response","92","124081","0.0-1.0-122.0-0.0","0","0","76997","","1370","","","68","13","","","1","13","training","adjacent","CB","3","2","N.jpg","Q.jpg","0","0","1","",""
"","feedback","","html-keyboard-response","93","125086","0.0-1.0-123.0-0.0","0","0","76997","","null","","","null","13","","","","","","","","","","","","","","","",""
"","ITI","","html-keyboard-response","94","126092","0.0-1.0-126.0","0","0","76997","","null","","","null","13","","","","","","","","","","","","","","","NaN",""
"","S1","","html-keyboard-response","95","126345","0.0-1.0-128.0","0","0","76997","","null","","","null","14","","","","","","","","","","","","","","","",""
"","ISI","","html-keyboard-response","96","127348","0.0-1.0-129.0","0","0","76997","","null","","","null","14","NaN","","","","","","","","","","","","","","",""
"","S2","","html-keyboard-response","97","127603","0.0-1.0-130.0","0","0","76997","","null","","","null","14","","NaN","","","","","","","","","","","","","",""
"","response","","html-keyboard-response","98","128675","0.0-1.0-131.0-0.0","0","0","76997","","1067","","","75","14","","","1","14","training","adjacent","BA","2","1","Q.jpg","R.jpg","1","0","0","",""
"","feedback","","html-keyboard-response","99","129679","0.0-1.0-132.0-0.0","0","0","76997","","null","","","null","14","","","","","","","","","","","","","","","",""
"","time_out","","html-keyboard-response","100","131682","0.0-1.0-134.0-0.0","0","0","76997","","null","","","null","14","","","","","","","","","","","","","","","",""
"","ITI","","html-keyboard-response","101","132685","0.0-1.0-135.0","0","0","76997","","null","","","null","14","","","","","","","","","","","","","","","NaN",""
"","S1","","html-keyboard-response","102","132938","0.0-1.0-137.0","0","0","76997","","null","","","null","15","","","","","","","","","","","","","","","",""
"","ISI","","html-keyboard-response","103","133944","0.0-1.0-138.0","0","0","76997","","null","","","null","15","NaN","","","","","","","","","","","","","","",""
"","S2","","html-keyboard-response","104","134199","0.0-1.0-139.0","0","0","76997","","null","","","null","15","","NaN","","","","","","","","","","","","","",""
"","response","","html-keyboard-response","105","135719","0.0-1.0-140.0-0.0","0","0","76997","","1519","","","75","15","","","1","15","training","adjacent","CD","3","4","N.jpg","O.jpg","1","1","1","",""
"","feedback","","html-keyboard-response","106","136723","0.0-1.0-141.0-0.0","0","0","76997","","null","","","null","15","","","","","","","","","","","","","","","",""
"","ITI","","html-keyboard-response","107","137729","0.0-1.0-144.0","0","0","76997","","null","","","null","15","","","","","","","","","","","","","","","NaN",""
"","S1","","html-keyboard-response","108","137985","0.0-1.0-146.0","0","0","76997","","null","","","null","16","","","","","","","","","","","","","","","",""
"","ISI","","html-keyboard-response","109","139004","0.0-1.0-147.0","0","0","76997","","null","","","null","16","NaN","","","","","","","","","","","","","","",""
"","S2","","html-keyboard-response","110","139259","0.0-1.0-148.0","0","0","76997","","null","","","null","16","","NaN","","","","","","","","","","","","","",""
"","response","","html-keyboard-response","111","140824","0.0-1.0-149.0-0.0","0","0","76997","","1563","","","75","16","","","1","16","training","adjacent","GF","7","6","M.jpg","P.jpg","1","0","0","",""
"","feedback","","html-keyboard-response","112","141829","0.0-1.0-150.0-0.0","0","0","76997","","null","","","null","16","","","","","","","","","","","","","","","",""
"","time_out","","html-keyboard-response","113","143843","0.0-1.0-152.0-0.0","0","0","76997","","null","","","null","16","","","","","","","","","","","","","","","",""
"","ITI","","html-keyboard-response","114","144846","0.0-1.0-153.0","0","0","76997","","null","","","null","16","","","","","","","","","","","","","","","NaN",""
"","S1","","html-keyboard-response","115","145102","0.0-1.0-155.0","0","0","76997","","null","","","null","17","","","","","","","","","","","","","","","",""
"","ISI","","html-keyboard-response","116","146106","0.0-1.0-156.0","0","0","76997","","null","","","null","17","NaN","","","","","","","","","","","","","","",""
"","S2","","html-keyboard-response","117","146362","0.0-1.0-157.0","0","0","76997","","null","","","null","17","","NaN","","","","","","","","","","","","","",""
"","response","","html-keyboard-response","118","147632","0.0-1.0-158.0-0.0","0","0","76997","","1267","","","68","17","","","1","17","training","adjacent","CB","3","2","N.jpg","Q.jpg","0","0","1","",""
"","feedback","","html-keyboard-response","119","148636","0.0-1.0-159.0-0.0","0","0","76997","","null","","","null","17","","","","","","","","","","","","","","","",""
"","ITI","","html-keyboard-response","120","149638","0.0-1.0-162.0","0","0","76997","","null","","","null","17","","","","","","","","","","","","","","","NaN",""
"","S1","","html-keyboard-response","121","149891","0.0-1.0-164.0","0","0","76997","","null","","","null","18","","","","","","","","","","","","","","","",""
"","ISI","","html-keyboard-response","122","150894","0.0-1.0-165.0","0","0","76997","","null","","","null","18","NaN","","","","","","","","","","","","","","",""
"","S2","","html-keyboard-response","123","151162","0.0-1.0-166.0","0","0","76997","","null","","","null","18","","NaN","","","","","","","","","","","","","",""
"","response","","html-keyboard-response","124","152616","0.0-1.0-167.0-0.0","0","0","76997","","1452","","","75","18","","","1","18","training","adjacent","GF","7","6","M.jpg","P.jpg","1","0","0","",""
"","feedback","","html-keyboard-response","125","153621","0.0-1.0-168.0-0.0","0","0","76997","","null","","","null","18","","","","","","","","","","","","","","","",""
"","time_out","","html-keyboard-response","126","155635","0.0-1.0-170.0-0.0","0","0","76997","","null","","","null","18","","","","","","","","","","","","","","","",""
"","ITI","","html-keyboard-response","127","156640","0.0-1.0-171.0","0","0","76997","","null","","","null","18","","","","","","","","","","","","","","","NaN",""
"","S1","","html-keyboard-response","128","156892","0.0-1.0-173.0","0","0","76997","","null","","","null","19","","","","","","","","","","","","","","","",""
"","ISI","","html-keyboard-response","129","157895","0.0-1.0-174.0","0","0","76997","","null","","","null","19","NaN","","","","","","","","","","","","","","",""
"","S2","","html-keyboard-response","130","158149","0.0-1.0-175.0","0","0","76997","","null","","","null","19","","NaN","","","","","","","","","","","","","",""
"","response","","html-keyboard-response","131","159193","0.0-1.0-176.0-0.0","0","0","76997","","1040","","","75","19","","","1","19","training","adjacent","FG","6","7","P.jpg","M.jpg","1","1","1","",""
"","feedback","","html-keyboard-response","132","160196","0.0-1.0-177.0-0.0","0","0","76997","","null","","","null","19","","","","","","","","","","","","","","","",""
"","ITI","","html-keyboard-response","133","161212","0.0-1.0-180.0","0","0","76997","","null","","","null","19","","","","","","","","","","","","","","","NaN",""
"","S1","","html-keyboard-response","134","161466","0.0-1.0-182.0","0","0","76997","","null","","","null","20","","","","","","","","","","","","","","","",""
"","ISI","","html-keyboard-response","135","162469","0.0-1.0-183.0","0","0","76997","","null","","","null","20","NaN","","","","","","","","","","","","","","",""
"","S2","","html-keyboard-response","136","162722","0.0-1.0-184.0","0","0","76997","","null","","","null","20","","NaN","","","","","","","","","","","","","",""
"","response","","html-keyboard-response","137","163760","0.0-1.0-185.0-0.0","0","0","76997","","1035","","","75","20","","","1","20","training","adjacent","FE","6","5","P.jpg","L.jpg","1","0","0","",""
"","feedback","","html-keyboard-response","138","164764","0.0-1.0-186.0-0.0","0","0","76997","","null","","","null","20","","","","","","","","","","","","","","","",""
"","time_out","","html-keyboard-response","139","166773","0.0-1.0-188.0-0.0","0","0","76997","","null","","","null","20","","","","","","","","","","","","","","","",""
"","ITI","","html-keyboard-response","140","167776","0.0-1.0-189.0","0","0","76997","","null","","","null","20","","","","","","","","","","","","","","","NaN",""
"","S1","","html-keyboard-response","141","168029","0.0-1.0-191.0","0","0","76997","","null","","","null","21","","","","","","","","","","","","","","","",""
"","ISI","","html-keyboard-response","142","169033","0.0-1.0-192.0","0","0","76997","","null","","","null","21","NaN","","","","","","","","","","","","","","",""
"","S2","","html-keyboard-response","143","169287","0.0-1.0-193.0","0","0","76997","","null","","","null","21","","NaN","","","","","","","","","","","","","",""
"","response","","html-keyboard-response","144","170272","0.0-1.0-194.0-0.0","0","0","76997","","984","","","75","21","","","1","21","training","adjacent","BA","2","1","Q.jpg","R.jpg","1","0","0","",""
"","feedback","","html-keyboard-response","145","171278","0.0-1.0-195.0-0.0","0","0","76997","","null","","","null","21","","","","","","","","","","","","","","","",""
"","time_out","","html-keyboard-response","146","173282","0.0-1.0-197.0-0.0","0","0","76997","","null","","","null","21","","","","","","","","","","","","","","","",""
"","ITI","","html-keyboard-response","147","174285","0.0-1.0-198.0","0","0","76997","","null","","","null","21","","","","","","","","","","","","","","","NaN",""
"","S1","","html-keyboard-response","148","174538","0.0-1.0-200.0","0","0","76997","","null","","","null","22","","","","","","","","","","","","","","","",""
"","ISI","","html-keyboard-response","149","175541","0.0-1.0-201.0","0","0","76997","","null","","","null","22","NaN","","","","","","","","","","","","","","",""
"","S2","","html-keyboard-response","150","175917","0.0-1.0-202.0","0","0","76997","","null","","","null","22","","NaN","","","","","","","","","","","","","",""
"","response","","html-keyboard-response","151","177032","0.0-1.0-203.0-0.0","0","0","76997","","1112","","","68","22","","","1","22","training","adjacent","AB","1","2","R.jpg","Q.jpg","0","1","0","",""
"","feedback","","html-keyboard-response","152","178050","0.0-1.0-204.0-0.0","0","0","76997","","null","","","null","22","","","","","","","","","","","","","","","",""
"","time_out","","html-keyboard-response","153","180054","0.0-1.0-206.0-0.0","0","0","76997","","null","","","null","22","","","","","","","","","","","","","","","",""
"","ITI","","html-keyboard-response","154","181057","0.0-1.0-207.0","0","0","76997","","null","","","null","22","","","","","","","","","","","","","","","NaN",""
"","S1","","html-keyboard-response","155","181310","0.0-1.0-209.0","0","0","76997","","null","","","null","23","","","","","","","","","","","","","","","",""
"","ISI","","html-keyboard-response","156","182314","0.0-1.0-210.0","0","0","76997","","null","","","null","23","NaN","","","","","","","","","","","","","","",""
"","S2","","html-keyboard-response","157","182568","0.0-1.0-211.0","0","0","76997","","null","","","null","23","","NaN","","","","","","","","","","","","","",""
"","response","","html-keyboard-response","158","183688","0.0-1.0-212.0-0.0","0","0","76997","","1118","","","68","23","","","1","23","training","adjacent","BA","2","1","Q.jpg","R.jpg","0","0","1","",""
"","feedback","","html-keyboard-response","159","184692","0.0-1.0-213.0-0.0","0","0","76997","","null","","","null","23","","","","","","","","","","","","","","","",""
"","ITI","","html-keyboard-response","160","185695","0.0-1.0-216.0","0","0","76997","","null","","","null","23","","","","","","","","","","","","","","","NaN",""
"","S1","","html-keyboard-response","161","185949","0.0-1.0-218.0","0","0","76997","","null","","","null","24","","","","","","","","","","","","","","","",""
"","ISI","","html-keyboard-response","162","186951","0.0-1.0-219.0","0","0","76997","","null","","","null","24","NaN","","","","","","","","","","","","","","",""
"","S2","","html-keyboard-response","163","187206","0.0-1.0-220.0","0","0","76997","","null","","","null","24","","NaN","","","","","","","","","","","","","",""
"","response","","html-keyboard-response","164","188384","0.0-1.0-221.0-0.0","0","0","76997","","1176","","","68","24","","","1","24","training","adjacent","FE","6","5","P.jpg","L.jpg","0","0","1","",""
"","feedback","","html-keyboard-response","165","189389","0.0-1.0-222.0-0.0","0","0","76997","","null","","","null","24","","","","","","","","","","","","","","","",""
"","ITI","","html-keyboard-response","166","190407","0.0-1.0-225.0","0","0","76997","","null","","","null","24","","","","","","","","","","","","","","","NaN",""
"","S1","","html-keyboard-response","167","190671","0.0-1.0-227.0","0","0","76997","","null","","","null","25","","","","","","","","","","","","","","","",""
"","ISI","","html-keyboard-response","168","191674","0.0-1.0-228.0","0","0","76997","","null","","","null","25","NaN","","","","","","","","","","","","","","",""
"","S2","","html-keyboard-response","169","191930","0.0-1.0-229.0","0","0","76997","","null","","","null","25","","NaN","","","","","","","","","","","","","",""
"","response","","html-keyboard-response","170","193008","0.0-1.0-230.0-0.0","0","0","76997","","1075","","","68","25","","","1","25","training","adjacent","DC","4","3","O.jpg","N.jpg","0","0","1","",""
"","feedback","","html-keyboard-response","171","194021","0.0-1.0-231.0-0.0","0","0","76997","","null","","","null","25","","","","","","","","","","","","","","","",""
"","ITI","","html-keyboard-response","172","195024","0.0-1.0-234.0","0","0","76997","","null","","","null","25","","","","","","","","","","","","","","","NaN",""
"","S1","","html-keyboard-response","173","195277","0.0-1.0-236.0","0","0","76997","","null","","","null","26","","","","","","","","","","","","","","","",""
"","ISI","","html-keyboard-response","174","196282","0.0-1.0-237.0","0","0","76997","","null","","","null","26","NaN","","","","","","","","","","","","","","",""
"","S2","","html-keyboard-response","175","196536","0.0-1.0-238.0","0","0","76997","","null","","","null","26","","NaN","","","","","","","","","","","","","",""
"","response","","html-keyboard-response","176","197413","0.0-1.0-239.0-0.0","0","0","76997","","871","","","75","26","","","1","26","training","adjacent","FG","6","7","P.jpg","M.jpg","1","1","1","",""
"","feedback","","html-keyboard-response","177","198427","0.0-1.0-240.0-0.0","0","0","76997","","null","","","null","26","","","","","","","","","","","","","","","",""
"","ITI","","html-keyboard-response","178","199430","0.0-1.0-243.0","0","0","76997","","null","","","null","26","","","","","","","","","","","","","","","NaN",""
"","S1","","html-keyboard-response","179","199685","0.0-1.0-245.0","0","0","76997","","null","","","null","27","","","","","","","","","","","","","","","",""
"","ISI","","html-keyboard-response","180","200689","0.0-1.0-246.0","0","0","76997","","null","","","null","27","NaN","","","","","","","","","","","","","","",""
"","S2","","html-keyboard-response","181","200944","0.0-1.0-247.0","0","0","76997","","null","","","null","27","","NaN","","","","","","","","","","","","","",""
"","response","","html-keyboard-response","182","202472","0.0-1.0-248.0-0.0","0","0","76997","","1525","","","75","27","","","1","27","training","adjacent","FG","6","7","P.jpg","M.jpg","1","1","1","",""
"","feedback","","html-keyboard-response","183","203477","0.0-1.0-249.0-0.0","0","0","76997","","null","","","null","27","","","","","","","","","","","","","","","",""
"","ITI","","html-keyboard-response","184","204481","0.0-1.0-252.0","0","0","76997","","null","","","null","27","","","","","","","","","","","","","","","NaN",""
"","S1","","html-keyboard-response","185","204734","0.0-1.0-254.0","0","0","76997","","null","","","null","28","","","","","","","","","","","","","","","",""
"","ISI","","html-keyboard-response","186","205738","0.0-1.0-255.0","0","0","76997","","null","","","null","28","NaN","","","","","","","","","","","","","","",""
"","S2","","html-keyboard-response","187","205993","0.0-1.0-256.0","0","0","76997","","null","","","null","28","","NaN","","","","","","","","","","","","","",""
"","response","","html-keyboard-response","188","207672","0.0-1.0-257.0-0.0","0","0","76997","","1676","","","68","28","","","1","28","training","adjacent","AB","1","2","R.jpg","Q.jpg","0","1","0","",""
"","feedback","","html-keyboard-response","189","208691","0.0-1.0-258.0-0.0","0","0","76997","","null","","","null","28","","","","","","","","","","","","","","","",""
"","time_out","","html-keyboard-response","190","210696","0.0-1.0-260.0-0.0","0","0","76997","","null","","","null","28","","","","","","","","","","","","","","","",""
"","ITI","","html-keyboard-response","191","211700","0.0-1.0-261.0","0","0","76997","","null","","","null","28","","","","","","","","","","","","","","","NaN",""
"","S1","","html-keyboard-response","192","211954","0.0-1.0-263.0","0","0","76997","","null","","","null","29","","","","","","","","","","","","","","","",""
"","ISI","","html-keyboard-response","193","212956","0.0-1.0-264.0","0","0","76997","","null","","","null","29","NaN","","","","","","","","","","","","","","",""
"","S2","","html-keyboard-response","194","213209","0.0-1.0-265.0","0","0","76997","","null","","","null","29","","NaN","","","","","","","","","","","","","",""
"","response","","html-keyboard-response","195","214408","0.0-1.0-266.0-0.0","0","0","76997","","1197","","","68","29","","","1","29","training","adjacent","DC","4","3","O.jpg","N.jpg","0","0","1","",""
"","feedback","","html-keyboard-response","196","215412","0.0-1.0-267.0-0.0","0","0","76997","","null","","","null","29","","","","","","","","","","","","","","","",""
"","ITI","","html-keyboard-response","197","216414","0.0-1.0-270.0","0","0","76997","","null","","","null","29","","","","","","","","","","","","","","","NaN",""
"","S1","","html-keyboard-response","198","216668","0.0-1.0-272.0","0","0","76997","","null","","","null","30","","","","","","","","","","","","","","","",""
"","ISI","","html-keyboard-response","199","217671","0.0-1.0-273.0","0","0","76997","","null","","","null","30","NaN","","","","","","","","","","","","","","",""
"","S2","","html-keyboard-response","200","217925","0.0-1.0-274.0","0","0","76997","","null","","","null","30","","NaN","","","","","","","","","","","","","",""
"","response","","html-keyboard-response","201","218981","0.0-1.0-275.0-0.0","0","0","76997","","1049","","","68","30","","","1","30","training","adjacent","DC","4","3","O.jpg","N.jpg","0","0","1","",""
"","feedback","","html-keyboard-response","202","219987","0.0-1.0-276.0-0.0","0","0","76997","","null","","","null","30","","","","","","","","","","","","","","","",""
"","ITI","","html-keyboard-response","203","220993","0.0-1.0-279.0","0","0","76997","","null","","","null","30","","","","","","","","","","","","","","","NaN",""
"","S1","","html-keyboard-response","204","221247","0.0-1.0-281.0","0","0","76997","","null","","","null","31","","","","","","","","","","","","","","","",""
"","ISI","","html-keyboard-response","205","222254","0.0-1.0-282.0","0","0","76997","","null","","","null","31","NaN","","","","","","","","","","","","","","",""
"","S2","","html-keyboard-response","206","222508","0.0-1.0-283.0","0","0","76997","","null","","","null","31","","NaN","","","","","","","","","","","","","",""
"","response","","html-keyboard-response","207","223903","0.0-1.0-284.0-0.0","0","0","76997","","1394","","","68","31","","","1","31","training","adjacent","DE","4","5","O.jpg","L.jpg","0","1","0","",""
"","feedback","","html-keyboard-response","208","224908","0.0-1.0-285.0-0.0","0","0","76997","","null","","","null","31","","","","","","","","","","","","","","","",""
"","time_out","","html-keyboard-response","209","226912","0.0-1.0-287.0-0.0","0","0","76997","","null","","","null","31","","","","","","","","","","","","","","","",""
"","ITI","","html-keyboard-response","210","227916","0.0-1.0-288.0","0","0","76997","","null","","","null","31","","","","","","","","","","","","","","","NaN",""
"","S1","","html-keyboard-response","211","228169","0.0-1.0-290.0","0","0","76997","","null","","","null","32","","","","","","","","","","","","","","","",""
"","ISI","","html-keyboard-response","212","229172","0.0-1.0-291.0","0","0","76997","","null","","","null","32","NaN","","","","","","","","","","","","","","",""
"","S2","","html-keyboard-response","213","229436","0.0-1.0-292.0","0","0","76997","","null","","","null","32","","NaN","","","","","","","","","","","","","",""
"","response","","html-keyboard-response","214","230505","0.0-1.0-293.0-0.0","0","0","76997","","1065","","","75","32","","","1","32","training","adjacent","EF","5","6","L.jpg","P.jpg","1","1","1","",""
"","feedback","","html-keyboard-response","215","231508","0.0-1.0-294.0-0.0","0","0","76997","","null","","","null","32","","","","","","","","","","","","","","","",""
"","ITI","","html-keyboard-response","216","232511","0.0-1.0-297.0","0","0","76997","","null","","","null","32","","","","","","","","","","","","","","","NaN",""
"","S1","","html-keyboard-response","217","232764","0.0-1.0-299.0","0","0","76997","","null","","","null","33","","","","","","","","","","","","","","","",""
"","ISI","","html-keyboard-response","218","233768","0.0-1.0-300.0","0","0","76997","","null","","","null","33","NaN","","","","","","","","","","","","","","",""
"","S2","","html-keyboard-response","219","234033","0.0-1.0-301.0","0","0","76997","","null","","","null","33","","NaN","","","","","","","","","","","","","",""
"","response","","html-keyboard-response","220","235794","0.0-1.0-302.0-0.0","0","0","76997","","null","","","null","33","","","1","33","training","adjacent","GF","7","6","M.jpg","P.jpg","NaN","0","0","",""
"","too_slow_prompt","","html-keyboard-response","221","236798","0.0-1.0-304.0-0.0","1","0","76997","","null","","","null","","","","","","","","","","","","","","","","",""
"","time_out","","html-keyboard-response","222","238802","0.0-1.0-305.0-0.0","0","0","76997","","null","","","null","33","","","","","","","","","","","","","","","",""
"","ITI","","html-keyboard-response","223","239805","0.0-1.0-306.0","0","0","76997","","null","","","null","33","","","","","","","","","","","","","","","NaN",""
"","S1","","html-keyboard-response","224","240073","0.0-1.0-308.0","0","0","76997","","null","","","null","34","","","","","","","","","","","","","","","",""
"","ISI","","html-keyboard-response","225","241078","0.0-1.0-309.0","0","0","76997","","null","","","null","34","NaN","","","","","","","","","","","","","","",""
"","S2","","html-keyboard-response","226","241332","0.0-1.0-310.0","0","0","76997","","null","","","null","34","","NaN","","","","","","","","","","","","","",""
"","response","","html-keyboard-response","227","242261","0.0-1.0-311.0-0.0","0","0","76997","","923","","","68","34","","","1","34","training","adjacent","BC","2","3","Q.jpg","N.jpg","0","1","0","",""
"","feedback","","html-keyboard-response","228","243274","0.0-1.0-312.0-0.0","0","0","76997","","null","","","null","34","","","","","","","","","","","","","","","",""
"","time_out","","html-keyboard-response","229","245277","0.0-1.0-314.0-0.0","0","0","76997","","null","","","null","34","","","","","","","","","","","","","","","",""
"","ITI","","html-keyboard-response","230","246279","0.0-1.0-315.0","0","0","76997","","null","","","null","34","","","","","","","","","","","","","","","NaN",""
"","S1","","html-keyboard-response","231","246532","0.0-1.0-317.0","0","0","76997","","null","","","null","35","","","","","","","","","","","","","","","",""
"","ISI","","html-keyboard-response","232","247536","0.0-1.0-318.0","0","0","76997","","null","","","null","35","NaN","","","","","","","","","","","","","","",""
"","S2","","html-keyboard-response","233","247794","0.0-1.0-319.0","0","0","76997","","null","","","null","35","","NaN","","","","","","","","","","","","","",""
"","response","","html-keyboard-response","234","248783","0.0-1.0-320.0-0.0","0","0","76997","","986","","","68","35","","","1","35","training","adjacent","ED","5","4","L.jpg","O.jpg","0","0","1","",""
"","feedback","","html-keyboard-response","235","249790","0.0-1.0-321.0-0.0","0","0","76997","","null","","","null","35","","","","","","","","","","","","","","","",""
"","ITI","","html-keyboard-response","236","250793","0.0-1.0-324.0","0","0","76997","","null","","","null","35","","","","","","","","","","","","","","","NaN",""
"","S1","","html-keyboard-response","237","251050","0.0-1.0-326.0","0","0","76997","","null","","","null","36","","","","","","","","","","","","","","","",""
"","ISI","","html-keyboard-response","238","252055","0.0-1.0-327.0","0","0","76997","","null","","","null","36","NaN","","","","","","","","","","","","","","",""
"","S2","","html-keyboard-response","239","252310","0.0-1.0-328.0","0","0","76997","","null","","","null","36","","NaN","","","","","","","","","","","","","",""
"","response","","html-keyboard-response","240","253159","0.0-1.0-329.0-0.0","0","0","76997","","847","","","75","36","","","1","36","training","adjacent","FE","6","5","P.jpg","L.jpg","1","0","0","",""
"","feedback","","html-keyboard-response","241","254163","0.0-1.0-330.0-0.0","0","0","76997","","null","","","null","36","","","","","","","","","","","","","","","",""
"","time_out","","html-keyboard-response","242","256169","0.0-1.0-332.0-0.0","0","0","76997","","null","","","null","36","","","","","","","","","","","","","","","",""
"","ITI","","html-keyboard-response","243","257173","0.0-1.0-333.0","0","0","76997","","null","","","null","36","","","","","","","","","","","","","","","NaN",""
"","S1","","html-keyboard-response","244","257442","0.0-1.0-335.0","0","0","76997","","null","","","null","37","","","","","","","","","","","","","","","",""
"","ISI","","html-keyboard-response","245","258447","0.0-1.0-336.0","0","0","76997","","null","","","null","37","NaN","","","","","","","","","","","","","","",""
"","S2","","html-keyboard-response","246","258702","0.0-1.0-337.0","0","0","76997","","null","","","null","37","","NaN","","","","","","","","","","","","","",""
"","response","","html-keyboard-response","247","259719","0.0-1.0-338.0-0.0","0","0","76997","","1014","","","68","37","","","1","37","training","adjacent","BA","2","1","Q.jpg","R.jpg","0","0","1","",""
"","feedback","","html-keyboard-response","248","260725","0.0-1.0-339.0-0.0","0","0","76997","","null","","","null","37","","","","","","","","","","","","","","","",""
"","ITI","","html-keyboard-response","249","261728","0.0-1.0-342.0","0","0","76997","","null","","","null","37","","","","","","","","","","","","","","","NaN",""
"","S1","","html-keyboard-response","250","261981","0.0-1.0-344.0","0","0","76997","","null","","","null","38","","","","","","","","","","","","","","","",""
"","ISI","","html-keyboard-response","251","262984","0.0-1.0-345.0","0","0","76997","","null","","","null","38","NaN","","","","","","","","","","","","","","",""
"","S2","","html-keyboard-response","252","263237","0.0-1.0-346.0","0","0","76997","","null","","","null","38","","NaN","","","","","","","","","","","","","",""
"","response","","html-keyboard-response","253","264485","0.0-1.0-347.0-0.0","0","0","76997","","1246","","","68","38","","","1","38","training","adjacent","EF","5","6","L.jpg","P.jpg","0","1","0","",""
"","feedback","","html-keyboard-response","254","265488","0.0-1.0-348.0-0.0","0","0","76997","","null","","","null","38","","","","","","","","","","","","","","","",""
"","time_out","","html-keyboard-response","255","267492","0.0-1.0-350.0-0.0","0","0","76997","","null","","","null","38","","","","","","","","","","","","","","","",""
"","ITI","","html-keyboard-response","256","268496","0.0-1.0-351.0","0","0","76997","","null","","","null","38","","","","","","","","","","","","","","","NaN",""
"","S1","","html-keyboard-response","257","268750","0.0-1.0-353.0","0","0","76997","","null","","","null","39","","","","","","","","","","","","","","","",""
"","ISI","","html-keyboard-response","258","269753","0.0-1.0-354.0","0","0","76997","","null","","","null","39","NaN","","","","","","","","","","","","","","",""
"","S2","","html-keyboard-response","259","270007","0.0-1.0-355.0","0","0","76997","","null","","","null","39","","NaN","","","","","","","","","","","","","",""
"","response","","html-keyboard-response","260","271340","0.0-1.0-356.0-0.0","0","0","76997","","1328","","","68","39","","","1","39","training","adjacent","FE","6","5","P.jpg","L.jpg","0","0","1","",""
"","feedback","","html-keyboard-response","261","272348","0.0-1.0-357.0-0.0","0","0","76997","","null","","","null","39","","","","","","","","","","","","","","","",""
"","ITI","","html-keyboard-response","262","273352","0.0-1.0-360.0","0","0","76997","","null","","","null","39","","","","","","","","","","","","","","","NaN",""
"","S1","","html-keyboard-response","263","273606","0.0-1.0-362.0","0","0","76997","","null","","","null","40","","","","","","","","","","","","","","","",""
"","ISI","","html-keyboard-response","264","274611","0.0-1.0-363.0","0","0","76997","","null","","","null","40","NaN","","","","","","","","","","","","","","",""
"","S2","","html-keyboard-response","265","274864","0.0-1.0-364.0","0","0","76997","","null","","","null","40","","NaN","","","","","","","","","","","","","",""
"","response","","html-keyboard-response","266","276199","0.0-1.0-365.0-0.0","0","0","76997","","1334","","","68","40","","","1","40","training","adjacent","DE","4","5","O.jpg","L.jpg","0","1","0","",""
"","feedback","","html-keyboard-response","267","277209","0.0-1.0-366.0-0.0","0","0","76997","","null","","","null","40","","","","","","","","","","","","","","","",""
"","time_out","","html-keyboard-response","268","279214","0.0-1.0-368.0-0.0","0","0","76997","","null","","","null","40","","","","","","","","","","","","","","","",""
"","ITI","","html-keyboard-response","269","280218","0.0-1.0-369.0","0","0","76997","","null","","","null","40","","","","","","","","","","","","","","","NaN",""
"","S1","","html-keyboard-response","270","280474","0.0-1.0-371.0","0","0","76997","","null","","","null","41","","","","","","","","","","","","","","","",""
"","ISI","","html-keyboard-response","271","281478","0.0-1.0-372.0","0","0","76997","","null","","","null","41","NaN","","","","","","","","","","","","","","",""
"","S2","","html-keyboard-response","272","281732","0.0-1.0-373.0","0","0","76997","","null","","","null","41","","NaN","","","","","","","","","","","","","",""
"","response","","html-keyboard-response","273","282623","0.0-1.0-374.0-0.0","0","0","76997","","890","","","75","41","","","1","41","training","adjacent","EF","5","6","L.jpg","P.jpg","1","1","1","",""
"","feedback","","html-keyboard-response","274","283628","0.0-1.0-375.0-0.0","0","0","76997","","null","","","null","41","","","","","","","","","","","","","","","",""
"","ITI","","html-keyboard-response","275","284632","0.0-1.0-378.0","0","0","76997","","null","","","null","41","","","","","","","","","","","","","","","NaN",""
"","S1","","html-keyboard-response","276","284886","0.0-1.0-380.0","0","0","76997","","null","","","null","42","","","","","","","","","","","","","","","",""
"","ISI","","html-keyboard-response","277","285889","0.0-1.0-381.0","0","0","76997","","null","","","null","42","NaN","","","","","","","","","","","","","","",""
"","S2","","html-keyboard-response","278","286144","0.0-1.0-382.0","0","0","76997","","null","","","null","42","","NaN","","","","","","","","","","","","","",""
"","response","","html-keyboard-response","279","287897","0.0-1.0-383.0-0.0","0","0","76997","","null","","","null","42","","","1","42","training","adjacent","ED","5","4","L.jpg","O.jpg","NaN","0","0","",""
"","too_slow_prompt","","html-keyboard-response","280","288901","0.0-1.0-385.0-0.0","1","0","76997","","null","","","null","","","","","","","","","","","","","","","","",""
"","time_out","","html-keyboard-response","281","290909","0.0-1.0-386.0-0.0","0","0","76997","","null","","","null","42","","","","","","","","","","","","","","","",""
"","ITI","","html-keyboard-response","282","291912","0.0-1.0-387.0","0","0","76997","","null","","","null","42","","","","","","","","","","","","","","","NaN",""
"","S1","","html-keyboard-response","283","292168","0.0-1.0-389.0","0","0","76997","","null","","","null","43","","","","","","","","","","","","","","","",""
"","ISI","","html-keyboard-response","284","293172","0.0-1.0-390.0","0","0","76997","","null","","","null","43","NaN","","","","","","","","","","","","","","",""
"","S2","","html-keyboard-response","285","293427","0.0-1.0-391.0","0","0","76997","","null","","","null","43","","NaN","","","","","","","","","","","","","",""
"","response","","html-keyboard-response","286","294208","0.0-1.0-392.0-0.0","0","0","76997","","778","","","68","43","","","1","43","training","adjacent","CB","3","2","N.jpg","Q.jpg","0","0","1","",""
"","feedback","","html-keyboard-response","287","295212","0.0-1.0-393.0-0.0","0","0","76997","","null","","","null","43","","","","","","","","","","","","","","","",""
"","ITI","","html-keyboard-response","288","296218","0.0-1.0-396.0","0","0","76997","","null","","","null","43","","","","","","","","","","","","","","","NaN",""
"","S1","","html-keyboard-response","289","296472","0.0-1.0-398.0","0","0","76997","","null","","","null","44","","","","","","","","","","","","","","","",""
"","ISI","","html-keyboard-response","290","297475","0.0-1.0-399.0","0","0","76997","","null","","","null","44","NaN","","","","","","","","","","","","","","",""
"","S2","","html-keyboard-response","291","297728","0.0-1.0-400.0","0","0","76997","","null","","","null","44","","NaN","","","","","","","","","","","","","",""
"","response","","html-keyboard-response","292","298631","0.0-1.0-401.0-0.0","0","0","76997","","901","","","68","44","","","1","44","training","adjacent","CB","3","2","N.jpg","Q.jpg","0","0","1","",""
"","feedback","","html-keyboard-response","293","299642","0.0-1.0-402.0-0.0","0","0","76997","","null","","","null","44","","","","","","","","","","","","","","","",""
"","ITI","","html-keyboard-response","294","300646","0.0-1.0-405.0","0","0","76997","","null","","","null","44","","","","","","","","","","","","","","","NaN",""
"","S1","","html-keyboard-response","295","300899","0.0-1.0-407.0","0","0","76997","","null","","","null","45","","","","","","","","","","","","","","","",""
"","ISI","","html-keyboard-response","296","301903","0.0-1.0-408.0","0","0","76997","","null","","","null","45","NaN","","","","","","","","","","","","","","",""
"","S2","","html-keyboard-response","297","302158","0.0-1.0-409.0","0","0","76997","","null","","","null","45","","NaN","","","","","","","","","","","","","",""
"","response","","html-keyboard-response","298","302511","0.0-1.0-410.0-0.0","0","0","76997","","352","","","68","45","","","1","45","training","adjacent","BC","2","3","Q.jpg","N.jpg","0","1","0","",""
"","feedback","","html-keyboard-response","299","303521","0.0-1.0-411.0-0.0","0","0","76997","","null","","","null","45","","","","","","","","","","","","","","","",""
"","time_out","","html-keyboard-response","300","305525","0.0-1.0-413.0-0.0","0","0","76997","","null","","","null","45","","","","","","","","","","","","","","","",""
"","ITI","","html-keyboard-response","301","306528","0.0-1.0-414.0","0","0","76997","","null","","","null","45","","","","","","","","","","","","","","","NaN",""
"","S1","","html-keyboard-response","302","306783","0.0-1.0-416.0","0","0","76997","","null","","","null","46","","","","","","","","","","","","","","","",""
"","ISI","","html-keyboard-response","303","307786","0.0-1.0-417.0","0","0","76997","","null","","","null","46","NaN","","","","","","","","","","","","","","",""
"","S2","","html-keyboard-response","304","308040","0.0-1.0-418.0","0","0","76997","","null","","","null","46","","NaN","","","","","","","","","","","","","",""
"","response","","html-keyboard-response","305","309200","0.0-1.0-419.0-0.0","0","0","76997","","1157","","","68","46","","","1","46","training","adjacent","ED","5","4","L.jpg","O.jpg","0","0","1","",""
"","feedback","","html-keyboard-response","306","310204","0.0-1.0-420.0-0.0","0","0","76997","","null","","","null","46","","","","","","","","","","","","","","","",""
"","ITI","","html-keyboard-response","307","311206","0.0-1.0-423.0","0","0","76997","","null","","","null","46","","","","","","","","","","","","","","","NaN",""
"","S1","","html-keyboard-response","308","311461","0.0-1.0-425.0","0","0","76997","","null","","","null","47","","","","","","","","","","","","","","","",""
"","ISI","","html-keyboard-response","309","312464","0.0-1.0-426.0","0","0","76997","","null","","","null","47","NaN","","","","","","","","","","","","","","",""
"","S2","","html-keyboard-response","310","312719","0.0-1.0-427.0","0","0","76997","","null","","","null","47","","NaN","","","","","","","","","","","","","",""
"","response","","html-keyboard-response","311","313759","0.0-1.0-428.0-0.0","0","0","76997","","1037","","","75","47","","","1","47","training","adjacent","DC","4","3","O.jpg","N.jpg","1","0","0","",""
"","feedback","","html-keyboard-response","312","314766","0.0-1.0-429.0-0.0","0","0","76997","","null","","","null","47","","","","","","","","","","","","","","","",""
"","time_out","","html-keyboard-response","313","316771","0.0-1.0-431.0-0.0","0","0","76997","","null","","","null","47","","","","","","","","","","","","","","","",""
"","ITI","","html-keyboard-response","314","317787","0.0-1.0-432.0","0","0","76997","","null","","","null","47","","","","","","","","","","","","","","","NaN",""
"","block_over","","html-keyboard-response","315","329404","0.0-1.0-433.0-0.0","0","0","76997","","11611","","","32","47","","","","","","","","","","","","","","","",""
"","S1","","html-keyboard-response","316","329662","0.0-1.0-434.0","0","0","76997","","null","","","null","48","","","","","","","","","","","","","","","",""
"","ISI","","html-keyboard-response","317","330666","0.0-1.0-435.0","0","0","76997","","null","","","null","48","NaN","","","","","","","","","","","","","","",""
"","S2","","html-keyboard-response","318","330919","0.0-1.0-436.0","0","0","76997","","null","","","null","48","","NaN","","","","","","","","","","","","","",""
"","response","","html-keyboard-response","319","332335","0.0-1.0-437.0-0.0","0","0","76997","","1414","","","75","48","","","2","48","training","adjacent","CD","3","4","N.jpg","O.jpg","1","1","1","",""
"","feedback","","html-keyboard-response","320","333339","0.0-1.0-438.0-0.0","0","0","76997","","null","","","null","48","","","","","","","","","","","","","","","",""
"","ITI","","html-keyboard-response","321","334343","0.0-1.0-441.0","0","0","76997","","null","","","null","48","","","","","","","","","","","","","","","NaN",""
"","S1","","html-keyboard-response","322","334599","0.0-1.0-443.0","0","0","76997","","null","","","null","49","","","","","","","","","","","","","","","",""
"","ISI","","html-keyboard-response","323","335603","0.0-1.0-444.0","0","0","76997","","null","","","null","49","NaN","","","","","","","","","","","","","","",""
"","S2","","html-keyboard-response","324","335856","0.0-1.0-445.0","0","0","76997","","null","","","null","49","","NaN","","","","","","","","","","","","","",""
"","response","","html-keyboard-response","325","336887","0.0-1.0-446.0-0.0","0","0","76997","","1029","","","68","49","","","2","49","training","adjacent","ED","5","4","L.jpg","O.jpg","0","0","1","",""
"","feedback","","html-keyboard-response","326","337890","0.0-1.0-447.0-0.0","0","0","76997","","null","","","null","49","","","","","","","","","","","","","","","",""
"","ITI","","html-keyboard-response","327","338897","0.0-1.0-450.0","0","0","76997","","null","","","null","49","","","","","","","","","","","","","","","NaN",""
"","S1","","html-keyboard-response","328","339151","0.0-1.0-452.0","0","0","76997","","null","","","null","50","","","","","","","","","","","","","","","",""
"","ISI","","html-keyboard-response","329","340153","0.0-1.0-453.0","0","0","76997","","null","","","null","50","NaN","","","","","","","","","","","","","","",""
"","S2","","html-keyboard-response","330","340407","0.0-1.0-454.0","0","0","76997","","null","","","null","50","","NaN","","","","","","","","","","","","","",""
"","response","","html-keyboard-response","331","341792","0.0-1.0-455.0-0.0","0","0","76997","","1384","","","75","50","","","2","50","training","adjacent","BC","2","3","Q.jpg","N.jpg","1","1","1","",""
"","feedback","","html-keyboard-response","332","342796","0.0-1.0-456.0-0.0","0","0","76997","","null","","","null","50","","","","","","","","","","","","","","","",""
"","ITI","","html-keyboard-response","333","343802","0.0-1.0-459.0","0","0","76997","","null","","","null","50","","","","","","","","","","","","","","","NaN",""
"","S1","","html-keyboard-response","334","344057","0.0-1.0-461.0","0","0","76997","","null","","","null","51","","","","","","","","","","","","","","","",""
"","ISI","","html-keyboard-response","335","345059","0.0-1.0-462.0","0","0","76997","","null","","","null","51","NaN","","","","","","","","","","","","","","",""
"","S2","","html-keyboard-response","336","345371","0.0-1.0-463.0","0","0","76997","","null","","","null","51","","NaN","","","","","","","","","","","","","",""
"","response","","html-keyboard-response","337","346151","0.0-1.0-464.0-0.0","0","0","76997","","777","","","75","51","","","2","51","training","adjacent","CD","3","4","N.jpg","O.jpg","1","1","1","",""
"","feedback","","html-keyboard-response","338","347155","0.0-1.0-465.0-0.0","0","0","76997","","null","","","null","51","","","","","","","","","","","","","","","",""
"","ITI","","html-keyboard-response","339","348158","0.0-1.0-468.0","0","0","76997","","null","","","null","51","","","","","","","","","","","","","","","NaN",""
"","S1","","html-keyboard-response","340","348411","0.0-1.0-470.0","0","0","76997","","null","","","null","52","","","","","","","","","","","","","","","",""
"","ISI","","html-keyboard-response","341","349415","0.0-1.0-471.0","0","0","76997","","null","","","null","52","NaN","","","","","","","","","","","","","","",""
"","S2","","html-keyboard-response","342","349670","0.0-1.0-472.0","0","0","76997","","null","","","null","52","","NaN","","","","","","","","","","","","","",""
"","response","","html-keyboard-response","343","350242","0.0-1.0-473.0-0.0","0","0","76997","","566","","","68","52","","","2","52","training","adjacent","BA","2","1","Q.jpg","R.jpg","0","0","1","",""
"","feedback","","html-keyboard-response","344","351248","0.0-1.0-474.0-0.0","0","0","76997","","null","","","null","52","","","","","","","","","","","","","","","",""
"","ITI","","html-keyboard-response","345","352252","0.0-1.0-477.0","0","0","76997","","null","","","null","52","","","","","","","","","","","","","","","NaN",""
"","S1","","html-keyboard-response","346","352506","0.0-1.0-479.0","0","0","76997","","null","","","null","53","","","","","","","","","","","","","","","",""
"","ISI","","html-keyboard-response","347","353509","0.0-1.0-480.0","0","0","76997","","null","","","null","53","NaN","","","","","","","","","","","","","","",""
"","S2","","html-keyboard-response","348","353762","0.0-1.0-481.0","0","0","76997","","null","","","null","53","","NaN","","","","","","","","","","","","","",""
"","response","","html-keyboard-response","349","355153","0.0-1.0-482.0-0.0","0","0","76997","","1388","","","68","53","","","2","53","training","adjacent","EF","5","6","L.jpg","P.jpg","0","1","0","",""
"","feedback","","html-keyboard-response","350","356157","0.0-1.0-483.0-0.0","0","0","76997","","null","","","null","53","","","","","","","","","","","","","","","",""
"","time_out","","html-keyboard-response","351","358160","0.0-1.0-485.0-0.0","0","0","76997","","null","","","null","53","","","","","","","","","","","","","","","",""
"","ITI","","html-keyboard-response","352","359164","0.0-1.0-486.0","0","0","76997","","null","","","null","53","","","","","","","","","","","","","","","NaN",""
"","S1","","html-keyboard-response","353","359419","0.0-1.0-488.0","0","0","76997","","null","","","null","54","","","","","","","","","","","","","","","",""
"","ISI","","html-keyboard-response","354","360422","0.0-1.0-489.0","0","0","76997","","null","","","null","54","NaN","","","","","","","","","","","","","","",""
"","S2","","html-keyboard-response","355","360677","0.0-1.0-490.0","0","0","76997","","null","","","null","54","","NaN","","","","","","","","","","","","","",""
"","response","","html-keyboard-response","356","362231","0.0-1.0-491.0-0.0","0","0","76997","","1551","","","75","54","","","2","54","training","adjacent","DE","4","5","O.jpg","L.jpg","1","1","1","",""
"","feedback","","html-keyboard-response","357","363235","0.0-1.0-492.0-0.0","0","0","76997","","null","","","null","54","","","","","","","","","","","","","","","",""
"","ITI","","html-keyboard-response","358","364238","0.0-1.0-495.0","0","0","76997","","null","","","null","54","","","","","","","","","","","","","","","NaN",""
"","S1","","html-keyboard-response","359","364492","0.0-1.0-497.0","0","0","76997","","null","","","null","55","","","","","","","","","","","","","","","",""
"","ISI","","html-keyboard-response","360","365494","0.0-1.0-498.0","0","0","76997","","null","","","null","55","NaN","","","","","","","","","","","","","","",""
"","S2","","html-keyboard-response","361","365748","0.0-1.0-499.0","0","0","76997","","null","","","null","55","","NaN","","","","","","","","","","","","","",""
"","response","","html-keyboard-response","362","366412","0.0-1.0-500.0-0.0","0","0","76997","","658","","","68","55","","","2","55","training","adjacent","CB","3","2","N.jpg","Q.jpg","0","0","1","",""
"","feedback","","html-keyboard-response","363","367430","0.0-1.0-501.0-0.0","0","0","76997","","null","","","null","55","","","","","","","","","","","","","","","",""
"","ITI","","html-keyboard-response","364","368434","0.0-1.0-504.0","0","0","76997","","null","","","null","55","","","","","","","","","","","","","","","NaN",""
"","S1","","html-keyboard-response","365","368687","0.0-1.0-506.0","0","0","76997","","null","","","null","56","","","","","","","","","","","","","","","",""
"","ISI","","html-keyboard-response","366","369691","0.0-1.0-507.0","0","0","76997","","null","","","null","56","NaN","","","","","","","","","","","","","","",""
"","S2","","html-keyboard-response","367","370066","0.0-1.0-508.0","0","0","76997","","null","","","null","56","","NaN","","","","","","","","","","","","","",""
"","response","","html-keyboard-response","368","370791","0.0-1.0-509.0-0.0","0","0","76997","","722","","","68","56","","","2","56","training","adjacent","BA","2","1","Q.jpg","R.jpg","0","0","1","",""
"","feedback","","html-keyboard-response","369","371797","0.0-1.0-510.0-0.0","0","0","76997","","null","","","null","56","","","","","","","","","","","","","","","",""
"","ITI","","html-keyboard-response","370","372801","0.0-1.0-513.0","0","0","76997","","null","","","null","56","","","","","","","","","","","","","","","NaN",""
"","S1","","html-keyboard-response","371","373056","0.0-1.0-515.0","0","0","76997","","null","","","null","57","","","","","","","","","","","","","","","",""
"","ISI","","html-keyboard-response","372","374061","0.0-1.0-516.0","0","0","76997","","null","","","null","57","NaN","","","","","","","","","","","","","","",""
"","S2","","html-keyboard-response","373","374318","0.0-1.0-517.0","0","0","76997","","null","","","null","57","","NaN","","","","","","","","","","","","","",""
"","response","","html-keyboard-response","374","376073","0.0-1.0-518.0-0.0","0","0","76997","","null","","","null","57","","","2","57","training","adjacent","CD","3","4","N.jpg","O.jpg","NaN","1","0","",""
"","too_slow_prompt","","html-keyboard-response","375","377076","0.0-1.0-520.0-0.0","1","0","76997","","null","","","null","","","","","","","","","","","","","","","","",""
"","time_out","","html-keyboard-response","376","379079","0.0-1.0-521.0-0.0","0","0","76997","","null","","","null","57","","","","","","","","","","","","","","","",""
"","ITI","","html-keyboard-response","377","380082","0.0-1.0-522.0","0","0","76997","","null","","","null","57","","","","","","","","","","","","","","","NaN",""
"","S1","","html-keyboard-response","378","380335","0.0-1.0-524.0","0","0","76997","","null","","","null","58","","","","","","","","","","","","","","","",""
"","ISI","","html-keyboard-response","379","381341","0.0-1.0-525.0","0","0","76997","","null","","","null","58","NaN","","","","","","","","","","","","","","",""
"","S2","","html-keyboard-response","380","381596","0.0-1.0-526.0","0","0","76997","","null","","","null","58","","NaN","","","","","","","","","","","","","",""
"","response","","html-keyboard-response","381","382351","0.0-1.0-527.0-0.0","0","0","76997","","754","","","75","58","","","2","58","training","adjacent","AB","1","2","R.jpg","Q.jpg","1","1","1","",""
"","feedback","","html-keyboard-response","382","383354","0.0-1.0-528.0-0.0","0","0","76997","","null","","","null","58","","","","","","","","","","","","","","","",""
"","ITI","","html-keyboard-response","383","384356","0.0-1.0-531.0","0","0","76997","","null","","","null","58","","","","","","","","","","","","","","","NaN",""
"","S1","","html-keyboard-response","384","384610","0.0-1.0-533.0","0","0","76997","","null","","","null","59","","","","","","","","","","","","","","","",""
"","ISI","","html-keyboard-response","385","385613","0.0-1.0-534.0","0","0","76997","","null","","","null","59","NaN","","","","","","","","","","","","","","",""
"","S2","","html-keyboard-response","386","385867","0.0-1.0-535.0","0","0","76997","","null","","","null","59","","NaN","","","","","","","","","","","","","",""
"","response","","html-keyboard-response","387","387121","0.0-1.0-536.0-0.0","0","0","76997","","1250","","","75","59","","","2","59","training","adjacent","BC","2","3","Q.jpg","N.jpg","1","1","1","",""
"","feedback","","html-keyboard-response","388","388126","0.0-1.0-537.0-0.0","0","0","76997","","null","","","null","59","","","","","","","","","","","","","","","",""
"","ITI","","html-keyboard-response","389","389129","0.0-1.0-540.0","0","0","76997","","null","","","null","59","","","","","","","","","","","","","","","NaN",""
"","S1","","html-keyboard-response","390","389382","0.0-1.0-542.0","0","0","76997","","null","","","null","60","","","","","","","","","","","","","","","",""
"","ISI","","html-keyboard-response","391","390384","0.0-1.0-543.0","0","0","76997","","null","","","null","60","NaN","","","","","","","","","","","","","","",""
"","S2","","html-keyboard-response","392","390638","0.0-1.0-544.0","0","0","76997","","null","","","null","60","","NaN","","","","","","","","","","","","","",""
"","response","","html-keyboard-response","393","392249","0.0-1.0-545.0-0.0","0","0","76997","","1608","","","75","60","","","2","60","training","adjacent","CD","3","4","N.jpg","O.jpg","1","1","1","",""
"","feedback","","html-keyboard-response","394","393254","0.0-1.0-546.0-0.0","0","0","76997","","null","","","null","60","","","","","","","","","","","","","","","",""
"","ITI","","html-keyboard-response","395","394258","0.0-1.0-549.0","0","0","76997","","null","","","null","60","","","","","","","","","","","","","","","NaN",""
"","S1","","html-keyboard-response","396","394536","0.0-1.0-551.0","0","0","76997","","null","","","null","61","","","","","","","","","","","","","","","",""
"","ISI","","html-keyboard-response","397","395538","0.0-1.0-552.0","0","0","76997","","null","","","null","61","NaN","","","","","","","","","","","","","","",""
"","S2","","html-keyboard-response","398","395792","0.0-1.0-553.0","0","0","76997","","null","","","null","61","","NaN","","","","","","","","","","","","","",""
"","response","","html-keyboard-response","399","396666","0.0-1.0-554.0-0.0","0","0","76997","","871","","","75","61","","","2","61","training","adjacent","DC","4","3","O.jpg","N.jpg","1","0","0","",""
"","feedback","","html-keyboard-response","400","397673","0.0-1.0-555.0-0.0","0","0","76997","","null","","","null","61","","","","","","","","","","","","","","","",""
"","time_out","","html-keyboard-response","401","399678","0.0-1.0-557.0-0.0","0","0","76997","","null","","","null","61","","","","","","","","","","","","","","","",""
"","ITI","","html-keyboard-response","402","400680","0.0-1.0-558.0","0","0","76997","","null","","","null","61","","","","","","","","","","","","","","","NaN",""
"","S1","","html-keyboard-response","403","400934","0.0-1.0-560.0","0","0","76997","","null","","","null","62","","","","","","","","","","","","","","","",""
"","ISI","","html-keyboard-response","404","401936","0.0-1.0-561.0","0","0","76997","","null","","","null","62","NaN","","","","","","","","","","","","","","",""
"","S2","","html-keyboard-response","405","402189","0.0-1.0-562.0","0","0","76997","","null","","","null","62","","NaN","","","","","","","","","","","","","",""
"","response","","html-keyboard-response","406","403488","0.0-1.0-563.0-0.0","0","0","76997","","1296","","","75","62","","","2","62","training","adjacent","FG","6","7","P.jpg","M.jpg","1","1","1","",""
"","feedback","","html-keyboard-response","407","404491","0.0-1.0-564.0-0.0","0","0","76997","","null","","","null","62","","","","","","","","","","","","","","","",""
"","ITI","","html-keyboard-response","408","405494","0.0-1.0-567.0","0","0","76997","","null","","","null","62","","","","","","","","","","","","","","","NaN",""
"","S1","","html-keyboard-response","409","405748","0.0-1.0-569.0","0","0","76997","","null","","","null","63","","","","","","","","","","","","","","","",""
"","ISI","","html-keyboard-response","410","406752","0.0-1.0-570.0","0","0","76997","","null","","","null","63","NaN","","","","","","","","","","","","","","",""
"","S2","","html-keyboard-response","411","407008","0.0-1.0-571.0","0","0","76997","","null","","","null","63","","NaN","","","","","","","","","","","","","",""
"","response","","html-keyboard-response","412","407363","0.0-1.0-572.0-0.0","0","0","76997","","350","","","75","63","","","2","63","training","adjacent","AB","1","2","R.jpg","Q.jpg","1","1","1","",""
"","feedback","","html-keyboard-response","413","408368","0.0-1.0-573.0-0.0","0","0","76997","","null","","","null","63","","","","","","","","","","","","","","","",""
"","ITI","","html-keyboard-response","414","409372","0.0-1.0-576.0","0","0","76997","","null","","","null","63","","","","","","","","","","","","","","","NaN",""
"","S1","","html-keyboard-response","415","409625","0.0-1.0-578.0","0","0","76997","","null","","","null","64","","","","","","","","","","","","","","","",""
"","ISI","","html-keyboard-response","416","410632","0.0-1.0-579.0","0","0","76997","","null","","","null","64","NaN","","","","","","","","","","","","","","",""
"","S2","","html-keyboard-response","417","410889","0.0-1.0-580.0","0","0","76997","","null","","","null","64","","NaN","","","","","","","","","","","","","",""
"","response","","html-keyboard-response","418","411140","0.0-1.0-581.0-0.0","0","0","76997","","244","","","75","64","","","2","64","training","adjacent","AB","1","2","R.jpg","Q.jpg","1","1","1","",""
"","feedback","","html-keyboard-response","419","412144","0.0-1.0-582.0-0.0","0","0","76997","","null","","","null","64","","","","","","","","","","","","","","","",""
"","ITI","","html-keyboard-response","420","413147","0.0-1.0-585.0","0","0","76997","","null","","","null","64","","","","","","","","","","","","","","","NaN",""
"","S1","","html-keyboard-response","421","413399","0.0-1.0-587.0","0","0","76997","","null","","","null","65","","","","","","","","","","","","","","","",""
"","ISI","","html-keyboard-response","422","414416","0.0-1.0-588.0","0","0","76997","","null","","","null","65","NaN","","","","","","","","","","","","","","",""
"","S2","","html-keyboard-response","423","414669","0.0-1.0-589.0","0","0","76997","","null","","","null","65","","NaN","","","","","","","","","","","","","",""
"","response","","html-keyboard-response","424","415040","0.0-1.0-590.0-0.0","0","0","76997","","368","","","68","65","","","2","65","training","adjacent","DC","4","3","O.jpg","N.jpg","0","0","1","",""
"","feedback","","html-keyboard-response","425","416045","0.0-1.0-591.0-0.0","0","0","76997","","null","","","null","65","","","","","","","","","","","","","","","",""
"","ITI","","html-keyboard-response","426","417050","0.0-1.0-594.0","0","0","76997","","null","","","null","65","","","","","","","","","","","","","","","NaN",""
"","S1","","html-keyboard-response","427","417302","0.0-1.0-596.0","0","0","76997","","null","","","null","66","","","","","","","","","","","","","","","",""
"","ISI","","html-keyboard-response","428","418305","0.0-1.0-597.0","0","0","76997","","null","","","null","66","NaN","","","","","","","","","","","","","","",""
"","S2","","html-keyboard-response","429","418559","0.0-1.0-598.0","0","0","76997","","null","","","null","66","","NaN","","","","","","","","","","","","","",""
"","response","","html-keyboard-response","430","418968","0.0-1.0-599.0-0.0","0","0","76997","","405","","","68","66","","","2","66","training","adjacent","CB","3","2","N.jpg","Q.jpg","0","0","1","",""
"","feedback","","html-keyboard-response","431","419973","0.0-1.0-600.0-0.0","0","0","76997","","null","","","null","66","","","","","","","","","","","","","","","",""
"","ITI","","html-keyboard-response","432","420982","0.0-1.0-603.0","0","0","76997","","null","","","null","66","","","","","","","","","","","","","","","NaN",""
"","S1","","html-keyboard-response","433","421237","0.0-1.0-605.0","0","0","76997","","null","","","null","67","","","","","","","","","","","","","","","",""
"","ISI","","html-keyboard-response","434","422240","0.0-1.0-606.0","0","0","76997","","null","","","null","67","NaN","","","","","","","","","","","","","","",""
"","S2","","html-keyboard-response","435","422494","0.0-1.0-607.0","0","0","76997","","null","","","null","67","","NaN","","","","","","","","","","","","","",""
"","response","","html-keyboard-response","436","423385","0.0-1.0-608.0-0.0","0","0","76997","","887","","","68","67","","","2","67","training","adjacent","EF","5","6","L.jpg","P.jpg","0","1","0","",""
"","feedback","","html-keyboard-response","437","424391","0.0-1.0-609.0-0.0","0","0","76997","","null","","","null","67","","","","","","","","","","","","","","","",""
"","time_out","","html-keyboard-response","438","426395","0.0-1.0-611.0-0.0","0","0","76997","","null","","","null","67","","","","","","","","","","","","","","","",""
"","ITI","","html-keyboard-response","439","427399","0.0-1.0-612.0","0","0","76997","","null","","","null","67","","","","","","","","","","","","","","","NaN",""
"","S1","","html-keyboard-response","440","427654","0.0-1.0-614.0","0","0","76997","","null","","","null","68","","","","","","","","","","","","","","","",""
"","ISI","","html-keyboard-response","441","428659","0.0-1.0-615.0","0","0","76997","","null","","","null","68","NaN","","","","","","","","","","","","","","",""
"","S2","","html-keyboard-response","442","428914","0.0-1.0-616.0","0","0","76997","","null","","","null","68","","NaN","","","","","","","","","","","","","",""
"","response","","html-keyboard-response","443","429909","0.0-1.0-617.0-0.0","0","0","76997","","990","","","68","68","","","2","68","training","adjacent","GF","7","6","M.jpg","P.jpg","0","0","1","",""
"","feedback","","html-keyboard-response","444","430915","0.0-1.0-618.0-0.0","0","0","76997","","null","","","null","68","","","","","","","","","","","","","","","",""
"","ITI","","html-keyboard-response","445","431919","0.0-1.0-621.0","0","0","76997","","null","","","null","68","","","","","","","","","","","","","","","NaN",""
"","S1","","html-keyboard-response","446","432213","0.0-1.0-623.0","0","0","76997","","null","","","null","69","","","","","","","","","","","","","","","",""
"","ISI","","html-keyboard-response","447","433216","0.0-1.0-624.0","0","0","76997","","null","","","null","69","NaN","","","","","","","","","","","","","","",""
"","S2","","html-keyboard-response","448","433470","0.0-1.0-625.0","0","0","76997","","null","","","null","69","","NaN","","","","","","","","","","","","","",""
"","response","","html-keyboard-response","449","435224","0.0-1.0-626.0-0.0","0","0","76997","","null","","","null","69","","","2","69","training","adjacent","DE","4","5","O.jpg","L.jpg","NaN","1","0","",""
"","too_slow_prompt","","html-keyboard-response","450","436231","0.0-1.0-628.0-0.0","1","0","76997","","null","","","null","","","","","","","","","","","","","","","","",""
"","time_out","","html-keyboard-response","451","438234","0.0-1.0-629.0-0.0","0","0","76997","","null","","","null","69","","","","","","","","","","","","","","","",""
"","ITI","","html-keyboard-response","452","439238","0.0-1.0-630.0","0","0","76997","","null","","","null","69","","","","","","","","","","","","","","","NaN",""
"","S1","","html-keyboard-response","453","439667","0.0-1.0-632.0","0","0","76997","","null","","","null","70","","","","","","","","","","","","","","","",""
"","ISI","","html-keyboard-response","454","440670","0.0-1.0-633.0","0","0","76997","","null","","","null","70","NaN","","","","","","","","","","","","","","",""
"","S2","","html-keyboard-response","455","440925","0.0-1.0-634.0","0","0","76997","","null","","","null","70","","NaN","","","","","","","","","","","","","",""
"","response","","html-keyboard-response","456","442088","0.0-1.0-635.0-0.0","0","0","76997","","1160","","","68","70","","","2","70","training","adjacent","FG","6","7","P.jpg","M.jpg","0","1","0","",""
"","feedback","","html-keyboard-response","457","443092","0.0-1.0-636.0-0.0","0","0","76997","","null","","","null","70","","","","","","","","","","","","","","","",""
"","time_out","","html-keyboard-response","458","445095","0.0-1.0-638.0-0.0","0","0","76997","","null","","","null","70","","","","","","","","","","","","","","","",""
"","ITI","","html-keyboard-response","459","446098","0.0-1.0-639.0","0","0","76997","","null","","","null","70","","","","","","","","","","","","","","","NaN",""
"","S1","","html-keyboard-response","460","446352","0.0-1.0-641.0","0","0","76997","","null","","","null","71","","","","","","","","","","","","","","","",""
"","ISI","","html-keyboard-response","461","447357","0.0-1.0-642.0","0","0","76997","","null","","","null","71","NaN","","","","","","","","","","","","","","",""
"","S2","","html-keyboard-response","462","447613","0.0-1.0-643.0","0","0","76997","","null","","","null","71","","NaN","","","","","","","","","","","","","",""
"","response","","html-keyboard-response","463","449359","0.0-1.0-644.0-0.0","0","0","76997","","1743","","","68","71","","","2","71","training","adjacent","FE","6","5","P.jpg","L.jpg","0","0","1","",""
"","feedback","","html-keyboard-response","464","450365","0.0-1.0-645.0-0.0","0","0","76997","","null","","","null","71","","","","","","","","","","","","","","","",""
"","ITI","","html-keyboard-response","465","451369","0.0-1.0-648.0","0","0","76997","","null","","","null","71","","","","","","","","","","","","","","","NaN",""
"","S1","","html-keyboard-response","466","451622","0.0-1.0-650.0","0","0","76997","","null","","","null","72","","","","","","","","","","","","","","","",""
"","ISI","","html-keyboard-response","467","452627","0.0-1.0-651.0","0","0","76997","","null","","","null","72","NaN","","","","","","","","","","","","","","",""
"","S2","","html-keyboard-response","468","452881","0.0-1.0-652.0","0","0","76997","","null","","","null","72","","NaN","","","","","","","","","","","","","",""
"","response","","html-keyboard-response","469","453655","0.0-1.0-653.0-0.0","0","0","76997","","772","","","75","72","","","2","72","training","adjacent","FE","6","5","P.jpg","L.jpg","1","0","0","",""
"","feedback","","html-keyboard-response","470","454660","0.0-1.0-654.0-0.0","0","0","76997","","null","","","null","72","","","","","","","","","","","","","","","",""
"","time_out","","html-keyboard-response","471","456665","0.0-1.0-656.0-0.0","0","0","76997","","null","","","null","72","","","","","","","","","","","","","","","",""
"","ITI","","html-keyboard-response","472","457668","0.0-1.0-657.0","0","0","76997","","null","","","null","72","","","","","","","","","","","","","","","NaN",""
"","S1","","html-keyboard-response","473","457922","0.0-1.0-659.0","0","0","76997","","null","","","null","73","","","","","","","","","","","","","","","",""
"","ISI","","html-keyboard-response","474","458927","0.0-1.0-660.0","0","0","76997","","null","","","null","73","NaN","","","","","","","","","","","","","","",""
"","S2","","html-keyboard-response","475","459182","0.0-1.0-661.0","0","0","76997","","null","","","null","73","","NaN","","","","","","","","","","","","","",""
"","response","","html-keyboard-response","476","460111","0.0-1.0-662.0-0.0","0","0","76997","","926","","","75","73","","","2","73","training","adjacent","BC","2","3","Q.jpg","N.jpg","1","1","1","",""
"","feedback","","html-keyboard-response","477","461117","0.0-1.0-663.0-0.0","0","0","76997","","null","","","null","73","","","","","","","","","","","","","","","",""
"","ITI","","html-keyboard-response","478","462121","0.0-1.0-666.0","0","0","76997","","null","","","null","73","","","","","","","","","","","","","","","NaN",""
"","S1","","html-keyboard-response","479","462375","0.0-1.0-668.0","0","0","76997","","null","","","null","74","","","","","","","","","","","","","","","",""
"","ISI","","html-keyboard-response","480","463378","0.0-1.0-669.0","0","0","76997","","null","","","null","74","NaN","","","","","","","","","","","","","","",""
"","S2","","html-keyboard-response","481","463631","0.0-1.0-670.0","0","0","76997","","null","","","null","74","","NaN","","","","","","","","","","","","","",""
"","response","","html-keyboard-response","482","464353","0.0-1.0-671.0-0.0","0","0","76997","","718","","","68","74","","","2","74","training","adjacent","GF","7","6","M.jpg","P.jpg","0","0","1","",""
"","feedback","","html-keyboard-response","483","465358","0.0-1.0-672.0-0.0","0","0","76997","","null","","","null","74","","","","","","","","","","","","","","","",""
"","ITI","","html-keyboard-response","484","466361","0.0-1.0-675.0","0","0","76997","","null","","","null","74","","","","","","","","","","","","","","","NaN",""
"","S1","","html-keyboard-response","485","466726","0.0-1.0-677.0","0","0","76997","","null","","","null","75","","","","","","","","","","","","","","","",""
"","ISI","","html-keyboard-response","486","467738","0.0-1.0-678.0","0","0","76997","","null","","","null","75","NaN","","","","","","","","","","","","","","",""
"","S2","","html-keyboard-response","487","468062","0.0-1.0-679.0","0","0","76997","","null","","","null","75","","NaN","","","","","","","","","","","","","",""
"","response","","html-keyboard-response","488","469065","0.0-1.0-680.0-0.0","0","0","76997","","1001","","","68","75","","","2","75","training","adjacent","DC","4","3","O.jpg","N.jpg","0","0","1","",""
"","feedback","","html-keyboard-response","489","470069","0.0-1.0-681.0-0.0","0","0","76997","","null","","","null","75","","","","","","","","","","","","","","","",""
"","ITI","","html-keyboard-response","490","471080","0.0-1.0-684.0","0","0","76997","","null","","","null","75","","","","","","","","","","","","","","","NaN",""
"","S1","","html-keyboard-response","491","471334","0.0-1.0-686.0","0","0","76997","","null","","","null","76","","","","","","","","","","","","","","","",""
"","ISI","","html-keyboard-response","492","472338","0.0-1.0-687.0","0","0","76997","","null","","","null","76","NaN","","","","","","","","","","","","","","",""
"","S2","","html-keyboard-response","493","472591","0.0-1.0-688.0","0","0","76997","","null","","","null","76","","NaN","","","","","","","","","","","","","",""
"","response","","html-keyboard-response","494","474048","0.0-1.0-689.0-0.0","0","0","76997","","1454","","","75","76","","","2","76","training","adjacent","EF","5","6","L.jpg","P.jpg","1","1","1","",""
"","feedback","","html-keyboard-response","495","475055","0.0-1.0-690.0-0.0","0","0","76997","","null","","","null","76","","","","","","","","","","","","","","","",""
"","ITI","","html-keyboard-response","496","476059","0.0-1.0-693.0","0","0","76997","","null","","","null","76","","","","","","","","","","","","","","","NaN",""
"","S1","","html-keyboard-response","497","476314","0.0-1.0-695.0","0","0","76997","","null","","","null","77","","","","","","","","","","","","","","","",""
"","ISI","","html-keyboard-response","498","477318","0.0-1.0-696.0","0","0","76997","","null","","","null","77","NaN","","","","","","","","","","","","","","",""
"","S2","","html-keyboard-response","499","477571","0.0-1.0-697.0","0","0","76997","","null","","","null","77","","NaN","","","","","","","","","","","","","",""
"","response","","html-keyboard-response","500","479160","0.0-1.0-698.0-0.0","0","0","76997","","1586","","","75","77","","","2","77","training","adjacent","DE","4","5","O.jpg","L.jpg","1","1","1","",""
"","feedback","","html-keyboard-response","501","480164","0.0-1.0-699.0-0.0","0","0","76997","","null","","","null","77","","","","","","","","","","","","","","","",""
"","ITI","","html-keyboard-response","502","481171","0.0-1.0-702.0","0","0","76997","","null","","","null","77","","","","","","","","","","","","","","","NaN",""
"","S1","","html-keyboard-response","503","481426","0.0-1.0-704.0","0","0","76997","","null","","","null","78","","","","","","","","","","","","","","","",""
"","ISI","","html-keyboard-response","504","482429","0.0-1.0-705.0","0","0","76997","","null","","","null","78","NaN","","","","","","","","","","","","","","",""
"","S2","","html-keyboard-response","505","482682","0.0-1.0-706.0","0","0","76997","","null","","","null","78","","NaN","","","","","","","","","","","","","",""
"","response","","html-keyboard-response","506","483034","0.0-1.0-707.0-0.0","0","0","76997","","348","","","68","78","","","2","78","training","adjacent","BA","2","1","Q.jpg","R.jpg","0","0","1","",""
"","feedback","","html-keyboard-response","507","484039","0.0-1.0-708.0-0.0","0","0","76997","","null","","","null","78","","","","","","","","","","","","","","","",""
"","ITI","","html-keyboard-response","508","485043","0.0-1.0-711.0","0","0","76997","","null","","","null","78","","","","","","","","","","","","","","","NaN",""
"","S1","","html-keyboard-response","509","485298","0.0-1.0-713.0","0","0","76997","","null","","","null","79","","","","","","","","","","","","","","","",""
"","ISI","","html-keyboard-response","510","486302","0.0-1.0-714.0","0","0","76997","","null","","","null","79","NaN","","","","","","","","","","","","","","",""
"","S2","","html-keyboard-response","511","486556","0.0-1.0-715.0","0","0","76997","","null","","","null","79","","NaN","","","","","","","","","","","","","",""
"","response","","html-keyboard-response","512","487143","0.0-1.0-716.0-0.0","0","0","76997","","584","","","68","79","","","2","79","training","adjacent","DC","4","3","O.jpg","N.jpg","0","0","1","",""
"","feedback","","html-keyboard-response","513","488146","0.0-1.0-717.0-0.0","0","0","76997","","null","","","null","79","","","","","","","","","","","","","","","",""
"","ITI","","html-keyboard-response","514","489151","0.0-1.0-720.0","0","0","76997","","null","","","null","79","","","","","","","","","","","","","","","NaN",""
"","S1","","html-keyboard-response","515","489404","0.0-1.0-722.0","0","0","76997","","null","","","null","80","","","","","","","","","","","","","","","",""
"","ISI","","html-keyboard-response","516","490407","0.0-1.0-723.0","0","0","76997","","null","","","null","80","NaN","","","","","","","","","","","","","","",""
"","S2","","html-keyboard-response","517","490662","0.0-1.0-724.0","0","0","76997","","null","","","null","80","","NaN","","","","","","","","","","","","","",""
"","response","","html-keyboard-response","518","491880","0.0-1.0-725.0-0.0","0","0","76997","","1214","","","68","80","","","2","80","training","adjacent","ED","5","4","L.jpg","O.jpg","0","0","1","",""
"","feedback","","html-keyboard-response","519","492893","0.0-1.0-726.0-0.0","0","0","76997","","null","","","null","80","","","","","","","","","","","","","","","",""
"","ITI","","html-keyboard-response","520","493897","0.0-1.0-729.0","0","0","76997","","null","","","null","80","","","","","","","","","","","","","","","NaN",""
"","S1","","html-keyboard-response","521","494152","0.0-1.0-731.0","0","0","76997","","null","","","null","81","","","","","","","","","","","","","","","",""
"","ISI","","html-keyboard-response","522","495158","0.0-1.0-732.0","0","0","76997","","null","","","null","81","NaN","","","","","","","","","","","","","","",""
"","S2","","html-keyboard-response","523","495417","0.0-1.0-733.0","0","0","76997","","null","","","null","81","","NaN","","","","","","","","","","","","","",""
"","response","","html-keyboard-response","524","495615","0.0-1.0-734.0-0.0","0","0","76997","","194","","","75","81","","","2","81","training","adjacent","AB","1","2","R.jpg","Q.jpg","1","1","1","",""
"","feedback","","html-keyboard-response","525","496630","0.0-1.0-735.0-0.0","0","0","76997","","null","","","null","81","","","","","","","","","","","","","","","",""
"","ITI","","html-keyboard-response","526","497633","0.0-1.0-738.0","0","0","76997","","null","","","null","81","","","","","","","","","","","","","","","NaN",""
"","S1","","html-keyboard-response","527","497887","0.0-1.0-740.0","0","0","76997","","null","","","null","82","","","","","","","","","","","","","","","",""
"","ISI","","html-keyboard-response","528","498890","0.0-1.0-741.0","0","0","76997","","null","","","null","82","NaN","","","","","","","","","","","","","","",""
"","S2","","html-keyboard-response","529","499145","0.0-1.0-742.0","0","0","76997","","null","","","null","82","","NaN","","","","","","","","","","","","","",""
"","response","","html-keyboard-response","530","499983","0.0-1.0-743.0-0.0","0","0","76997","","835","","","75","82","","","2","82","training","adjacent","FG","6","7","P.jpg","M.jpg","1","1","1","",""
"","feedback","","html-keyboard-response","531","500986","0.0-1.0-744.0-0.0","0","0","76997","","null","","","null","82","","","","","","","","","","","","","","","",""
"","ITI","","html-keyboard-response","532","501989","0.0-1.0-747.0","0","0","76997","","null","","","null","82","","","","","","","","","","","","","","","NaN",""
"","S1","","html-keyboard-response","533","502244","0.0-1.0-749.0","0","0","76997","","null","","","null","83","","","","","","","","","","","","","","","",""
"","ISI","","html-keyboard-response","534","503247","0.0-1.0-750.0","0","0","76997","","null","","","null","83","NaN","","","","","","","","","","","","","","",""
"","S2","","html-keyboard-response","535","503499","0.0-1.0-751.0","0","0","76997","","null","","","null","83","","NaN","","","","","","","","","","","","","",""
"","response","","html-keyboard-response","536","504258","0.0-1.0-752.0-0.0","0","0","76997","","755","","","68","83","","","2","83","training","adjacent","GF","7","6","M.jpg","P.jpg","0","0","1","",""
"","feedback","","html-keyboard-response","537","505263","0.0-1.0-753.0-0.0","0","0","76997","","null","","","null","83","","","","","","","","","","","","","","","",""
"","ITI","","html-keyboard-response","538","506268","0.0-1.0-756.0","0","0","76997","","null","","","null","83","","","","","","","","","","","","","","","NaN",""
"","S1","","html-keyboard-response","539","506522","0.0-1.0-758.0","0","0","76997","","null","","","null","84","","","","","","","","","","","","","","","",""
"","ISI","","html-keyboard-response","540","507524","0.0-1.0-759.0","0","0","76997","","null","","","null","84","NaN","","","","","","","","","","","","","","",""
"","S2","","html-keyboard-response","541","507877","0.0-1.0-760.0","0","0","76997","","null","","","null","84","","NaN","","","","","","","","","","","","","",""
"","response","","html-keyboard-response","542","508695","0.0-1.0-761.0-0.0","0","0","76997","","815","","","68","84","","","2","84","training","adjacent","FE","6","5","P.jpg","L.jpg","0","0","1","",""
"","feedback","","html-keyboard-response","543","509698","0.0-1.0-762.0-0.0","0","0","76997","","null","","","null","84","","","","","","","","","","","","","","","",""
"","ITI","","html-keyboard-response","544","510710","0.0-1.0-765.0","0","0","76997","","null","","","null","84","","","","","","","","","","","","","","","NaN",""
"","S1","","html-keyboard-response","545","510965","0.0-1.0-767.0","0","0","76997","","null","","","null","85","","","","","","","","","","","","","","","",""
"","ISI","","html-keyboard-response","546","511969","0.0-1.0-768.0","0","0","76997","","null","","","null","85","NaN","","","","","","","","","","","","","","",""
"","S2","","html-keyboard-response","547","512225","0.0-1.0-769.0","0","0","76997","","null","","","null","85","","NaN","","","","","","","","","","","","","",""
"","response","","html-keyboard-response","548","512647","0.0-1.0-770.0-0.0","0","0","76997","","418","","","68","85","","","2","85","training","adjacent","CB","3","2","N.jpg","Q.jpg","0","0","1","",""
"","feedback","","html-keyboard-response","549","513654","0.0-1.0-771.0-0.0","0","0","76997","","null","","","null","85","","","","","","","","","","","","","","","",""
"","ITI","","html-keyboard-response","550","514659","0.0-1.0-774.0","0","0","76997","","null","","","null","85","","","","","","","","","","","","","","","NaN",""
"","S1","","html-keyboard-response","551","514914","0.0-1.0-776.0","0","0","76997","","null","","","null","86","","","","","","","","","","","","","","","",""
"","ISI","","html-keyboard-response","552","515919","0.0-1.0-777.0","0","0","76997","","null","","","null","86","NaN","","","","","","","","","","","","","","",""
"","S2","","html-keyboard-response","553","516174","0.0-1.0-778.0","0","0","76997","","null","","","null","86","","NaN","","","","","","","","","","","","","",""
"","response","","html-keyboard-response","554","517411","0.0-1.0-779.0-0.0","0","0","76997","","1233","","","75","86","","","2","86","training","adjacent","EF","5","6","L.jpg","P.jpg","1","1","1","",""
"","feedback","","html-keyboard-response","555","518416","0.0-1.0-780.0-0.0","0","0","76997","","null","","","null","86","","","","","","","","","","","","","","","",""
"","ITI","","html-keyboard-response","556","519419","0.0-1.0-783.0","0","0","76997","","null","","","null","86","","","","","","","","","","","","","","","NaN",""
"","S1","","html-keyboard-response","557","519672","0.0-1.0-785.0","0","0","76997","","null","","","null","87","","","","","","","","","","","","","","","",""
"","ISI","","html-keyboard-response","558","520678","0.0-1.0-786.0","0","0","76997","","null","","","null","87","NaN","","","","","","","","","","","","","","",""
"","S2","","html-keyboard-response","559","520933","0.0-1.0-787.0","0","0","76997","","null","","","null","87","","NaN","","","","","","","","","","","","","",""
"","response","","html-keyboard-response","560","521264","0.0-1.0-788.0-0.0","0","0","76997","","328","","","68","87","","","2","87","training","adjacent","CB","3","2","N.jpg","Q.jpg","0","0","1","",""
"","feedback","","html-keyboard-response","561","522270","0.0-1.0-789.0-0.0","0","0","76997","","null","","","null","87","","","","","","","","","","","","","","","",""
"","ITI","","html-keyboard-response","562","523277","0.0-1.0-792.0","0","0","76997","","null","","","null","87","","","","","","","","","","","","","","","NaN",""
"","S1","","html-keyboard-response","563","523531","0.0-1.0-794.0","0","0","76997","","null","","","null","88","","","","","","","","","","","","","","","",""
"","ISI","","html-keyboard-response","564","524534","0.0-1.0-795.0","0","0","76997","","null","","","null","88","NaN","","","","","","","","","","","","","","",""
"","S2","","html-keyboard-response","565","524787","0.0-1.0-796.0","0","0","76997","","null","","","null","88","","NaN","","","","","","","","","","","","","",""
"","response","","html-keyboard-response","566","525056","0.0-1.0-797.0-0.0","0","0","76997","","267","","","75","88","","","2","88","training","adjacent","BC","2","3","Q.jpg","N.jpg","1","1","1","",""
"","feedback","","html-keyboard-response","567","526059","0.0-1.0-798.0-0.0","0","0","76997","","null","","","null","88","","","","","","","","","","","","","","","",""
"","ITI","","html-keyboard-response","568","527065","0.0-1.0-801.0","0","0","76997","","null","","","null","88","","","","","","","","","","","","","","","NaN",""
"","S1","","html-keyboard-response","569","527318","0.0-1.0-803.0","0","0","76997","","null","","","null","89","","","","","","","","","","","","","","","",""
"","ISI","","html-keyboard-response","570","528322","0.0-1.0-804.0","0","0","76997","","null","","","null","89","NaN","","","","","","","","","","","","","","",""
"","S2","","html-keyboard-response","571","528575","0.0-1.0-805.0","0","0","76997","","null","","","null","89","","NaN","","","","","","","","","","","","","",""
"","response","","html-keyboard-response","572","529898","0.0-1.0-806.0-0.0","0","0","76997","","1319","","","68","89","","","2","89","training","adjacent","GF","7","6","M.jpg","P.jpg","0","0","1","",""
"","feedback","","html-keyboard-response","573","530905","0.0-1.0-807.0-0.0","0","0","76997","","null","","","null","89","","","","","","","","","","","","","","","",""
"","ITI","","html-keyboard-response","574","531910","0.0-1.0-810.0","0","0","76997","","null","","","null","89","","","","","","","","","","","","","","","NaN",""
"","S1","","html-keyboard-response","575","532168","0.0-1.0-812.0","0","0","76997","","null","","","null","90","","","","","","","","","","","","","","","",""
"","ISI","","html-keyboard-response","576","533174","0.0-1.0-813.0","0","0","76997","","null","","","null","90","NaN","","","","","","","","","","","","","","",""
"","S2","","html-keyboard-response","577","533429","0.0-1.0-814.0","0","0","76997","","null","","","null","90","","NaN","","","","","","","","","","","","","",""
"","response","","html-keyboard-response","578","534039","0.0-1.0-815.0-0.0","0","0","76997","","607","","","75","90","","","2","90","training","adjacent","ED","5","4","L.jpg","O.jpg","1","0","0","",""
"","feedback","","html-keyboard-response","579","535043","0.0-1.0-816.0-0.0","0","0","76997","","null","","","null","90","","","","","","","","","","","","","","","",""
"","time_out","","html-keyboard-response","580","537045","0.0-1.0-818.0-0.0","0","0","76997","","null","","","null","90","","","","","","","","","","","","","","","",""
