"success","ttype","start_time","trial_type","trial_index","time_elapsed","internal_node_id","warning","missed_checkup","PID","view_history","rt","responses","repeat_instructions","key_press","index","keypress_isi","keypress_S2","block","trial_num","phase","group_type","pair_type","S1_stim","S2_stim","S1_img","S2_img","S1_chosen","S1_higher","accuracy","keypress_iti","total_bonus_tally"
"true","full_screen","d04132023hr1418","fullscreen","0","9042","0.0-0.0","0","0","50182","","","","","","","","","","","","","","","","","","","","","",""
"","instructions","","instructions","1","41410","0.0-1.0-0.0-0.0","0","0","50182","[{""page_index"":0,""viewing_time"":4609},{""page_index"":1,""viewing_time"":17691},{""page_index"":2,""viewing_time"":8427},{""page_index"":3,""viewing_time"":1638}]","32366","","","","","","","","","","","","","","","","","","","",""
"","comprehension_check","","survey-multi-choice","2","64103","0.0-1.0-0.0-1.0","0","0","50182","","22690","{""Q0"":""True"",""Q1"":""D"",""Q2"":""Only when the screen 'MAKE A CHOICE' is shown"",""Q3"":""Green mark"",""Q4"":""either D or K""}","1","","","","","","","","","","","","","","","","","",""
"","missed_instruction_checkup","","html-keyboard-response","3","66717","0.0-1.0-0.0-2.0-0.0","0","1","50182","","2612","","","32","","","","","","","","","","","","","","","","",""
"","instructions","","instructions","4","76053","0.0-1.0-0.1-0.1","0","0","50182","[{""page_index"":0,""viewing_time"":1463},{""page_index"":1,""viewing_time"":6709},{""page_index"":2,""viewing_time"":677},{""page_index"":3,""viewing_time"":485}]","9334","","","","","","","","","","","","","","","","","","","",""
"","comprehension_check","","survey-multi-choice","5","88648","0.0-1.0-0.1-1.1","0","0","50182","","12592","{""Q0"":""True"",""Q1"":""D"",""Q2"":""Once the second image appears and while the screen 'MAKE A CHOICE' is shown"",""Q3"":""Green mark"",""Q4"":""either D or K""}","0","","","","","","","","","","","","","","","","","",""
"","start_exp","","html-keyboard-response","6","89736","0.0-1.0-1.0","0","0","50182","","1087","","","32","","","","","","","","","","","","","","","","",""
"","S1","","html-keyboard-response","7","89988","0.0-1.0-2.0","0","0","50182","","null","","","null","0","","","","","","","","","","","","","","","",""
"","ISI","","html-keyboard-response","8","90991","0.0-1.0-3.0","0","0","50182","","null","","","null","0","NaN","","","","","","","","","","","","","","",""
"","S2","","html-keyboard-response","9","91243","0.0-1.0-4.0","0","0","50182","","null","","","null","0","","NaN","","","","","","","","","","","","","",""
"","response","","html-keyboard-response","10","92996","0.0-1.0-5.0-0.0","0","0","50182","","null","","","null","0","","","1","0","training","adjacent","CD","3","4","Q.jpg","L.jpg","NaN","1","0","",""
"","too_slow_prompt","","html-keyboard-response","11","93999","0.0-1.0-7.0-0.0","1","0","50182","","null","","","null","","","","","","","","","","","","","","","","",""
"","time_out","","html-keyboard-response","12","96014","0.0-1.0-8.0-0.0","0","0","50182","","null","","","null","0","","","","","","","","","","","","","","","",""
"","ITI","","html-keyboard-response","13","97018","0.0-1.0-9.0","0","0","50182","","291","","","75","0","","","","","","","","","","","","","","","k",""
"","S1","","html-keyboard-response","14","97280","0.0-1.0-11.0","0","0","50182","","null","","","null","1","","","","","","","","","","","","","","","",""
"","ISI","","html-keyboard-response","15","98296","0.0-1.0-12.0","0","0","50182","","null","","","null","1","NaN","","","","","","","","","","","","","","",""
"","S2","","html-keyboard-response","16","98549","0.0-1.0-13.0","0","0","50182","","null","","","null","1","","NaN","","","","","","","","","","","","","",""
"","response","","html-keyboard-response","17","98826","0.0-1.0-14.0-0.0","0","0","50182","","275","","","75","1","","","1","1","training","adjacent","GF","7","6","O.jpg","M.jpg","0","0","1","",""
"","feedback","","html-keyboard-response","18","99830","0.0-1.0-15.0-0.0","0","0","50182","","null","","","null","1","","","","","","","","","","","","","","","",""
"","ITI","","html-keyboard-response","19","100833","0.0-1.0-18.0","0","0","50182","","null","","","null","1","","","","","","","","","","","","","","","NaN",""
"","S1","","html-keyboard-response","20","101086","0.0-1.0-20.0","0","0","50182","","null","","","null","2","","","","","","","","","","","","","","","",""
"","ISI","","html-keyboard-response","21","102089","0.0-1.0-21.0","0","0","50182","","null","","","null","2","NaN","","","","","","","","","","","","","","",""
"","S2","","html-keyboard-response","22","102342","0.0-1.0-22.0","0","0","50182","","null","","","null","2","","NaN","","","","","","","","","","","","","",""
"","response","","html-keyboard-response","23","102571","0.0-1.0-23.0-0.0","0","0","50182","","228","","","75","2","","","1","2","training","adjacent","CD","3","4","Q.jpg","L.jpg","0","1","0","",""
"","feedback","","html-keyboard-response","24","103574","0.0-1.0-24.0-0.0","0","0","50182","","null","","","null","2","","","","","","","","","","","","","","","",""
"","time_out","","html-keyboard-response","25","105576","0.0-1.0-26.0-0.0","0","0","50182","","null","","","null","2","","","","","","","","","","","","","","","",""
"","ITI","","html-keyboard-response","26","106578","0.0-1.0-27.0","0","0","50182","","null","","","null","2","","","","","","","","","","","","","","","NaN",""
"","S1","","html-keyboard-response","27","106831","0.0-1.0-29.0","0","0","50182","","null","","","null","3","","","","","","","","","","","","","","","",""
"","ISI","","html-keyboard-response","28","107833","0.0-1.0-30.0","0","0","50182","","null","","","null","3","NaN","","","","","","","","","","","","","","",""
"","S2","","html-keyboard-response","29","108086","0.0-1.0-31.0","0","0","50182","","null","","","null","3","","NaN","","","","","","","","","","","","","",""
"","response","","html-keyboard-response","30","108338","0.0-1.0-32.0-0.0","0","0","50182","","251","","","75","3","","","1","3","training","adjacent","CB","3","2","Q.jpg","R.jpg","0","0","1","",""
"","feedback","","html-keyboard-response","31","109342","0.0-1.0-33.0-0.0","0","0","50182","","null","","","null","3","","","","","","","","","","","","","","","",""
"","ITI","","html-keyboard-response","32","110345","0.0-1.0-36.0","0","0","50182","","null","","","null","3","","","","","","","","","","","","","","","NaN",""
"","S1","","html-keyboard-response","33","110597","0.0-1.0-38.0","0","0","50182","","null","","","null","4","","","","","","","","","","","","","","","",""
"","ISI","","html-keyboard-response","34","111607","0.0-1.0-39.0","0","0","50182","","null","","","null","4","NaN","","","","","","","","","","","","","","",""
"","S2","","html-keyboard-response","35","111859","0.0-1.0-40.0","0","0","50182","","null","","","null","4","","NaN","","","","","","","","","","","","","",""
"","response","","html-keyboard-response","36","112497","0.0-1.0-41.0-0.0","0","0","50182","","636","","","75","4","","","1","4","training","adjacent","DE","4","5","L.jpg","P.jpg","0","1","0","",""
"","feedback","","html-keyboard-response","37","113500","0.0-1.0-42.0-0.0","0","0","50182","","null","","","null","4","","","","","","","","","","","","","","","",""
"","time_out","","html-keyboard-response","38","115503","0.0-1.0-44.0-0.0","0","0","50182","","null","","","null","4","","","","","","","","","","","","","","","",""
"","ITI","","html-keyboard-response","39","116506","0.0-1.0-45.0","0","0","50182","","null","","","null","4","","","","","","","","","","","","","","","NaN",""
"","S1","","html-keyboard-response","40","116759","0.0-1.0-47.0","0","0","50182","","null","","","null","5","","","","","","","","","","","","","","","",""
"","ISI","","html-keyboard-response","41","117762","0.0-1.0-48.0","0","0","50182","","null","","","null","5","NaN","","","","","","","","","","","","","","",""
"","S2","","html-keyboard-response","42","118015","0.0-1.0-49.0","0","0","50182","","null","","","null","5","","NaN","","","","","","","","","","","","","",""
"","response","","html-keyboard-response","43","118416","0.0-1.0-50.0-0.0","0","0","50182","","399","","","68","5","","","1","5","training","adjacent","FE","6","5","M.jpg","P.jpg","1","0","0","",""
"","feedback","","html-keyboard-response","44","119418","0.0-1.0-51.0-0.0","0","0","50182","","null","","","null","5","","","","","","","","","","","","","","","",""
"","time_out","","html-keyboard-response","45","121421","0.0-1.0-53.0-0.0","0","0","50182","","null","","","null","5","","","","","","","","","","","","","","","",""
"","ITI","","html-keyboard-response","46","122424","0.0-1.0-54.0","0","0","50182","","null","","","null","5","","","","","","","","","","","","","","","NaN",""
"","S1","","html-keyboard-response","47","122677","0.0-1.0-56.0","0","0","50182","","null","","","null","6","","","","","","","","","","","","","","","",""
"","ISI","","html-keyboard-response","48","123680","0.0-1.0-57.0","0","0","50182","","null","","","null","6","NaN","","","","","","","","","","","","","","",""
"","S2","","html-keyboard-response","49","123932","0.0-1.0-58.0","0","0","50182","","null","","","null","6","","NaN","","","","","","","","","","","","","",""
"","response","","html-keyboard-response","50","124814","0.0-1.0-59.0-0.0","0","0","50182","","879","","","68","6","","","1","6","training","adjacent","DC","4","3","L.jpg","Q.jpg","1","0","0","",""
"","feedback","","html-keyboard-response","51","125817","0.0-1.0-60.0-0.0","0","0","50182","","null","","","null","6","","","","","","","","","","","","","","","",""
"","time_out","","html-keyboard-response","52","127819","0.0-1.0-62.0-0.0","0","0","50182","","null","","","null","6","","","","","","","","","","","","","","","",""
"","ITI","","html-keyboard-response","53","128822","0.0-1.0-63.0","0","0","50182","","null","","","null","6","","","","","","","","","","","","","","","NaN",""
"","S1","","html-keyboard-response","54","129074","0.0-1.0-65.0","0","0","50182","","null","","","null","7","","","","","","","","","","","","","","","",""
"","ISI","","html-keyboard-response","55","130077","0.0-1.0-66.0","0","0","50182","","null","","","null","7","NaN","","","","","","","","","","","","","","",""
"","S2","","html-keyboard-response","56","130330","0.0-1.0-67.0","0","0","50182","","null","","","null","7","","NaN","","","","","","","","","","","","","",""
"","response","","html-keyboard-response","57","130790","0.0-1.0-68.0-0.0","0","0","50182","","459","","","75","7","","","1","7","training","adjacent","EF","5","6","P.jpg","M.jpg","0","1","0","",""
"","feedback","","html-keyboard-response","58","131793","0.0-1.0-69.0-0.0","0","0","50182","","null","","","null","7","","","","","","","","","","","","","","","",""
"","time_out","","html-keyboard-response","59","133795","0.0-1.0-71.0-0.0","0","0","50182","","null","","","null","7","","","","","","","","","","","","","","","",""
"","ITI","","html-keyboard-response","60","134796","0.0-1.0-72.0","0","0","50182","","null","","","null","7","","","","","","","","","","","","","","","NaN",""
"","S1","","html-keyboard-response","61","135049","0.0-1.0-74.0","0","0","50182","","null","","","null","8","","","","","","","","","","","","","","","",""
"","ISI","","html-keyboard-response","62","136052","0.0-1.0-75.0","0","0","50182","","null","","","null","8","NaN","","","","","","","","","","","","","","",""
"","S2","","html-keyboard-response","63","136305","0.0-1.0-76.0","0","0","50182","","null","","","null","8","","NaN","","","","","","","","","","","","","",""
"","response","","html-keyboard-response","64","137144","0.0-1.0-77.0-0.0","0","0","50182","","838","","","68","8","","","1","8","training","adjacent","AB","1","2","N.jpg","R.jpg","1","1","1","",""
"","feedback","","html-keyboard-response","65","138146","0.0-1.0-78.0-0.0","0","0","50182","","null","","","null","8","","","","","","","","","","","","","","","",""
"","ITI","","html-keyboard-response","66","139149","0.0-1.0-81.0","0","0","50182","","null","","","null","8","","","","","","","","","","","","","","","NaN",""
"","S1","","html-keyboard-response","67","139402","0.0-1.0-83.0","0","0","50182","","null","","","null","9","","","","","","","","","","","","","","","",""
"","ISI","","html-keyboard-response","68","140404","0.0-1.0-84.0","0","0","50182","","null","","","null","9","NaN","","","","","","","","","","","","","","",""
"","S2","","html-keyboard-response","69","140657","0.0-1.0-85.0","0","0","50182","","null","","","null","9","","NaN","","","","","","","","","","","","","",""
"","response","","html-keyboard-response","70","140961","0.0-1.0-86.0-0.0","0","0","50182","","303","","","75","9","","","1","9","training","adjacent","FG","6","7","M.jpg","O.jpg","0","1","0","",""
"","feedback","","html-keyboard-response","71","141964","0.0-1.0-87.0-0.0","0","0","50182","","null","","","null","9","","","","","","","","","","","","","","","",""
"","time_out","","html-keyboard-response","72","143966","0.0-1.0-89.0-0.0","0","0","50182","","null","","","null","9","","","","","","","","","","","","","","","",""
"","ITI","","html-keyboard-response","73","144968","0.0-1.0-90.0","0","0","50182","","null","","","null","9","","","","","","","","","","","","","","","NaN",""
"","S1","","html-keyboard-response","74","145222","0.0-1.0-92.0","0","0","50182","","null","","","null","10","","","","","","","","","","","","","","","",""
"","ISI","","html-keyboard-response","75","146225","0.0-1.0-93.0","0","0","50182","","null","","","null","10","NaN","","","","","","","","","","","","","","",""
"","S2","","html-keyboard-response","76","146478","0.0-1.0-94.0","0","0","50182","","null","","","null","10","","NaN","","","","","","","","","","","","","",""
"","response","","html-keyboard-response","77","147573","0.0-1.0-95.0-0.0","0","0","50182","","1094","","","75","10","","","1","10","training","adjacent","DC","4","3","L.jpg","Q.jpg","0","0","1","",""
"","feedback","","html-keyboard-response","78","148575","0.0-1.0-96.0-0.0","0","0","50182","","null","","","null","10","","","","","","","","","","","","","","","",""
"","ITI","","html-keyboard-response","79","149578","0.0-1.0-99.0","0","0","50182","","null","","","null","10","","","","","","","","","","","","","","","NaN",""
"","S1","","html-keyboard-response","80","149831","0.0-1.0-101.0","0","0","50182","","null","","","null","11","","","","","","","","","","","","","","","",""
"","ISI","","html-keyboard-response","81","150833","0.0-1.0-102.0","0","0","50182","","null","","","null","11","NaN","","","","","","","","","","","","","","",""
"","S2","","html-keyboard-response","82","151086","0.0-1.0-103.0","0","0","50182","","null","","","null","11","","NaN","","","","","","","","","","","","","",""
"","response","","html-keyboard-response","83","152136","0.0-1.0-104.0-0.0","0","0","50182","","1049","","","68","11","","","1","11","training","adjacent","BA","2","1","R.jpg","N.jpg","1","0","0","",""
"","feedback","","html-keyboard-response","84","153139","0.0-1.0-105.0-0.0","0","0","50182","","null","","","null","11","","","","","","","","","","","","","","","",""
"","time_out","","html-keyboard-response","85","155142","0.0-1.0-107.0-0.0","0","0","50182","","null","","","null","11","","","","","","","","","","","","","","","",""
"","ITI","","html-keyboard-response","86","156144","0.0-1.0-108.0","0","0","50182","","null","","","null","11","","","","","","","","","","","","","","","NaN",""
"","S1","","html-keyboard-response","87","156397","0.0-1.0-110.0","0","0","50182","","null","","","null","12","","","","","","","","","","","","","","","",""
"","ISI","","html-keyboard-response","88","157401","0.0-1.0-111.0","0","0","50182","","null","","","null","12","NaN","","","","","","","","","","","","","","",""
"","S2","","html-keyboard-response","89","157654","0.0-1.0-112.0","0","0","50182","","null","","","null","12","","NaN","","","","","","","","","","","","","",""
"","response","","html-keyboard-response","90","158798","0.0-1.0-113.0-0.0","0","0","50182","","1141","","","68","12","","","1","12","training","adjacent","GF","7","6","O.jpg","M.jpg","1","0","0","",""
"","feedback","","html-keyboard-response","91","159801","0.0-1.0-114.0-0.0","0","0","50182","","null","","","null","12","","","","","","","","","","","","","","","",""
"","time_out","","html-keyboard-response","92","161803","0.0-1.0-116.0-0.0","0","0","50182","","null","","","null","12","","","","","","","","","","","","","","","",""
"","ITI","","html-keyboard-response","93","162806","0.0-1.0-117.0","0","0","50182","","null","","","null","12","","","","","","","","","","","","","","","NaN",""
"","S1","","html-keyboard-response","94","163058","0.0-1.0-119.0","0","0","50182","","null","","","null","13","","","","","","","","","","","","","","","",""
"","ISI","","html-keyboard-response","95","164061","0.0-1.0-120.0","0","0","50182","","null","","","null","13","NaN","","","","","","","","","","","","","","",""
"","S2","","html-keyboard-response","96","164313","0.0-1.0-121.0","0","0","50182","","null","","","null","13","","NaN","","","","","","","","","","","","","",""
"","response","","html-keyboard-response","97","164820","0.0-1.0-122.0-0.0","0","0","50182","","506","","","75","13","","","1","13","training","adjacent","BC","2","3","R.jpg","Q.jpg","0","1","0","",""
"","feedback","","html-keyboard-response","98","165823","0.0-1.0-123.0-0.0","0","0","50182","","null","","","null","13","","","","","","","","","","","","","","","",""
"","time_out","","html-keyboard-response","99","167825","0.0-1.0-125.0-0.0","0","0","50182","","null","","","null","13","","","","","","","","","","","","","","","",""
"","ITI","","html-keyboard-response","100","168828","0.0-1.0-126.0","0","0","50182","","null","","","null","13","","","","","","","","","","","","","","","NaN",""
"","S1","","html-keyboard-response","101","169081","0.0-1.0-128.0","0","0","50182","","null","","","null","14","","","","","","","","","","","","","","","",""
"","ISI","","html-keyboard-response","102","170084","0.0-1.0-129.0","0","0","50182","","null","","","null","14","NaN","","","","","","","","","","","","","","",""
"","S2","","html-keyboard-response","103","170336","0.0-1.0-130.0","0","0","50182","","null","","","null","14","","NaN","","","","","","","","","","","","","",""
"","response","","html-keyboard-response","104","170354","0.0-1.0-131.0-0.0","0","0","50182","","17","","","68","14","","","1","14","training","adjacent","BA","2","1","R.jpg","N.jpg","1","0","0","",""
"","feedback","","html-keyboard-response","105","171357","0.0-1.0-132.0-0.0","0","0","50182","","null","","","null","14","","","","","","","","","","","","","","","",""
"","time_out","","html-keyboard-response","106","173359","0.0-1.0-134.0-0.0","0","0","50182","","null","","","null","14","","","","","","","","","","","","","","","",""
"","ITI","","html-keyboard-response","107","174362","0.0-1.0-135.0","0","0","50182","","null","","","null","14","","","","","","","","","","","","","","","NaN",""
"","S1","","html-keyboard-response","108","174614","0.0-1.0-137.0","0","0","50182","","null","","","null","15","","","","","","","","","","","","","","","",""
"","ISI","","html-keyboard-response","109","175617","0.0-1.0-138.0","0","0","50182","","null","","","null","15","NaN","","","","","","","","","","","","","","",""
"","S2","","html-keyboard-response","110","175871","0.0-1.0-139.0","0","0","50182","","null","","","null","15","","NaN","","","","","","","","","","","","","",""
"","response","","html-keyboard-response","111","176415","0.0-1.0-140.0-0.0","0","0","50182","","543","","","68","15","","","1","15","training","adjacent","CB","3","2","Q.jpg","R.jpg","1","0","0","",""
"","feedback","","html-keyboard-response","112","177418","0.0-1.0-141.0-0.0","0","0","50182","","null","","","null","15","","","","","","","","","","","","","","","",""
"","time_out","","html-keyboard-response","113","179421","0.0-1.0-143.0-0.0","0","0","50182","","null","","","null","15","","","","","","","","","","","","","","","",""
"","ITI","","html-keyboard-response","114","180423","0.0-1.0-144.0","0","0","50182","","null","","","null","15","","","","","","","","","","","","","","","NaN",""
"","S1","","html-keyboard-response","115","180675","0.0-1.0-146.0","0","0","50182","","null","","","null","16","","","","","","","","","","","","","","","",""
"","ISI","","html-keyboard-response","116","181678","0.0-1.0-147.0","0","0","50182","","null","","","null","16","NaN","","","","","","","","","","","","","","",""
"","S2","","html-keyboard-response","117","181931","0.0-1.0-148.0","0","0","50182","","null","","","null","16","","NaN","","","","","","","","","","","","","",""
"","response","","html-keyboard-response","118","182459","0.0-1.0-149.0-0.0","0","0","50182","","526","","","68","16","","","1","16","training","adjacent","CB","3","2","Q.jpg","R.jpg","1","0","0","",""
"","feedback","","html-keyboard-response","119","183462","0.0-1.0-150.0-0.0","0","0","50182","","null","","","null","16","","","","","","","","","","","","","","","",""
"","time_out","","html-keyboard-response","120","185465","0.0-1.0-152.0-0.0","0","0","50182","","null","","","null","16","","","","","","","","","","","","","","","",""
"","ITI","","html-keyboard-response","121","186468","0.0-1.0-153.0","0","0","50182","","null","","","null","16","","","","","","","","","","","","","","","NaN",""
"","S1","","html-keyboard-response","122","186721","0.0-1.0-155.0","0","0","50182","","null","","","null","17","","","","","","","","","","","","","","","",""
"","ISI","","html-keyboard-response","123","187723","0.0-1.0-156.0","0","0","50182","","null","","","null","17","NaN","","","","","","","","","","","","","","",""
"","S2","","html-keyboard-response","124","187976","0.0-1.0-157.0","0","0","50182","","null","","","null","17","","NaN","","","","","","","","","","","","","",""
"","response","","html-keyboard-response","125","188559","0.0-1.0-158.0-0.0","0","0","50182","","581","","","68","17","","","1","17","training","adjacent","ED","5","4","P.jpg","L.jpg","1","0","0","",""
"","feedback","","html-keyboard-response","126","189562","0.0-1.0-159.0-0.0","0","0","50182","","null","","","null","17","","","","","","","","","","","","","","","",""
"","time_out","","html-keyboard-response","127","191564","0.0-1.0-161.0-0.0","0","0","50182","","null","","","null","17","","","","","","","","","","","","","","","",""
"","ITI","","html-keyboard-response","128","192566","0.0-1.0-162.0","0","0","50182","","null","","","null","17","","","","","","","","","","","","","","","NaN",""
"","S1","","html-keyboard-response","129","192819","0.0-1.0-164.0","0","0","50182","","null","","","null","18","","","","","","","","","","","","","","","",""
"","ISI","","html-keyboard-response","130","193822","0.0-1.0-165.0","0","0","50182","","null","","","null","18","NaN","","","","","","","","","","","","","","",""
"","S2","","html-keyboard-response","131","194075","0.0-1.0-166.0","0","0","50182","","null","","","null","18","","NaN","","","","","","","","","","","","","",""
"","response","","html-keyboard-response","132","194600","0.0-1.0-167.0-0.0","0","0","50182","","523","","","68","18","","","1","18","training","adjacent","EF","5","6","P.jpg","M.jpg","1","1","1","",""
"","feedback","","html-keyboard-response","133","195602","0.0-1.0-168.0-0.0","0","0","50182","","null","","","null","18","","","","","","","","","","","","","","","",""
"","ITI","","html-keyboard-response","134","196604","0.0-1.0-171.0","0","0","50182","","null","","","null","18","","","","","","","","","","","","","","","NaN",""
"","S1","","html-keyboard-response","135","196856","0.0-1.0-173.0","0","0","50182","","null","","","null","19","","","","","","","","","","","","","","","",""
"","ISI","","html-keyboard-response","136","197864","0.0-1.0-174.0","0","0","50182","","null","","","null","19","NaN","","","","","","","","","","","","","","",""
"","S2","","html-keyboard-response","137","198118","0.0-1.0-175.0","0","0","50182","","null","","","null","19","","NaN","","","","","","","","","","","","","",""
"","response","","html-keyboard-response","138","198663","0.0-1.0-176.0-0.0","0","0","50182","","543","","","68","19","","","1","19","training","adjacent","GF","7","6","O.jpg","M.jpg","1","0","0","",""
"","feedback","","html-keyboard-response","139","199666","0.0-1.0-177.0-0.0","0","0","50182","","null","","","null","19","","","","","","","","","","","","","","","",""
"","time_out","","html-keyboard-response","140","201669","0.0-1.0-179.0-0.0","0","0","50182","","null","","","null","19","","","","","","","","","","","","","","","",""
"","ITI","","html-keyboard-response","141","202672","0.0-1.0-180.0","0","0","50182","","null","","","null","19","","","","","","","","","","","","","","","NaN",""
"","S1","","html-keyboard-response","142","202924","0.0-1.0-182.0","0","0","50182","","null","","","null","20","","","","","","","","","","","","","","","",""
"","ISI","","html-keyboard-response","143","203927","0.0-1.0-183.0","0","0","50182","","null","","","null","20","NaN","","","","","","","","","","","","","","",""
"","S2","","html-keyboard-response","144","204194","0.0-1.0-184.0","0","0","50182","","null","","","null","20","","NaN","","","","","","","","","","","","","",""
"","response","","html-keyboard-response","145","204670","0.0-1.0-185.0-0.0","0","0","50182","","475","","","68","20","","","1","20","training","adjacent","DE","4","5","L.jpg","P.jpg","1","1","1","",""
"","feedback","","html-keyboard-response","146","205672","0.0-1.0-186.0-0.0","0","0","50182","","null","","","null","20","","","","","","","","","","","","","","","",""
"","ITI","","html-keyboard-response","147","206675","0.0-1.0-189.0","0","0","50182","","null","","","null","20","","","","","","","","","","","","","","","NaN",""
"","S1","","html-keyboard-response","148","206927","0.0-1.0-191.0","0","0","50182","","null","","","null","21","","","","","","","","","","","","","","","",""
"","ISI","","html-keyboard-response","149","207930","0.0-1.0-192.0","0","0","50182","","null","","","null","21","NaN","","","","","","","","","","","","","","",""
"","S2","","html-keyboard-response","150","208183","0.0-1.0-193.0","0","0","50182","","null","","","null","21","","NaN","","","","","","","","","","","","","",""
"","response","","html-keyboard-response","151","208984","0.0-1.0-194.0-0.0","0","0","50182","","800","","","75","21","","","1","21","training","adjacent","BC","2","3","R.jpg","Q.jpg","0","1","0","",""
"","feedback","","html-keyboard-response","152","209986","0.0-1.0-195.0-0.0","0","0","50182","","null","","","null","21","","","","","","","","","","","","","","","",""
"","time_out","","html-keyboard-response","153","211989","0.0-1.0-197.0-0.0","0","0","50182","","null","","","null","21","","","","","","","","","","","","","","","",""
"","ITI","","html-keyboard-response","154","212992","0.0-1.0-198.0","0","0","50182","","null","","","null","21","","","","","","","","","","","","","","","NaN",""
"","S1","","html-keyboard-response","155","213244","0.0-1.0-200.0","0","0","50182","","null","","","null","22","","","","","","","","","","","","","","","",""
"","ISI","","html-keyboard-response","156","214246","0.0-1.0-201.0","0","0","50182","","null","","","null","22","NaN","","","","","","","","","","","","","","",""
"","S2","","html-keyboard-response","157","214508","0.0-1.0-202.0","0","0","50182","","null","","","null","22","","NaN","","","","","","","","","","","","","",""
"","response","","html-keyboard-response","158","216035","0.0-1.0-203.0-0.0","0","0","50182","","1525","","","68","22","","","1","22","training","adjacent","ED","5","4","P.jpg","L.jpg","1","0","0","",""
"","feedback","","html-keyboard-response","159","217038","0.0-1.0-204.0-0.0","0","0","50182","","null","","","null","22","","","","","","","","","","","","","","","",""
"","time_out","","html-keyboard-response","160","219041","0.0-1.0-206.0-0.0","0","0","50182","","null","","","null","22","","","","","","","","","","","","","","","",""
"","ITI","","html-keyboard-response","161","220044","0.0-1.0-207.0","0","0","50182","","null","","","null","22","","","","","","","","","","","","","","","NaN",""
"","S1","","html-keyboard-response","162","220297","0.0-1.0-209.0","0","0","50182","","null","","","null","23","","","","","","","","","","","","","","","",""
"","ISI","","html-keyboard-response","163","221300","0.0-1.0-210.0","0","0","50182","","null","","","null","23","NaN","","","","","","","","","","","","","","",""
"","S2","","html-keyboard-response","164","221552","0.0-1.0-211.0","0","0","50182","","null","","","null","23","","NaN","","","","","","","","","","","","","",""
"","response","","html-keyboard-response","165","221560","0.0-1.0-212.0-0.0","0","0","50182","","7","","","75","23","","","1","23","training","adjacent","ED","5","4","P.jpg","L.jpg","0","0","1","",""
"","feedback","","html-keyboard-response","166","222562","0.0-1.0-213.0-0.0","0","0","50182","","null","","","null","23","","","","","","","","","","","","","","","",""
"","ITI","","html-keyboard-response","167","223564","0.0-1.0-216.0","0","0","50182","","null","","","null","23","","","","","","","","","","","","","","","NaN",""
"","S1","","html-keyboard-response","168","223817","0.0-1.0-218.0","0","0","50182","","null","","","null","24","","","","","","","","","","","","","","","",""
"","ISI","","html-keyboard-response","169","224821","0.0-1.0-219.0","0","0","50182","","null","","","null","24","NaN","","","","","","","","","","","","","","",""
"","S2","","html-keyboard-response","170","225073","0.0-1.0-220.0","0","0","50182","","null","","","null","24","","NaN","","","","","","","","","","","","","",""
"","response","","html-keyboard-response","171","226333","0.0-1.0-221.0-0.0","0","0","50182","","1259","","","75","24","","","1","24","training","adjacent","FE","6","5","M.jpg","P.jpg","0","0","1","",""
"","feedback","","html-keyboard-response","172","227336","0.0-1.0-222.0-0.0","0","0","50182","","null","","","null","24","","","","","","","","","","","","","","","",""
"","ITI","","html-keyboard-response","173","228339","0.0-1.0-225.0","0","0","50182","","null","","","null","24","","","","","","","","","","","","","","","NaN",""
"","S1","","html-keyboard-response","174","228592","0.0-1.0-227.0","0","0","50182","","null","","","null","25","","","","","","","","","","","","","","","",""
"","ISI","","html-keyboard-response","175","229594","0.0-1.0-228.0","0","0","50182","","null","","","null","25","NaN","","","","","","","","","","","","","","",""
"","S2","","html-keyboard-response","176","229847","0.0-1.0-229.0","0","0","50182","","null","","","null","25","","NaN","","","","","","","","","","","","","",""
"","response","","html-keyboard-response","177","229991","0.0-1.0-230.0-0.0","0","0","50182","","142","","","75","25","","","1","25","training","adjacent","CD","3","4","Q.jpg","L.jpg","0","1","0","",""
"","feedback","","html-keyboard-response","178","230994","0.0-1.0-231.0-0.0","0","0","50182","","null","","","null","25","","","","","","","","","","","","","","","",""
"","time_out","","html-keyboard-response","179","232996","0.0-1.0-233.0-0.0","0","0","50182","","null","","","null","25","","","","","","","","","","","","","","","",""
"","ITI","","html-keyboard-response","180","233998","0.0-1.0-234.0","0","0","50182","","null","","","null","25","","","","","","","","","","","","","","","NaN",""
"","S1","","html-keyboard-response","181","234251","0.0-1.0-236.0","0","0","50182","","null","","","null","26","","","","","","","","","","","","","","","",""
"","ISI","","html-keyboard-response","182","235253","0.0-1.0-237.0","0","0","50182","","null","","","null","26","NaN","","","","","","","","","","","","","","",""
"","S2","","html-keyboard-response","183","235507","0.0-1.0-238.0","0","0","50182","","null","","","null","26","","NaN","","","","","","","","","","","","","",""
"","response","","html-keyboard-response","184","237182","0.0-1.0-239.0-0.0","0","0","50182","","1674","","","68","26","","","1","26","training","adjacent","DC","4","3","L.jpg","Q.jpg","1","0","0","",""
"","feedback","","html-keyboard-response","185","238185","0.0-1.0-240.0-0.0","0","0","50182","","null","","","null","26","","","","","","","","","","","","","","","",""
"","time_out","","html-keyboard-response","186","240187","0.0-1.0-242.0-0.0","0","0","50182","","null","","","null","26","","","","","","","","","","","","","","","",""
"","ITI","","html-keyboard-response","187","241189","0.0-1.0-243.0","0","0","50182","","null","","","null","26","","","","","","","","","","","","","","","NaN",""
"","S1","","html-keyboard-response","188","241442","0.0-1.0-245.0","0","0","50182","","null","","","null","27","","","","","","","","","","","","","","","",""
"","ISI","","html-keyboard-response","189","242445","0.0-1.0-246.0","0","0","50182","","null","","","null","27","NaN","","","","","","","","","","","","","","",""
"","S2","","html-keyboard-response","190","242699","0.0-1.0-247.0","0","0","50182","","null","","","null","27","","NaN","","","","","","","","","","","","","",""
"","response","","html-keyboard-response","191","243591","0.0-1.0-248.0-0.0","0","0","50182","","891","","","68","27","","","1","27","training","adjacent","FG","6","7","M.jpg","O.jpg","1","1","1","",""
"","feedback","","html-keyboard-response","192","244594","0.0-1.0-249.0-0.0","0","0","50182","","null","","","null","27","","","","","","","","","","","","","","","",""
"","ITI","","html-keyboard-response","193","245597","0.0-1.0-252.0","0","0","50182","","null","","","null","27","","","","","","","","","","","","","","","NaN",""
"","S1","","html-keyboard-response","194","245849","0.0-1.0-254.0","0","0","50182","","null","","","null","28","","","","","","","","","","","","","","","",""
"","ISI","","html-keyboard-response","195","246852","0.0-1.0-255.0","0","0","50182","","null","","","null","28","NaN","","","","","","","","","","","","","","",""
"","S2","","html-keyboard-response","196","247105","0.0-1.0-256.0","0","0","50182","","null","","","null","28","","NaN","","","","","","","","","","","","","",""
"","response","","html-keyboard-response","197","247834","0.0-1.0-257.0-0.0","0","0","50182","","727","","","68","28","","","1","28","training","adjacent","FG","6","7","M.jpg","O.jpg","1","1","1","",""
"","feedback","","html-keyboard-response","198","248836","0.0-1.0-258.0-0.0","0","0","50182","","null","","","null","28","","","","","","","","","","","","","","","",""
"","ITI","","html-keyboard-response","199","249839","0.0-1.0-261.0","0","0","50182","","null","","","null","28","","","","","","","","","","","","","","","NaN",""
"","S1","","html-keyboard-response","200","250091","0.0-1.0-263.0","0","0","50182","","null","","","null","29","","","","","","","","","","","","","","","",""
"","ISI","","html-keyboard-response","201","251094","0.0-1.0-264.0","0","0","50182","","null","","","null","29","NaN","","","","","","","","","","","","","","",""
"","S2","","html-keyboard-response","202","251346","0.0-1.0-265.0","0","0","50182","","null","","","null","29","","NaN","","","","","","","","","","","","","",""
"","response","","html-keyboard-response","203","252292","0.0-1.0-266.0-0.0","0","0","50182","","945","","","68","29","","","1","29","training","adjacent","DE","4","5","L.jpg","P.jpg","1","1","1","",""
"","feedback","","html-keyboard-response","204","253294","0.0-1.0-267.0-0.0","0","0","50182","","null","","","null","29","","","","","","","","","","","","","","","",""
"","ITI","","html-keyboard-response","205","254298","0.0-1.0-270.0","0","0","50182","","null","","","null","29","","","","","","","","","","","","","","","NaN",""
"","S1","","html-keyboard-response","206","254551","0.0-1.0-272.0","0","0","50182","","null","","","null","30","","","","","","","","","","","","","","","",""
"","ISI","","html-keyboard-response","207","255553","0.0-1.0-273.0","0","0","50182","","null","","","null","30","NaN","","","","","","","","","","","","","","",""
"","S2","","html-keyboard-response","208","255805","0.0-1.0-274.0","0","0","50182","","null","","","null","30","","NaN","","","","","","","","","","","","","",""
"","response","","html-keyboard-response","209","256561","0.0-1.0-275.0-0.0","0","0","50182","","754","","","68","30","","","1","30","training","adjacent","BC","2","3","R.jpg","Q.jpg","1","1","1","",""
"","feedback","","html-keyboard-response","210","257564","0.0-1.0-276.0-0.0","0","0","50182","","null","","","null","30","","","","","","","","","","","","","","","",""
"","ITI","","html-keyboard-response","211","258567","0.0-1.0-279.0","0","0","50182","","null","","","null","30","","","","","","","","","","","","","","","NaN",""
"","S1","","html-keyboard-response","212","258820","0.0-1.0-281.0","0","0","50182","","null","","","null","31","","","","","","","","","","","","","","","",""
"","ISI","","html-keyboard-response","213","259823","0.0-1.0-282.0","0","0","50182","","null","","","null","31","NaN","","","","","","","","","","","","","","",""
"","S2","","html-keyboard-response","214","260075","0.0-1.0-283.0","0","0","50182","","null","","","null","31","","NaN","","","","","","","","","","","","","",""
"","response","","html-keyboard-response","215","260579","0.0-1.0-284.0-0.0","0","0","50182","","502","","","68","31","","","1","31","training","adjacent","AB","1","2","N.jpg","R.jpg","1","1","1","",""
"","feedback","","html-keyboard-response","216","261594","0.0-1.0-285.0-0.0","0","0","50182","","null","","","null","31","","","","","","","","","","","","","","","",""
"","ITI","","html-keyboard-response","217","262597","0.0-1.0-288.0","0","0","50182","","null","","","null","31","","","","","","","","","","","","","","","NaN",""
"","S1","","html-keyboard-response","218","262850","0.0-1.0-290.0","0","0","50182","","null","","","null","32","","","","","","","","","","","","","","","",""
"","ISI","","html-keyboard-response","219","263853","0.0-1.0-291.0","0","0","50182","","null","","","null","32","NaN","","","","","","","","","","","","","","",""
"","S2","","html-keyboard-response","220","264105","0.0-1.0-292.0","0","0","50182","","null","","","null","32","","NaN","","","","","","","","","","","","","",""
"","response","","html-keyboard-response","221","264917","0.0-1.0-293.0-0.0","0","0","50182","","811","","","68","32","","","1","32","training","adjacent","DE","4","5","L.jpg","P.jpg","1","1","1","",""
"","feedback","","html-keyboard-response","222","265920","0.0-1.0-294.0-0.0","0","0","50182","","null","","","null","32","","","","","","","","","","","","","","","",""
"","ITI","","html-keyboard-response","223","266923","0.0-1.0-297.0","0","0","50182","","null","","","null","32","","","","","","","","","","","","","","","NaN",""
"","S1","","html-keyboard-response","224","267175","0.0-1.0-299.0","0","0","50182","","null","","","null","33","","","","","","","","","","","","","","","",""
"","ISI","","html-keyboard-response","225","268177","0.0-1.0-300.0","0","0","50182","","null","","","null","33","NaN","","","","","","","","","","","","","","",""
"","S2","","html-keyboard-response","226","268430","0.0-1.0-301.0","0","0","50182","","null","","","null","33","","NaN","","","","","","","","","","","","","",""
"","response","","html-keyboard-response","227","269116","0.0-1.0-302.0-0.0","0","0","50182","","685","","","68","33","","","1","33","training","adjacent","EF","5","6","P.jpg","M.jpg","1","1","1","",""
"","feedback","","html-keyboard-response","228","270119","0.0-1.0-303.0-0.0","0","0","50182","","null","","","null","33","","","","","","","","","","","","","","","",""
"","ITI","","html-keyboard-response","229","271123","0.0-1.0-306.0","0","0","50182","","null","","","null","33","","","","","","","","","","","","","","","NaN",""
"","S1","","html-keyboard-response","230","271375","0.0-1.0-308.0","0","0","50182","","null","","","null","34","","","","","","","","","","","","","","","",""
"","ISI","","html-keyboard-response","231","272378","0.0-1.0-309.0","0","0","50182","","null","","","null","34","NaN","","","","","","","","","","","","","","",""
"","S2","","html-keyboard-response","232","272631","0.0-1.0-310.0","0","0","50182","","null","","","null","34","","NaN","","","","","","","","","","","","","",""
"","response","","html-keyboard-response","233","272939","0.0-1.0-311.0-0.0","0","0","50182","","307","","","75","34","","","1","34","training","adjacent","BA","2","1","R.jpg","N.jpg","0","0","1","",""
"","feedback","","html-keyboard-response","234","273942","0.0-1.0-312.0-0.0","0","0","50182","","null","","","null","34","","","","","","","","","","","","","","","",""
"","ITI","","html-keyboard-response","235","274945","0.0-1.0-315.0","0","0","50182","","null","","","null","34","","","","","","","","","","","","","","","NaN",""
"","S1","","html-keyboard-response","236","275198","0.0-1.0-317.0","0","0","50182","","null","","","null","35","","","","","","","","","","","","","","","",""
"","ISI","","html-keyboard-response","237","276200","0.0-1.0-318.0","0","0","50182","","null","","","null","35","NaN","","","","","","","","","","","","","","",""
"","S2","","html-keyboard-response","238","276453","0.0-1.0-319.0","0","0","50182","","null","","","null","35","","NaN","","","","","","","","","","","","","",""
"","response","","html-keyboard-response","239","277010","0.0-1.0-320.0-0.0","0","0","50182","","555","","","75","35","","","1","35","training","adjacent","CB","3","2","Q.jpg","R.jpg","0","0","1","",""
"","feedback","","html-keyboard-response","240","278013","0.0-1.0-321.0-0.0","0","0","50182","","null","","","null","35","","","","","","","","","","","","","","","",""
"","ITI","","html-keyboard-response","241","279015","0.0-1.0-324.0","0","0","50182","","null","","","null","35","","","","","","","","","","","","","","","NaN",""
"","S1","","html-keyboard-response","242","279269","0.0-1.0-326.0","0","0","50182","","null","","","null","36","","","","","","","","","","","","","","","",""
"","ISI","","html-keyboard-response","243","280271","0.0-1.0-327.0","0","0","50182","","null","","","null","36","NaN","","","","","","","","","","","","","","",""
"","S2","","html-keyboard-response","244","280524","0.0-1.0-328.0","0","0","50182","","null","","","null","36","","NaN","","","","","","","","","","","","","",""
"","response","","html-keyboard-response","245","280999","0.0-1.0-329.0-0.0","0","0","50182","","474","","","68","36","","","1","36","training","adjacent","FE","6","5","M.jpg","P.jpg","1","0","0","",""
"","feedback","","html-keyboard-response","246","282002","0.0-1.0-330.0-0.0","0","0","50182","","null","","","null","36","","","","","","","","","","","","","","","",""
"","time_out","","html-keyboard-response","247","284004","0.0-1.0-332.0-0.0","0","0","50182","","null","","","null","36","","","","","","","","","","","","","","","",""
"","ITI","","html-keyboard-response","248","285006","0.0-1.0-333.0","0","0","50182","","null","","","null","36","","","","","","","","","","","","","","","NaN",""
"","S1","","html-keyboard-response","249","285259","0.0-1.0-335.0","0","0","50182","","null","","","null","37","","","","","","","","","","","","","","","",""
"","ISI","","html-keyboard-response","250","286262","0.0-1.0-336.0","0","0","50182","","null","","","null","37","NaN","","","","","","","","","","","","","","",""
"","S2","","html-keyboard-response","251","286516","0.0-1.0-337.0","0","0","50182","","null","","","null","37","","NaN","","","","","","","","","","","","","",""
"","response","","html-keyboard-response","252","286537","0.0-1.0-338.0-0.0","0","0","50182","","20","","","75","37","","","1","37","training","adjacent","BC","2","3","R.jpg","Q.jpg","0","1","0","",""
"","feedback","","html-keyboard-response","253","287540","0.0-1.0-339.0-0.0","0","0","50182","","null","","","null","37","","","","","","","","","","","","","","","",""
"","time_out","","html-keyboard-response","254","289542","0.0-1.0-341.0-0.0","0","0","50182","","null","","","null","37","","","","","","","","","","","","","","","",""
"","ITI","","html-keyboard-response","255","290545","0.0-1.0-342.0","0","0","50182","","null","","","null","37","","","","","","","","","","","","","","","NaN",""
"","S1","","html-keyboard-response","256","290798","0.0-1.0-344.0","0","0","50182","","null","","","null","38","","","","","","","","","","","","","","","",""
"","ISI","","html-keyboard-response","257","291802","0.0-1.0-345.0","0","0","50182","","null","","","null","38","NaN","","","","","","","","","","","","","","",""
"","S2","","html-keyboard-response","258","292054","0.0-1.0-346.0","0","0","50182","","null","","","null","38","","NaN","","","","","","","","","","","","","",""
"","response","","html-keyboard-response","259","292668","0.0-1.0-347.0-0.0","0","0","50182","","612","","","68","38","","","1","38","training","adjacent","DC","4","3","L.jpg","Q.jpg","1","0","0","",""
"","feedback","","html-keyboard-response","260","293672","0.0-1.0-348.0-0.0","0","0","50182","","null","","","null","38","","","","","","","","","","","","","","","",""
"","time_out","","html-keyboard-response","261","295674","0.0-1.0-350.0-0.0","0","0","50182","","null","","","null","38","","","","","","","","","","","","","","","",""
"","ITI","","html-keyboard-response","262","296676","0.0-1.0-351.0","0","0","50182","","null","","","null","38","","","","","","","","","","","","","","","NaN",""
"","S1","","html-keyboard-response","263","296929","0.0-1.0-353.0","0","0","50182","","null","","","null","39","","","","","","","","","","","","","","","",""
"","ISI","","html-keyboard-response","264","297931","0.0-1.0-354.0","0","0","50182","","null","","","null","39","NaN","","","","","","","","","","","","","","",""
"","S2","","html-keyboard-response","265","298184","0.0-1.0-355.0","0","0","50182","","null","","","null","39","","NaN","","","","","","","","","","","","","",""
"","response","","html-keyboard-response","266","298687","0.0-1.0-356.0-0.0","0","0","50182","","502","","","75","39","","","1","39","training","adjacent","BA","2","1","R.jpg","N.jpg","0","0","1","",""
"","feedback","","html-keyboard-response","267","299690","0.0-1.0-357.0-0.0","0","0","50182","","null","","","null","39","","","","","","","","","","","","","","","",""
"","ITI","","html-keyboard-response","268","300693","0.0-1.0-360.0","0","0","50182","","null","","","null","39","","","","","","","","","","","","","","","NaN",""
"","S1","","html-keyboard-response","269","300946","0.0-1.0-362.0","0","0","50182","","null","","","null","40","","","","","","","","","","","","","","","",""
"","ISI","","html-keyboard-response","270","301949","0.0-1.0-363.0","0","0","50182","","null","","","null","40","NaN","","","","","","","","","","","","","","",""
"","S2","","html-keyboard-response","271","302200","0.0-1.0-364.0","0","0","50182","","250","","","68","40","","d","1","40","training","adjacent","AB","1","2","N.jpg","R.jpg","1","1","1","",""
"","feedback","","html-keyboard-response","272","303204","0.0-1.0-366.0-0.0","0","0","50182","","null","","","null","40","","","","","","","","","","","","","","","",""
"","ITI","","html-keyboard-response","273","304206","0.0-1.0-369.0","0","0","50182","","null","","","null","40","","","","","","","","","","","","","","","NaN",""
"","S1","","html-keyboard-response","274","304459","0.0-1.0-371.0","0","0","50182","","null","","","null","41","","","","","","","","","","","","","","","",""
"","ISI","","html-keyboard-response","275","305462","0.0-1.0-372.0","0","0","50182","","null","","","null","41","NaN","","","","","","","","","","","","","","",""
"","S2","","html-keyboard-response","276","305688","0.0-1.0-373.0","0","0","50182","","225","","","68","41","","d","1","41","training","adjacent","AB","1","2","N.jpg","R.jpg","1","1","1","",""
"","feedback","","html-keyboard-response","277","306692","0.0-1.0-375.0-0.0","0","0","50182","","null","","","null","41","","","","","","","","","","","","","","","",""
"","ITI","","html-keyboard-response","278","307694","0.0-1.0-378.0","0","0","50182","","null","","","null","41","","","","","","","","","","","","","","","NaN",""
"","S1","","html-keyboard-response","279","307947","0.0-1.0-380.0","0","0","50182","","null","","","null","42","","","","","","","","","","","","","","","",""
"","ISI","","html-keyboard-response","280","308950","0.0-1.0-381.0","0","0","50182","","null","","","null","42","NaN","","","","","","","","","","","","","","",""
"","S2","","html-keyboard-response","281","309202","0.0-1.0-382.0","0","0","50182","","null","","","null","42","","NaN","","","","","","","","","","","","","",""
"","response","","html-keyboard-response","282","309829","0.0-1.0-383.0-0.0","0","0","50182","","625","","","75","42","","","1","42","training","adjacent","GF","7","6","O.jpg","M.jpg","0","0","1","",""
"","feedback","","html-keyboard-response","283","310833","0.0-1.0-384.0-0.0","0","0","50182","","null","","","null","42","","","","","","","","","","","","","","","",""
"","ITI","","html-keyboard-response","284","311836","0.0-1.0-387.0","0","0","50182","","null","","","null","42","","","","","","","","","","","","","","","NaN",""
"","S1","","html-keyboard-response","285","312088","0.0-1.0-389.0","0","0","50182","","null","","","null","43","","","","","","","","","","","","","","","",""
"","ISI","","html-keyboard-response","286","313091","0.0-1.0-390.0","0","0","50182","","null","","","null","43","NaN","","","","","","","","","","","","","","",""
"","S2","","html-keyboard-response","287","313344","0.0-1.0-391.0","0","0","50182","","null","","","null","43","","NaN","","","","","","","","","","","","","",""
"","response","","html-keyboard-response","288","313728","0.0-1.0-392.0-0.0","0","0","50182","","382","","","68","43","","","1","43","training","adjacent","FE","6","5","M.jpg","P.jpg","1","0","0","",""
"","feedback","","html-keyboard-response","289","314732","0.0-1.0-393.0-0.0","0","0","50182","","null","","","null","43","","","","","","","","","","","","","","","",""
"","time_out","","html-keyboard-response","290","316735","0.0-1.0-395.0-0.0","0","0","50182","","null","","","null","43","","","","","","","","","","","","","","","",""
"","ITI","","html-keyboard-response","291","317738","0.0-1.0-396.0","0","0","50182","","null","","","null","43","","","","","","","","","","","","","","","NaN",""
"","S1","","html-keyboard-response","292","317990","0.0-1.0-398.0","0","0","50182","","null","","","null","44","","","","","","","","","","","","","","","",""
"","ISI","","html-keyboard-response","293","318992","0.0-1.0-399.0","0","0","50182","","null","","","null","44","NaN","","","","","","","","","","","","","","",""
"","S2","","html-keyboard-response","294","319245","0.0-1.0-400.0","0","0","50182","","null","","","null","44","","NaN","","","","","","","","","","","","","",""
"","response","","html-keyboard-response","295","319792","0.0-1.0-401.0-0.0","0","0","50182","","545","","","75","44","","","1","44","training","adjacent","EF","5","6","P.jpg","M.jpg","0","1","0","",""
"","feedback","","html-keyboard-response","296","320795","0.0-1.0-402.0-0.0","0","0","50182","","null","","","null","44","","","","","","","","","","","","","","","",""
"","time_out","","html-keyboard-response","297","322797","0.0-1.0-404.0-0.0","0","0","50182","","null","","","null","44","","","","","","","","","","","","","","","",""
"","ITI","","html-keyboard-response","298","323800","0.0-1.0-405.0","0","0","50182","","null","","","null","44","","","","","","","","","","","","","","","NaN",""
"","S1","","html-keyboard-response","299","324053","0.0-1.0-407.0","0","0","50182","","null","","","null","45","","","","","","","","","","","","","","","",""
"","ISI","","html-keyboard-response","300","325055","0.0-1.0-408.0","0","0","50182","","null","","","null","45","NaN","","","","","","","","","","","","","","",""
"","S2","","html-keyboard-response","301","325308","0.0-1.0-409.0","0","0","50182","","null","","","null","45","","NaN","","","","","","","","","","","","","",""
"","response","","html-keyboard-response","302","325453","0.0-1.0-410.0-0.0","0","0","50182","","144","","","75","45","","","1","45","training","adjacent","FG","6","7","M.jpg","O.jpg","0","1","0","",""
"","feedback","","html-keyboard-response","303","326456","0.0-1.0-411.0-0.0","0","0","50182","","null","","","null","45","","","","","","","","","","","","","","","",""
"","time_out","","html-keyboard-response","304","328458","0.0-1.0-413.0-0.0","0","0","50182","","null","","","null","45","","","","","","","","","","","","","","","",""
"","ITI","","html-keyboard-response","305","329461","0.0-1.0-414.0","0","0","50182","","null","","","null","45","","","","","","","","","","","","","","","NaN",""
"","S1","","html-keyboard-response","306","329713","0.0-1.0-416.0","0","0","50182","","null","","","null","46","","","","","","","","","","","","","","","",""
"","ISI","","html-keyboard-response","307","330716","0.0-1.0-417.0","0","0","50182","","null","","","null","46","NaN","","","","","","","","","","","","","","",""
"","S2","","html-keyboard-response","308","330968","0.0-1.0-418.0","0","0","50182","","null","","","null","46","","NaN","","","","","","","","","","","","","",""
"","response","","html-keyboard-response","309","331551","0.0-1.0-419.0-0.0","0","0","50182","","581","","","68","46","","","1","46","training","adjacent","ED","5","4","P.jpg","L.jpg","1","0","0","",""
"","feedback","","html-keyboard-response","310","332554","0.0-1.0-420.0-0.0","0","0","50182","","null","","","null","46","","","","","","","","","","","","","","","",""
"","time_out","","html-keyboard-response","311","334556","0.0-1.0-422.0-0.0","0","0","50182","","null","","","null","46","","","","","","","","","","","","","","","",""
"","ITI","","html-keyboard-response","312","335559","0.0-1.0-423.0","0","0","50182","","null","","","null","46","","","","","","","","","","","","","","","NaN",""
"","S1","","html-keyboard-response","313","335811","0.0-1.0-425.0","0","0","50182","","null","","","null","47","","","","","","","","","","","","","","","",""
"","ISI","","html-keyboard-response","314","336814","0.0-1.0-426.0","0","0","50182","","null","","","null","47","NaN","","","","","","","","","","","","","","",""
"","S2","","html-keyboard-response","315","337067","0.0-1.0-427.0","0","0","50182","","null","","","null","47","","NaN","","","","","","","","","","","","","",""
"","response","","html-keyboard-response","316","337096","0.0-1.0-428.0-0.0","0","0","50182","","28","","","75","47","","","1","47","training","adjacent","CD","3","4","Q.jpg","L.jpg","0","1","0","",""
"","feedback","","html-keyboard-response","317","338100","0.0-1.0-429.0-0.0","0","0","50182","","null","","","null","47","","","","","","","","","","","","","","","",""
"","time_out","","html-keyboard-response","318","340102","0.0-1.0-431.0-0.0","0","0","50182","","null","","","null","47","","","","","","","","","","","","","","","",""
"","ITI","","html-keyboard-response","319","341105","0.0-1.0-432.0","0","0","50182","","null","","","null","47","","","","","","","","","","","","","","","NaN",""
"","block_over","","html-keyboard-response","320","388262","0.0-1.0-433.0-0.0","0","0","50182","","47155","","","32","47","","","","","","","","","","","","","","","",""
"","S1","","html-keyboard-response","321","388515","0.0-1.0-434.0","0","0","50182","","null","","","null","48","","","","","","","","","","","","","","","",""
"","ISI","","html-keyboard-response","322","389517","0.0-1.0-435.0","0","0","50182","","null","","","null","48","NaN","","","","","","","","","","","","","","",""
"","S2","","html-keyboard-response","323","389771","0.0-1.0-436.0","0","0","50182","","null","","","null","48","","NaN","","","","","","","","","","","","","",""
"","response","","html-keyboard-response","324","391171","0.0-1.0-437.0-0.0","0","0","50182","","1399","","","75","48","","","2","48","training","adjacent","CB","3","2","Q.jpg","R.jpg","0","0","1","",""
"","feedback","","html-keyboard-response","325","392173","0.0-1.0-438.0-0.0","0","0","50182","","null","","","null","48","","","","","","","","","","","","","","","",""
"","ITI","","html-keyboard-response","326","393176","0.0-1.0-441.0","0","0","50182","","null","","","null","48","","","","","","","","","","","","","","","NaN",""
"","S1","","html-keyboard-response","327","393429","0.0-1.0-443.0","0","0","50182","","null","","","null","49","","","","","","","","","","","","","","","",""
"","ISI","","html-keyboard-response","328","394432","0.0-1.0-444.0","0","0","50182","","null","","","null","49","NaN","","","","","","","","","","","","","","",""
"","S2","","html-keyboard-response","329","394684","0.0-1.0-445.0","0","0","50182","","null","","","null","49","","NaN","","","","","","","","","","","","","",""
"","response","","html-keyboard-response","330","395188","0.0-1.0-446.0-0.0","0","0","50182","","503","","","68","49","","","2","49","training","adjacent","DC","4","3","L.jpg","Q.jpg","1","0","0","",""
"","feedback","","html-keyboard-response","331","396191","0.0-1.0-447.0-0.0","0","0","50182","","null","","","null","49","","","","","","","","","","","","","","","",""
"","time_out","","html-keyboard-response","332","398193","0.0-1.0-449.0-0.0","0","0","50182","","null","","","null","49","","","","","","","","","","","","","","","",""
"","ITI","","html-keyboard-response","333","399196","0.0-1.0-450.0","0","0","50182","","null","","","null","49","","","","","","","","","","","","","","","NaN",""
"","S1","","html-keyboard-response","334","399448","0.0-1.0-452.0","0","0","50182","","null","","","null","50","","","","","","","","","","","","","","","",""
"","ISI","","html-keyboard-response","335","400451","0.0-1.0-453.0","0","0","50182","","null","","","null","50","NaN","","","","","","","","","","","","","","",""
"","S2","","html-keyboard-response","336","400703","0.0-1.0-454.0","0","0","50182","","null","","","null","50","","NaN","","","","","","","","","","","","","",""
"","response","","html-keyboard-response","337","401256","0.0-1.0-455.0-0.0","0","0","50182","","552","","","75","50","","","2","50","training","adjacent","DC","4","3","L.jpg","Q.jpg","0","0","1","",""
"","feedback","","html-keyboard-response","338","402259","0.0-1.0-456.0-0.0","0","0","50182","","null","","","null","50","","","","","","","","","","","","","","","",""
"","ITI","","html-keyboard-response","339","403261","0.0-1.0-459.0","0","0","50182","","null","","","null","50","","","","","","","","","","","","","","","NaN",""
"","S1","","html-keyboard-response","340","403514","0.0-1.0-461.0","0","0","50182","","null","","","null","51","","","","","","","","","","","","","","","",""
"","ISI","","html-keyboard-response","341","404515","0.0-1.0-462.0","0","0","50182","","null","","","null","51","NaN","","","","","","","","","","","","","","",""
"","S2","","html-keyboard-response","342","404768","0.0-1.0-463.0","0","0","50182","","null","","","null","51","","NaN","","","","","","","","","","","","","",""
"","response","","html-keyboard-response","343","405307","0.0-1.0-464.0-0.0","0","0","50182","","537","","","75","51","","","2","51","training","adjacent","DC","4","3","L.jpg","Q.jpg","0","0","1","",""
"","feedback","","html-keyboard-response","344","406312","0.0-1.0-465.0-0.0","0","0","50182","","null","","","null","51","","","","","","","","","","","","","","","",""
"","ITI","","html-keyboard-response","345","407314","0.0-1.0-468.0","0","0","50182","","null","","","null","51","","","","","","","","","","","","","","","NaN",""
"","S1","","html-keyboard-response","346","407566","0.0-1.0-470.0","0","0","50182","","null","","","null","52","","","","","","","","","","","","","","","",""
"","ISI","","html-keyboard-response","347","408569","0.0-1.0-471.0","0","0","50182","","null","","","null","52","NaN","","","","","","","","","","","","","","",""
"","S2","","html-keyboard-response","348","408821","0.0-1.0-472.0","0","0","50182","","null","","","null","52","","NaN","","","","","","","","","","","","","",""
"","response","","html-keyboard-response","349","409315","0.0-1.0-473.0-0.0","0","0","50182","","492","","","68","52","","","2","52","training","adjacent","AB","1","2","N.jpg","R.jpg","1","1","1","",""
"","feedback","","html-keyboard-response","350","410319","0.0-1.0-474.0-0.0","0","0","50182","","null","","","null","52","","","","","","","","","","","","","","","",""
"","ITI","","html-keyboard-response","351","411321","0.0-1.0-477.0","0","0","50182","","null","","","null","52","","","","","","","","","","","","","","","NaN",""
"","S1","","html-keyboard-response","352","411573","0.0-1.0-479.0","0","0","50182","","null","","","null","53","","","","","","","","","","","","","","","",""
"","ISI","","html-keyboard-response","353","412575","0.0-1.0-480.0","0","0","50182","","null","","","null","53","NaN","","","","","","","","","","","","","","",""
"","S2","","html-keyboard-response","354","412828","0.0-1.0-481.0","0","0","50182","","null","","","null","53","","NaN","","","","","","","","","","","","","",""
"","response","","html-keyboard-response","355","413203","0.0-1.0-482.0-0.0","0","0","50182","","374","","","68","53","","","2","53","training","adjacent","FE","6","5","M.jpg","P.jpg","1","0","0","",""
"","feedback","","html-keyboard-response","356","414206","0.0-1.0-483.0-0.0","0","0","50182","","null","","","null","53","","","","","","","","","","","","","","","",""
"","time_out","","html-keyboard-response","357","416208","0.0-1.0-485.0-0.0","0","0","50182","","null","","","null","53","","","","","","","","","","","","","","","",""
"","ITI","","html-keyboard-response","358","417211","0.0-1.0-486.0","0","0","50182","","null","","","null","53","","","","","","","","","","","","","","","NaN",""
"","S1","","html-keyboard-response","359","417463","0.0-1.0-488.0","0","0","50182","","null","","","null","54","","","","","","","","","","","","","","","",""
"","ISI","","html-keyboard-response","360","418465","0.0-1.0-489.0","0","0","50182","","null","","","null","54","NaN","","","","","","","","","","","","","","",""
"","S2","","html-keyboard-response","361","418718","0.0-1.0-490.0","0","0","50182","","null","","","null","54","","NaN","","","","","","","","","","","","","",""
"","response","","html-keyboard-response","362","419116","0.0-1.0-491.0-0.0","0","0","50182","","397","","","75","54","","","2","54","training","adjacent","CB","3","2","Q.jpg","R.jpg","0","0","1","",""
"","feedback","","html-keyboard-response","363","420119","0.0-1.0-492.0-0.0","0","0","50182","","null","","","null","54","","","","","","","","","","","","","","","",""
"","ITI","","html-keyboard-response","364","421122","0.0-1.0-495.0","0","0","50182","","null","","","null","54","","","","","","","","","","","","","","","NaN",""
"","S1","","html-keyboard-response","365","421375","0.0-1.0-497.0","0","0","50182","","null","","","null","55","","","","","","","","","","","","","","","",""
"","ISI","","html-keyboard-response","366","422378","0.0-1.0-498.0","0","0","50182","","null","","","null","55","NaN","","","","","","","","","","","","","","",""
"","S2","","html-keyboard-response","367","422630","0.0-1.0-499.0","0","0","50182","","null","","","null","55","","NaN","","","","","","","","","","","","","",""
"","response","","html-keyboard-response","368","423291","0.0-1.0-500.0-0.0","0","0","50182","","660","","","68","55","","","2","55","training","adjacent","ED","5","4","P.jpg","L.jpg","1","0","0","",""
"","feedback","","html-keyboard-response","369","424294","0.0-1.0-501.0-0.0","0","0","50182","","null","","","null","55","","","","","","","","","","","","","","","",""
"","time_out","","html-keyboard-response","370","426297","0.0-1.0-503.0-0.0","0","0","50182","","null","","","null","55","","","","","","","","","","","","","","","",""
"","ITI","","html-keyboard-response","371","427299","0.0-1.0-504.0","0","0","50182","","null","","","null","55","","","","","","","","","","","","","","","NaN",""
"","S1","","html-keyboard-response","372","427552","0.0-1.0-506.0","0","0","50182","","null","","","null","56","","","","","","","","","","","","","","","",""
"","ISI","","html-keyboard-response","373","428555","0.0-1.0-507.0","0","0","50182","","null","","","null","56","NaN","","","","","","","","","","","","","","",""
"","S2","","html-keyboard-response","374","428808","0.0-1.0-508.0","0","0","50182","","null","","","null","56","","NaN","","","","","","","","","","","","","",""
"","response","","html-keyboard-response","375","429511","0.0-1.0-509.0-0.0","0","0","50182","","702","","","68","56","","","2","56","training","adjacent","FG","6","7","M.jpg","O.jpg","1","1","1","",""
"","feedback","","html-keyboard-response","376","430515","0.0-1.0-510.0-0.0","0","0","50182","","null","","","null","56","","","","","","","","","","","","","","","",""
"","ITI","","html-keyboard-response","377","431518","0.0-1.0-513.0","0","0","50182","","null","","","null","56","","","","","","","","","","","","","","","NaN",""
"","S1","","html-keyboard-response","378","431772","0.0-1.0-515.0","0","0","50182","","null","","","null","57","","","","","","","","","","","","","","","",""
"","ISI","","html-keyboard-response","379","432774","0.0-1.0-516.0","0","0","50182","","null","","","null","57","NaN","","","","","","","","","","","","","","",""
"","S2","","html-keyboard-response","380","433027","0.0-1.0-517.0","0","0","50182","","null","","","null","57","","NaN","","","","","","","","","","","","","",""
"","response","","html-keyboard-response","381","433650","0.0-1.0-518.0-0.0","0","0","50182","","621","","","75","57","","","2","57","training","adjacent","BC","2","3","R.jpg","Q.jpg","0","1","0","",""
"","feedback","","html-keyboard-response","382","434653","0.0-1.0-519.0-0.0","0","0","50182","","null","","","null","57","","","","","","","","","","","","","","","",""
"","time_out","","html-keyboard-response","383","436655","0.0-1.0-521.0-0.0","0","0","50182","","null","","","null","57","","","","","","","","","","","","","","","",""
"","ITI","","html-keyboard-response","384","437657","0.0-1.0-522.0","0","0","50182","","null","","","null","57","","","","","","","","","","","","","","","NaN",""
"","S1","","html-keyboard-response","385","437910","0.0-1.0-524.0","0","0","50182","","null","","","null","58","","","","","","","","","","","","","","","",""
"","ISI","","html-keyboard-response","386","438913","0.0-1.0-525.0","0","0","50182","","null","","","null","58","NaN","","","","","","","","","","","","","","",""
"","S2","","html-keyboard-response","387","439165","0.0-1.0-526.0","0","0","50182","","null","","","null","58","","NaN","","","","","","","","","","","","","",""
"","response","","html-keyboard-response","388","439782","0.0-1.0-527.0-0.0","0","0","50182","","615","","","68","58","","","2","58","training","adjacent","FG","6","7","M.jpg","O.jpg","1","1","1","",""
"","feedback","","html-keyboard-response","389","440785","0.0-1.0-528.0-0.0","0","0","50182","","null","","","null","58","","","","","","","","","","","","","","","",""
"","ITI","","html-keyboard-response","390","441787","0.0-1.0-531.0","0","0","50182","","null","","","null","58","","","","","","","","","","","","","","","NaN",""
"","S1","","html-keyboard-response","391","442041","0.0-1.0-533.0","0","0","50182","","null","","","null","59","","","","","","","","","","","","","","","",""
"","ISI","","html-keyboard-response","392","443045","0.0-1.0-534.0","0","0","50182","","null","","","null","59","NaN","","","","","","","","","","","","","","",""
"","S2","","html-keyboard-response","393","443298","0.0-1.0-535.0","0","0","50182","","null","","","null","59","","NaN","","","","","","","","","","","","","",""
"","response","","html-keyboard-response","394","444126","0.0-1.0-536.0-0.0","0","0","50182","","827","","","75","59","","","2","59","training","adjacent","CD","3","4","Q.jpg","L.jpg","0","1","0","",""
"","feedback","","html-keyboard-response","395","445129","0.0-1.0-537.0-0.0","0","0","50182","","null","","","null","59","","","","","","","","","","","","","","","",""
"","time_out","","html-keyboard-response","396","447131","0.0-1.0-539.0-0.0","0","0","50182","","null","","","null","59","","","","","","","","","","","","","","","",""
"","ITI","","html-keyboard-response","397","448135","0.0-1.0-540.0","0","0","50182","","null","","","null","59","","","","","","","","","","","","","","","NaN",""
"","S1","","html-keyboard-response","398","448388","0.0-1.0-542.0","0","0","50182","","null","","","null","60","","","","","","","","","","","","","","","",""
"","ISI","","html-keyboard-response","399","449391","0.0-1.0-543.0","0","0","50182","","null","","","null","60","NaN","","","","","","","","","","","","","","",""
"","S2","","html-keyboard-response","400","449644","0.0-1.0-544.0","0","0","50182","","null","","","null","60","","NaN","","","","","","","","","","","","","",""
"","response","","html-keyboard-response","401","450478","0.0-1.0-545.0-0.0","0","0","50182","","833","","","68","60","","","2","60","training","adjacent","EF","5","6","P.jpg","M.jpg","1","1","1","",""
"","feedback","","html-keyboard-response","402","451482","0.0-1.0-546.0-0.0","0","0","50182","","null","","","null","60","","","","","","","","","","","","","","","",""
"","ITI","","html-keyboard-response","403","452498","0.0-1.0-549.0","0","0","50182","","null","","","null","60","","","","","","","","","","","","","","","NaN",""
"","S1","","html-keyboard-response","404","452751","0.0-1.0-551.0","0","0","50182","","null","","","null","61","","","","","","","","","","","","","","","",""
"","ISI","","html-keyboard-response","405","453754","0.0-1.0-552.0","0","0","50182","","null","","","null","61","NaN","","","","","","","","","","","","","","",""
"","S2","","html-keyboard-response","406","454007","0.0-1.0-553.0","0","0","50182","","null","","","null","61","","NaN","","","","","","","","","","","","","",""
"","response","","html-keyboard-response","407","454574","0.0-1.0-554.0-0.0","0","0","50182","","565","","","68","61","","","2","61","training","adjacent","BC","2","3","R.jpg","Q.jpg","1","1","1","",""
"","feedback","","html-keyboard-response","408","455577","0.0-1.0-555.0-0.0","0","0","50182","","null","","","null","61","","","","","","","","","","","","","","","",""
"","ITI","","html-keyboard-response","409","456581","0.0-1.0-558.0","0","0","50182","","null","","","null","61","","","","","","","","","","","","","","","NaN",""
"","S1","","html-keyboard-response","410","456834","0.0-1.0-560.0","0","0","50182","","null","","","null","62","","","","","","","","","","","","","","","",""
"","ISI","","html-keyboard-response","411","457836","0.0-1.0-561.0","0","0","50182","","null","","","null","62","NaN","","","","","","","","","","","","","","",""
"","S2","","html-keyboard-response","412","458089","0.0-1.0-562.0","0","0","50182","","null","","","null","62","","NaN","","","","","","","","","","","","","",""
"","response","","html-keyboard-response","413","458100","0.0-1.0-563.0-0.0","0","0","50182","","10","","","75","62","","","2","62","training","adjacent","EF","5","6","P.jpg","M.jpg","0","1","0","",""
"","feedback","","html-keyboard-response","414","459102","0.0-1.0-564.0-0.0","0","0","50182","","null","","","null","62","","","","","","","","","","","","","","","",""
"","time_out","","html-keyboard-response","415","461105","0.0-1.0-566.0-0.0","0","0","50182","","null","","","null","62","","","","","","","","","","","","","","","",""
"","ITI","","html-keyboard-response","416","462107","0.0-1.0-567.0","0","0","50182","","null","","","null","62","","","","","","","","","","","","","","","NaN",""
"","S1","","html-keyboard-response","417","462360","0.0-1.0-569.0","0","0","50182","","null","","","null","63","","","","","","","","","","","","","","","",""
"","ISI","","html-keyboard-response","418","463377","0.0-1.0-570.0","0","0","50182","","null","","","null","63","NaN","","","","","","","","","","","","","","",""
"","S2","","html-keyboard-response","419","463428","0.0-1.0-571.0","0","0","50182","","50","","","75","63","","k","2","63","training","adjacent","FG","6","7","M.jpg","O.jpg","0","1","0","",""
"","feedback","","html-keyboard-response","420","464431","0.0-1.0-573.0-0.0","0","0","50182","","null","","","null","63","","","","","","","","","","","","","","","",""
"","time_out","","html-keyboard-response","421","466434","0.0-1.0-575.0-0.0","0","0","50182","","null","","","null","63","","","","","","","","","","","","","","","",""
"","ITI","","html-keyboard-response","422","467436","0.0-1.0-576.0","0","0","50182","","null","","","null","63","","","","","","","","","","","","","","","NaN",""
"","S1","","html-keyboard-response","423","467689","0.0-1.0-578.0","0","0","50182","","null","","","null","64","","","","","","","","","","","","","","","",""
"","ISI","","html-keyboard-response","424","468702","0.0-1.0-579.0","0","0","50182","","null","","","null","64","NaN","","","","","","","","","","","","","","",""
"","S2","","html-keyboard-response","425","468954","0.0-1.0-580.0","0","0","50182","","null","","","null","64","","NaN","","","","","","","","","","","","","",""
"","response","","html-keyboard-response","426","468956","0.0-1.0-581.0-0.0","0","0","50182","","0","","","68","64","","","2","64","training","adjacent","AB","1","2","N.jpg","R.jpg","1","1","1","",""
"","feedback","","html-keyboard-response","427","469959","0.0-1.0-582.0-0.0","0","0","50182","","null","","","null","64","","","","","","","","","","","","","","","",""
"","ITI","","html-keyboard-response","428","470961","0.0-1.0-585.0","0","0","50182","","null","","","null","64","","","","","","","","","","","","","","","NaN",""
"","S1","","html-keyboard-response","429","471214","0.0-1.0-587.0","0","0","50182","","null","","","null","65","","","","","","","","","","","","","","","",""
"","ISI","","html-keyboard-response","430","472216","0.0-1.0-588.0","0","0","50182","","null","","","null","65","NaN","","","","","","","","","","","","","","",""
"","S2","","html-keyboard-response","431","472468","0.0-1.0-589.0","0","0","50182","","null","","","null","65","","NaN","","","","","","","","","","","","","",""
"","response","","html-keyboard-response","432","472559","0.0-1.0-590.0-0.0","0","0","50182","","89","","","75","65","","","2","65","training","adjacent","ED","5","4","P.jpg","L.jpg","0","0","1","",""
"","feedback","","html-keyboard-response","433","473561","0.0-1.0-591.0-0.0","0","0","50182","","null","","","null","65","","","","","","","","","","","","","","","",""
"","ITI","","html-keyboard-response","434","474563","0.0-1.0-594.0","0","0","50182","","null","","","null","65","","","","","","","","","","","","","","","NaN",""
"","S1","","html-keyboard-response","435","474816","0.0-1.0-596.0","0","0","50182","","null","","","null","66","","","","","","","","","","","","","","","",""
"","ISI","","html-keyboard-response","436","475819","0.0-1.0-597.0","0","0","50182","","null","","","null","66","NaN","","","","","","","","","","","","","","",""
"","S2","","html-keyboard-response","437","476072","0.0-1.0-598.0","0","0","50182","","null","","","null","66","","NaN","","","","","","","","","","","","","",""
"","response","","html-keyboard-response","438","476375","0.0-1.0-599.0-0.0","0","0","50182","","302","","","68","66","","","2","66","training","adjacent","FE","6","5","M.jpg","P.jpg","1","0","0","",""
"","feedback","","html-keyboard-response","439","477378","0.0-1.0-600.0-0.0","0","0","50182","","null","","","null","66","","","","","","","","","","","","","","","",""
"","time_out","","html-keyboard-response","440","479380","0.0-1.0-602.0-0.0","0","0","50182","","null","","","null","66","","","","","","","","","","","","","","","",""
"","ITI","","html-keyboard-response","441","480382","0.0-1.0-603.0","0","0","50182","","null","","","null","66","","","","","","","","","","","","","","","NaN",""
"","S1","","html-keyboard-response","442","480635","0.0-1.0-605.0","0","0","50182","","null","","","null","67","","","","","","","","","","","","","","","",""
"","ISI","","html-keyboard-response","443","481636","0.0-1.0-606.0","0","0","50182","","null","","","null","67","NaN","","","","","","","","","","","","","","",""
"","S2","","html-keyboard-response","444","481895","0.0-1.0-607.0","0","0","50182","","null","","","null","67","","NaN","","","","","","","","","","","","","",""
"","response","","html-keyboard-response","445","482063","0.0-1.0-608.0-0.0","0","0","50182","","167","","","75","67","","","2","67","training","adjacent","FE","6","5","M.jpg","P.jpg","0","0","1","",""
"","feedback","","html-keyboard-response","446","483067","0.0-1.0-609.0-0.0","0","0","50182","","null","","","null","67","","","","","","","","","","","","","","","",""
"","ITI","","html-keyboard-response","447","484069","0.0-1.0-612.0","0","0","50182","","null","","","null","67","","","","","","","","","","","","","","","NaN",""
"","S1","","html-keyboard-response","448","484322","0.0-1.0-614.0","0","0","50182","","null","","","null","68","","","","","","","","","","","","","","","",""
"","ISI","","html-keyboard-response","449","485325","0.0-1.0-615.0","0","0","50182","","null","","","null","68","NaN","","","","","","","","","","","","","","",""
"","S2","","html-keyboard-response","450","485577","0.0-1.0-616.0","0","0","50182","","null","","","null","68","","NaN","","","","","","","","","","","","","",""
"","response","","html-keyboard-response","451","486003","0.0-1.0-617.0-0.0","0","0","50182","","425","","","75","68","","","2","68","training","adjacent","BA","2","1","R.jpg","N.jpg","0","0","1","",""
"","feedback","","html-keyboard-response","452","487006","0.0-1.0-618.0-0.0","0","0","50182","","null","","","null","68","","","","","","","","","","","","","","","",""
"","ITI","","html-keyboard-response","453","488009","0.0-1.0-621.0","0","0","50182","","null","","","null","68","","","","","","","","","","","","","","","NaN",""
"","S1","","html-keyboard-response","454","488261","0.0-1.0-623.0","0","0","50182","","null","","","null","69","","","","","","","","","","","","","","","",""
"","ISI","","html-keyboard-response","455","489264","0.0-1.0-624.0","0","0","50182","","null","","","null","69","NaN","","","","","","","","","","","","","","",""
"","S2","","html-keyboard-response","456","489517","0.0-1.0-625.0","0","0","50182","","null","","","null","69","","NaN","","","","","","","","","","","","","",""
"","response","","html-keyboard-response","457","489869","0.0-1.0-626.0-0.0","0","0","50182","","351","","","75","69","","","2","69","training","adjacent","DC","4","3","L.jpg","Q.jpg","0","0","1","",""
"","feedback","","html-keyboard-response","458","490872","0.0-1.0-627.0-0.0","0","0","50182","","null","","","null","69","","","","","","","","","","","","","","","",""
"","ITI","","html-keyboard-response","459","491886","0.0-1.0-630.0","0","0","50182","","null","","","null","69","","","","","","","","","","","","","","","NaN",""
"","S1","","html-keyboard-response","460","492140","0.0-1.0-632.0","0","0","50182","","null","","","null","70","","","","","","","","","","","","","","","",""
"","ISI","","html-keyboard-response","461","493143","0.0-1.0-633.0","0","0","50182","","null","","","null","70","NaN","","","","","","","","","","","","","","",""
"","S2","","html-keyboard-response","462","493395","0.0-1.0-634.0","0","0","50182","","null","","","null","70","","NaN","","","","","","","","","","","","","",""
"","response","","html-keyboard-response","463","493821","0.0-1.0-635.0-0.0","0","0","50182","","423","","","68","70","","","2","70","training","adjacent","CD","3","4","Q.jpg","L.jpg","1","1","1","",""
"","feedback","","html-keyboard-response","464","494823","0.0-1.0-636.0-0.0","0","0","50182","","null","","","null","70","","","","","","","","","","","","","","","",""
"","ITI","","html-keyboard-response","465","495826","0.0-1.0-639.0","0","0","50182","","null","","","null","70","","","","","","","","","","","","","","","NaN",""
"","S1","","html-keyboard-response","466","496079","0.0-1.0-641.0","0","0","50182","","null","","","null","71","","","","","","","","","","","","","","","",""
"","ISI","","html-keyboard-response","467","497082","0.0-1.0-642.0","0","0","50182","","null","","","null","71","NaN","","","","","","","","","","","","","","",""
"","S2","","html-keyboard-response","468","497334","0.0-1.0-643.0","0","0","50182","","null","","","null","71","","NaN","","","","","","","","","","","","","",""
"","response","","html-keyboard-response","469","497587","0.0-1.0-644.0-0.0","0","0","50182","","251","","","68","71","","","2","71","training","adjacent","DE","4","5","L.jpg","P.jpg","1","1","1","",""
"","feedback","","html-keyboard-response","470","498591","0.0-1.0-645.0-0.0","0","0","50182","","null","","","null","71","","","","","","","","","","","","","","","",""
"","ITI","","html-keyboard-response","471","499593","0.0-1.0-648.0","0","0","50182","","null","","","null","71","","","","","","","","","","","","","","","NaN",""
"","S1","","html-keyboard-response","472","499845","0.0-1.0-650.0","0","0","50182","","null","","","null","72","","","","","","","","","","","","","","","",""
"","ISI","","html-keyboard-response","473","500848","0.0-1.0-651.0","0","0","50182","","null","","","null","72","NaN","","","","","","","","","","","","","","",""
"","S2","","html-keyboard-response","474","501102","0.0-1.0-652.0","0","0","50182","","null","","","null","72","","NaN","","","","","","","","","","","","","",""
"","response","","html-keyboard-response","475","501314","0.0-1.0-653.0-0.0","0","0","50182","","210","","","68","72","","","2","72","training","adjacent","FE","6","5","M.jpg","P.jpg","1","0","0","",""
"","feedback","","html-keyboard-response","476","502316","0.0-1.0-654.0-0.0","0","0","50182","","null","","","null","72","","","","","","","","","","","","","","","",""
"","time_out","","html-keyboard-response","477","504319","0.0-1.0-656.0-0.0","0","0","50182","","null","","","null","72","","","","","","","","","","","","","","","",""
"","ITI","","html-keyboard-response","478","505322","0.0-1.0-657.0","0","0","50182","","null","","","null","72","","","","","","","","","","","","","","","NaN",""
"","S1","","html-keyboard-response","479","505575","0.0-1.0-659.0","0","0","50182","","null","","","null","73","","","","","","","","","","","","","","","",""
"","ISI","","html-keyboard-response","480","506578","0.0-1.0-660.0","0","0","50182","","null","","","null","73","NaN","","","","","","","","","","","","","","",""
"","S2","","html-keyboard-response","481","506831","0.0-1.0-661.0","0","0","50182","","null","","","null","73","","NaN","","","","","","","","","","","","","",""
"","response","","html-keyboard-response","482","507154","0.0-1.0-662.0-0.0","0","0","50182","","320","","","68","73","","","2","73","training","adjacent","EF","5","6","P.jpg","M.jpg","1","1","1","",""
"","feedback","","html-keyboard-response","483","508157","0.0-1.0-663.0-0.0","0","0","50182","","null","","","null","73","","","","","","","","","","","","","","","",""
"","ITI","","html-keyboard-response","484","509160","0.0-1.0-666.0","0","0","50182","","null","","","null","73","","","","","","","","","","","","","","","NaN",""
"","S1","","html-keyboard-response","485","509412","0.0-1.0-668.0","0","0","50182","","null","","","null","74","","","","","","","","","","","","","","","",""
"","ISI","","html-keyboard-response","486","510416","0.0-1.0-669.0","0","0","50182","","924","","","75","74","k","","","","","","","","","","","","","","",""
"","S2","","html-keyboard-response","487","510669","0.0-1.0-670.0","0","0","50182","","null","","","null","74","","NaN","","","","","","","","","","","","","",""
"","response","","html-keyboard-response","488","511257","0.0-1.0-671.0-0.0","0","0","50182","","587","","","75","74","","","2","74","training","adjacent","CD","3","4","Q.jpg","L.jpg","0","1","0","",""
"","feedback","","html-keyboard-response","489","512260","0.0-1.0-672.0-0.0","0","0","50182","","null","","","null","74","","","","","","","","","","","","","","","",""
"","time_out","","html-keyboard-response","490","514263","0.0-1.0-674.0-0.0","0","0","50182","","null","","","null","74","","","","","","","","","","","","","","","",""
"","ITI","","html-keyboard-response","491","515274","0.0-1.0-675.0","0","0","50182","","null","","","null","74","","","","","","","","","","","","","","","NaN",""
"","S1","","html-keyboard-response","492","515527","0.0-1.0-677.0","0","0","50182","","null","","","null","75","","","","","","","","","","","","","","","",""
"","ISI","","html-keyboard-response","493","516529","0.0-1.0-678.0","0","0","50182","","null","","","null","75","NaN","","","","","","","","","","","","","","",""
"","S2","","html-keyboard-response","494","516782","0.0-1.0-679.0","0","0","50182","","null","","","null","75","","NaN","","","","","","","","","","","","","",""
"","response","","html-keyboard-response","495","516917","0.0-1.0-680.0-0.0","0","0","50182","","134","","","75","75","","","2","75","training","adjacent","BA","2","1","R.jpg","N.jpg","0","0","1","",""
"","feedback","","html-keyboard-response","496","517919","0.0-1.0-681.0-0.0","0","0","50182","","null","","","null","75","","","","","","","","","","","","","","","",""
"","ITI","","html-keyboard-response","497","518922","0.0-1.0-684.0","0","0","50182","","null","","","null","75","","","","","","","","","","","","","","","NaN",""
"","S1","","html-keyboard-response","498","519175","0.0-1.0-686.0","0","0","50182","","null","","","null","76","","","","","","","","","","","","","","","",""
"","ISI","","html-keyboard-response","499","520178","0.0-1.0-687.0","0","0","50182","","null","","","null","76","NaN","","","","","","","","","","","","","","",""
"","S2","","html-keyboard-response","500","520407","0.0-1.0-688.0","0","0","50182","","228","","","68","76","","d","2","76","training","adjacent","AB","1","2","N.jpg","R.jpg","1","1","1","",""
"","feedback","","html-keyboard-response","501","521424","0.0-1.0-690.0-0.0","0","0","50182","","null","","","null","76","","","","","","","","","","","","","","","",""
"","ITI","","html-keyboard-response","502","522427","0.0-1.0-693.0","0","0","50182","","null","","","null","76","","","","","","","","","","","","","","","NaN",""
"","S1","","html-keyboard-response","503","522679","0.0-1.0-695.0","0","0","50182","","null","","","null","77","","","","","","","","","","","","","","","",""
"","ISI","","html-keyboard-response","504","523682","0.0-1.0-696.0","0","0","50182","","null","","","null","77","NaN","","","","","","","","","","","","","","",""
"","S2","","html-keyboard-response","505","523935","0.0-1.0-697.0","0","0","50182","","null","","","null","77","","NaN","","","","","","","","","","","","","",""
"","response","","html-keyboard-response","506","524346","0.0-1.0-698.0-0.0","0","0","50182","","409","","","68","77","","","2","77","training","adjacent","DE","4","5","L.jpg","P.jpg","1","1","1","",""
"","feedback","","html-keyboard-response","507","525348","0.0-1.0-699.0-0.0","0","0","50182","","null","","","null","77","","","","","","","","","","","","","","","",""
"","ITI","","html-keyboard-response","508","526352","0.0-1.0-702.0","0","0","50182","","null","","","null","77","","","","","","","","","","","","","","","NaN",""
"","S1","","html-keyboard-response","509","526605","0.0-1.0-704.0","0","0","50182","","null","","","null","78","","","","","","","","","","","","","","","",""
"","ISI","","html-keyboard-response","510","527607","0.0-1.0-705.0","0","0","50182","","null","","","null","78","NaN","","","","","","","","","","","","","","",""
"","S2","","html-keyboard-response","511","527839","0.0-1.0-706.0","0","0","50182","","231","","","68","78","","d","2","78","training","adjacent","AB","1","2","N.jpg","R.jpg","1","1","1","",""
"","feedback","","html-keyboard-response","512","528842","0.0-1.0-708.0-0.0","0","0","50182","","null","","","null","78","","","","","","","","","","","","","","","",""
"","ITI","","html-keyboard-response","513","529845","0.0-1.0-711.0","0","0","50182","","null","","","null","78","","","","","","","","","","","","","","","NaN",""
"","S1","","html-keyboard-response","514","530097","0.0-1.0-713.0","0","0","50182","","null","","","null","79","","","","","","","","","","","","","","","",""
"","ISI","","html-keyboard-response","515","531100","0.0-1.0-714.0","0","0","50182","","null","","","null","79","NaN","","","","","","","","","","","","","","",""
"","S2","","html-keyboard-response","516","531354","0.0-1.0-715.0","0","0","50182","","null","","","null","79","","NaN","","","","","","","","","","","","","",""
"","response","","html-keyboard-response","517","532000","0.0-1.0-716.0-0.0","0","0","50182","","645","","","68","79","","","2","79","training","adjacent","EF","5","6","P.jpg","M.jpg","1","1","1","",""
"","feedback","","html-keyboard-response","518","533003","0.0-1.0-717.0-0.0","0","0","50182","","null","","","null","79","","","","","","","","","","","","","","","",""
"","ITI","","html-keyboard-response","519","534006","0.0-1.0-720.0","0","0","50182","","null","","","null","79","","","","","","","","","","","","","","","NaN",""
"","S1","","html-keyboard-response","520","534258","0.0-1.0-722.0","0","0","50182","","null","","","null","80","","","","","","","","","","","","","","","",""
"","ISI","","html-keyboard-response","521","535262","0.0-1.0-723.0","0","0","50182","","null","","","null","80","NaN","","","","","","","","","","","","","","",""
"","S2","","html-keyboard-response","522","535515","0.0-1.0-724.0","0","0","50182","","null","","","null","80","","NaN","","","","","","","","","","","","","",""
"","response","","html-keyboard-response","523","535902","0.0-1.0-725.0-0.0","0","0","50182","","385","","","68","80","","","2","80","training","adjacent","GF","7","6","O.jpg","M.jpg","1","0","0","",""
"","feedback","","html-keyboard-response","524","536905","0.0-1.0-726.0-0.0","0","0","50182","","null","","","null","80","","","","","","","","","","","","","","","",""
"","time_out","","html-keyboard-response","525","538907","0.0-1.0-728.0-0.0","0","0","50182","","null","","","null","80","","","","","","","","","","","","","","","",""
"","ITI","","html-keyboard-response","526","539916","0.0-1.0-729.0","0","0","50182","","null","","","null","80","","","","","","","","","","","","","","","NaN",""
"","S1","","html-keyboard-response","527","540169","0.0-1.0-731.0","0","0","50182","","null","","","null","81","","","","","","","","","","","","","","","",""
"","ISI","","html-keyboard-response","528","541171","0.0-1.0-732.0","0","0","50182","","null","","","null","81","NaN","","","","","","","","","","","","","","",""
"","S2","","html-keyboard-response","529","541424","0.0-1.0-733.0","0","0","50182","","null","","","null","81","","NaN","","","","","","","","","","","","","",""
"","response","","html-keyboard-response","530","541541","0.0-1.0-734.0-0.0","0","0","50182","","115","","","75","81","","","2","81","training","adjacent","BA","2","1","R.jpg","N.jpg","0","0","1","",""
"","feedback","","html-keyboard-response","531","542545","0.0-1.0-735.0-0.0","0","0","50182","","null","","","null","81","","","","","","","","","","","","","","","",""
"","ITI","","html-keyboard-response","532","543547","0.0-1.0-738.0","0","0","50182","","null","","","null","81","","","","","","","","","","","","","","","NaN",""
"","S1","","html-keyboard-response","533","543800","0.0-1.0-740.0","0","0","50182","","null","","","null","82","","","","","","","","","","","","","","","",""
"","ISI","","html-keyboard-response","534","544803","0.0-1.0-741.0","0","0","50182","","null","","","null","82","NaN","","","","","","","","","","","","","","",""
"","S2","","html-keyboard-response","535","545056","0.0-1.0-742.0","0","0","50182","","null","","","null","82","","NaN","","","","","","","","","","","","","",""
"","response","","html-keyboard-response","536","545322","0.0-1.0-743.0-0.0","0","0","50182","","265","","","68","82","","","2","82","training","adjacent","BC","2","3","R.jpg","Q.jpg","1","1","1","",""
"","feedback","","html-keyboard-response","537","546325","0.0-1.0-744.0-0.0","0","0","50182","","null","","","null","82","","","","","","","","","","","","","","","",""
"","ITI","","html-keyboard-response","538","547328","0.0-1.0-747.0","0","0","50182","","null","","","null","82","","","","","","","","","","","","","","","NaN",""
"","S1","","html-keyboard-response","539","547581","0.0-1.0-749.0","0","0","50182","","null","","","null","83","","","","","","","","","","","","","","","",""
"","ISI","","html-keyboard-response","540","548584","0.0-1.0-750.0","0","0","50182","","null","","","null","83","NaN","","","","","","","","","","","","","","",""
"","S2","","html-keyboard-response","541","548836","0.0-1.0-751.0","0","0","50182","","null","","","null","83","","NaN","","","","","","","","","","","","","",""
"","response","","html-keyboard-response","542","548972","0.0-1.0-752.0-0.0","0","0","50182","","134","","","68","83","","","2","83","training","adjacent","BA","2","1","R.jpg","N.jpg","1","0","0","",""
"","feedback","","html-keyboard-response","543","549975","0.0-1.0-753.0-0.0","0","0","50182","","null","","","null","83","","","","","","","","","","","","","","","",""
"","time_out","","html-keyboard-response","544","551977","0.0-1.0-755.0-0.0","0","0","50182","","null","","","null","83","","","","","","","","","","","","","","","",""
"","ITI","","html-keyboard-response","545","552992","0.0-1.0-756.0","0","0","50182","","null","","","null","83","","","","","","","","","","","","","","","NaN",""
"","S1","","html-keyboard-response","546","553244","0.0-1.0-758.0","0","0","50182","","null","","","null","84","","","","","","","","","","","","","","","",""
"","ISI","","html-keyboard-response","547","554246","0.0-1.0-759.0","0","0","50182","","null","","","null","84","NaN","","","","","","","","","","","","","","",""
"","S2","","html-keyboard-response","548","554499","0.0-1.0-760.0","0","0","50182","","null","","","null","84","","NaN","","","","","","","","","","","","","",""
"","response","","html-keyboard-response","549","555168","0.0-1.0-761.0-0.0","0","0","50182","","668","","","68","84","","","2","84","training","adjacent","GF","7","6","O.jpg","M.jpg","1","0","0","",""
"","feedback","","html-keyboard-response","550","556172","0.0-1.0-762.0-0.0","0","0","50182","","null","","","null","84","","","","","","","","","","","","","","","",""
"","time_out","","html-keyboard-response","551","558175","0.0-1.0-764.0-0.0","0","0","50182","","null","","","null","84","","","","","","","","","","","","","","","",""
"","ITI","","html-keyboard-response","552","559177","0.0-1.0-765.0","0","0","50182","","null","","","null","84","","","","","","","","","","","","","","","NaN",""
"","S1","","html-keyboard-response","553","559430","0.0-1.0-767.0","0","0","50182","","null","","","null","85","","","","","","","","","","","","","","","",""
"","ISI","","html-keyboard-response","554","560433","0.0-1.0-768.0","0","0","50182","","null","","","null","85","NaN","","","","","","","","","","","","","","",""
"","S2","","html-keyboard-response","555","560685","0.0-1.0-769.0","0","0","50182","","null","","","null","85","","NaN","","","","","","","","","","","","","",""
"","response","","html-keyboard-response","556","561216","0.0-1.0-770.0-0.0","0","0","50182","","529","","","68","85","","","2","85","training","adjacent","FG","6","7","M.jpg","O.jpg","1","1","1","",""
"","feedback","","html-keyboard-response","557","562219","0.0-1.0-771.0-0.0","0","0","50182","","null","","","null","85","","","","","","","","","","","","","","","",""
"","ITI","","html-keyboard-response","558","563222","0.0-1.0-774.0","0","0","50182","","null","","","null","85","","","","","","","","","","","","","","","NaN",""
"","S1","","html-keyboard-response","559","563474","0.0-1.0-776.0","0","0","50182","","null","","","null","86","","","","","","","","","","","","","","","",""
"","ISI","","html-keyboard-response","560","564477","0.0-1.0-777.0","0","0","50182","","null","","","null","86","NaN","","","","","","","","","","","","","","",""
"","S2","","html-keyboard-response","561","564729","0.0-1.0-778.0","0","0","50182","","null","","","null","86","","NaN","","","","","","","","","","","","","",""
"","response","","html-keyboard-response","562","565000","0.0-1.0-779.0-0.0","0","0","50182","","268","","","68","86","","","2","86","training","adjacent","CD","3","4","Q.jpg","L.jpg","1","1","1","",""
"","feedback","","html-keyboard-response","563","566003","0.0-1.0-780.0-0.0","0","0","50182","","null","","","null","86","","","","","","","","","","","","","","","",""
"","ITI","","html-keyboard-response","564","567005","0.0-1.0-783.0","0","0","50182","","null","","","null","86","","","","","","","","","","","","","","","NaN",""
"","S1","","html-keyboard-response","565","567258","0.0-1.0-785.0","0","0","50182","","null","","","null","87","","","","","","","","","","","","","","","",""
"","ISI","","html-keyboard-response","566","568260","0.0-1.0-786.0","0","0","50182","","null","","","null","87","NaN","","","","","","","","","","","","","","",""
"","S2","","html-keyboard-response","567","568512","0.0-1.0-787.0","0","0","50182","","null","","","null","87","","NaN","","","","","","","","","","","","","",""
"","response","","html-keyboard-response","568","568531","0.0-1.0-788.0-0.0","0","0","50182","","18","","","75","87","","","2","87","training","adjacent","ED","5","4","P.jpg","L.jpg","0","0","1","",""
"","feedback","","html-keyboard-response","569","569534","0.0-1.0-789.0-0.0","0","0","50182","","null","","","null","87","","","","","","","","","","","","","","","",""
"","ITI","","html-keyboard-response","570","570536","0.0-1.0-792.0","0","0","50182","","null","","","null","87","","","","","","","","","","","","","","","NaN",""
"","S1","","html-keyboard-response","571","570789","0.0-1.0-794.0","0","0","50182","","null","","","null","88","","","","","","","","","","","","","","","",""
"","ISI","","html-keyboard-response","572","571792","0.0-1.0-795.0","0","0","50182","","null","","","null","88","NaN","","","","","","","","","","","","","","",""
"","S2","","html-keyboard-response","573","572045","0.0-1.0-796.0","0","0","50182","","null","","","null","88","","NaN","","","","","","","","","","","","","",""
"","response","","html-keyboard-response","574","572204","0.0-1.0-797.0-0.0","0","0","50182","","156","","","68","88","","","2","88","training","adjacent","CB","3","2","Q.jpg","R.jpg","1","0","0","",""
"","feedback","","html-keyboard-response","575","573207","0.0-1.0-798.0-0.0","0","0","50182","","null","","","null","88","","","","","","","","","","","","","","","",""
"","time_out","","html-keyboard-response","576","575209","0.0-1.0-800.0-0.0","0","0","50182","","null","","","null","88","","","","","","","","","","","","","","","",""
"","ITI","","html-keyboard-response","577","576213","0.0-1.0-801.0","0","0","50182","","null","","","null","88","","","","","","","","","","","","","","","NaN",""
"","S1","","html-keyboard-response","578","576466","0.0-1.0-803.0","0","0","50182","","null","","","null","89","","","","","","","","","","","","","","","",""
"","ISI","","html-keyboard-response","579","577469","0.0-1.0-804.0","0","0","50182","","125","","","75","89","k","","","","","","","","","","","","","","",""
"","S2","","html-keyboard-response","580","577722","0.0-1.0-805.0","0","0","50182","","null","","","null","89","","NaN","","","","","","","","","","","","","",""
"","response","","html-keyboard-response","581","577776","0.0-1.0-806.0-0.0","0","0","50182","","53","","","75","89","","","2","89","training","adjacent","GF","7","6","O.jpg","M.jpg","0","0","1","",""
