"success","ttype","start_time","trial_type","trial_index","time_elapsed","internal_node_id","warning","missed_checkup","PID","view_history","rt","responses","repeat_instructions","key_press","index","keypress_isi","keypress_S2","block","trial_num","phase","group_type","pair_type","S1_stim","S2_stim","S1_img","S2_img","S1_chosen","S1_higher","accuracy","keypress_iti","total_bonus_tally"
"true","full_screen","d03032023hr2343","fullscreen","0","10804","0.0-0.0","0","0","39505","","","","","","","","","","","","","","","","","","","","","",""
"","instructions","","instructions","1","57507","0.0-1.0-0.0-0.0","0","0","39505","[{""page_index"":0,""viewing_time"":6728},{""page_index"":1,""viewing_time"":25373},{""page_index"":2,""viewing_time"":12729},{""page_index"":3,""viewing_time"":1871}]","46701","","","","","","","","","","","","","","","","","","","",""
"","comprehension_check","","survey-multi-choice","2","85241","0.0-1.0-0.0-1.0","0","0","39505","","27731","{""Q0"":""True"",""Q1"":""K"",""Q2"":""Only when the screen 'MAKE A CHOICE' is shown"",""Q3"":""Green mark"",""Q4"":""either D or K""}","1","","","","","","","","","","","","","","","","","",""
"","missed_instruction_checkup","","html-keyboard-response","3","86930","0.0-1.0-0.0-2.0-0.0","0","1","39505","","1686","","","32","","","","","","","","","","","","","","","","",""
"","instructions","","instructions","4","98865","0.0-1.0-0.1-0.1","0","0","39505","[{""page_index"":0,""viewing_time"":3230},{""page_index"":1,""viewing_time"":7074},{""page_index"":2,""viewing_time"":863},{""page_index"":3,""viewing_time"":767}]","11935","","","","","","","","","","","","","","","","","","","",""
"","comprehension_check","","survey-multi-choice","5","112284","0.0-1.0-0.1-1.1","0","0","39505","","13416","{""Q0"":""True"",""Q1"":""K"",""Q2"":""Once the second image appears and while the screen 'MAKE A CHOICE' is shown"",""Q3"":""Green mark"",""Q4"":""either D or K""}","0","","","","","","","","","","","","","","","","","",""
"","start_exp","","html-keyboard-response","6","113586","0.0-1.0-1.0","0","0","39505","","1300","","","32","","","","","","","","","","","","","","","","",""
"","S1","","html-keyboard-response","7","113839","0.0-1.0-2.0","0","0","39505","","null","","","null","0","","","","","","","","","","","","","","","",""
"","ISI","","html-keyboard-response","8","114341","0.0-1.0-3.0","0","0","39505","","null","","","null","0","NaN","","","","","","","","","","","","","","",""
"","S2","","html-keyboard-response","9","114593","0.0-1.0-4.0","0","0","39505","","null","","","null","0","","NaN","","","","","","","","","","","","","",""
"","response","","html-keyboard-response","10","115677","0.0-1.0-5.0-0.0","0","0","39505","","1084","","","75","0","","","1","0","training","adjacent","DE","4","5","O.jpg","P.jpg","1","1","1","",""
"","feedback","","html-keyboard-response","11","116679","0.0-1.0-6.0-0.0","0","0","39505","","null","","","null","0","","","","","","","","","","","","","","","",""
"","ITI","","html-keyboard-response","12","117681","0.0-1.0-9.0","0","0","39505","","null","","","null","0","","","","","","","","","","","","","","","NaN",""
"","S1","","html-keyboard-response","13","117933","0.0-1.0-11.0","0","0","39505","","null","","","null","1","","","","","","","","","","","","","","","",""
"","ISI","","html-keyboard-response","14","118434","0.0-1.0-12.0","0","0","39505","","null","","","null","1","NaN","","","","","","","","","","","","","","",""
"","S2","","html-keyboard-response","15","118700","0.0-1.0-13.0","0","0","39505","","null","","","null","1","","NaN","","","","","","","","","","","","","",""
"","response","","html-keyboard-response","16","119315","0.0-1.0-14.0-0.0","0","0","39505","","613","","","75","1","","","1","1","training","adjacent","ED","5","4","P.jpg","O.jpg","1","0","0","",""
"","feedback","","html-keyboard-response","17","120317","0.0-1.0-15.0-0.0","0","0","39505","","null","","","null","1","","","","","","","","","","","","","","","",""
"","time_out","","html-keyboard-response","18","122318","0.0-1.0-17.0-0.0","0","0","39505","","null","","","null","1","","","","","","","","","","","","","","","",""
"","ITI","","html-keyboard-response","19","123321","0.0-1.0-18.0","0","0","39505","","null","","","null","1","","","","","","","","","","","","","","","NaN",""
"","S1","","html-keyboard-response","20","123574","0.0-1.0-20.0","0","0","39505","","null","","","null","2","","","","","","","","","","","","","","","",""
"","ISI","","html-keyboard-response","21","124076","0.0-1.0-21.0","0","0","39505","","null","","","null","2","NaN","","","","","","","","","","","","","","",""
"","S2","","html-keyboard-response","22","124331","0.0-1.0-22.0","0","0","39505","","null","","","null","2","","NaN","","","","","","","","","","","","","",""
"","response","","html-keyboard-response","23","125092","0.0-1.0-23.0-0.0","0","0","39505","","759","","","75","2","","","1","2","training","adjacent","GF","7","6","M.jpg","L.jpg","1","0","0","",""
"","feedback","","html-keyboard-response","24","126095","0.0-1.0-24.0-0.0","0","0","39505","","null","","","null","2","","","","","","","","","","","","","","","",""
"","time_out","","html-keyboard-response","25","128097","0.0-1.0-26.0-0.0","0","0","39505","","null","","","null","2","","","","","","","","","","","","","","","",""
"","ITI","","html-keyboard-response","26","129099","0.0-1.0-27.0","0","0","39505","","null","","","null","2","","","","","","","","","","","","","","","NaN",""
"","S1","","html-keyboard-response","27","129352","0.0-1.0-29.0","0","0","39505","","null","","","null","3","","","","","","","","","","","","","","","",""
"","ISI","","html-keyboard-response","28","129853","0.0-1.0-30.0","0","0","39505","","null","","","null","3","NaN","","","","","","","","","","","","","","",""
"","S2","","html-keyboard-response","29","130106","0.0-1.0-31.0","0","0","39505","","null","","","null","3","","NaN","","","","","","","","","","","","","",""
"","response","","html-keyboard-response","30","130601","0.0-1.0-32.0-0.0","0","0","39505","","494","","","75","3","","","1","3","training","adjacent","CB","3","2","Q.jpg","N.jpg","1","0","0","",""
"","feedback","","html-keyboard-response","31","131602","0.0-1.0-33.0-0.0","0","0","39505","","null","","","null","3","","","","","","","","","","","","","","","",""
"","time_out","","html-keyboard-response","32","133605","0.0-1.0-35.0-0.0","0","0","39505","","null","","","null","3","","","","","","","","","","","","","","","",""
"","ITI","","html-keyboard-response","33","134607","0.0-1.0-36.0","0","0","39505","","null","","","null","3","","","","","","","","","","","","","","","NaN",""
"","S1","","html-keyboard-response","34","134859","0.0-1.0-38.0","0","0","39505","","null","","","null","4","","","","","","","","","","","","","","","",""
"","ISI","","html-keyboard-response","35","135362","0.0-1.0-39.0","0","0","39505","","null","","","null","4","NaN","","","","","","","","","","","","","","",""
"","S2","","html-keyboard-response","36","135614","0.0-1.0-40.0","0","0","39505","","null","","","null","4","","NaN","","","","","","","","","","","","","",""
"","response","","html-keyboard-response","37","136075","0.0-1.0-41.0-0.0","0","0","39505","","460","","","68","4","","","1","4","training","adjacent","GF","7","6","M.jpg","L.jpg","0","0","1","",""
"","feedback","","html-keyboard-response","38","137077","0.0-1.0-42.0-0.0","0","0","39505","","null","","","null","4","","","","","","","","","","","","","","","",""
"","ITI","","html-keyboard-response","39","138078","0.0-1.0-45.0","0","0","39505","","null","","","null","4","","","","","","","","","","","","","","","NaN",""
"","S1","","html-keyboard-response","40","138330","0.0-1.0-47.0","0","0","39505","","null","","","null","5","","","","","","","","","","","","","","","",""
"","ISI","","html-keyboard-response","41","138832","0.0-1.0-48.0","0","0","39505","","null","","","null","5","NaN","","","","","","","","","","","","","","",""
"","S2","","html-keyboard-response","42","139085","0.0-1.0-49.0","0","0","39505","","null","","","null","5","","NaN","","","","","","","","","","","","","",""
"","response","","html-keyboard-response","43","139516","0.0-1.0-50.0-0.0","0","0","39505","","431","","","68","5","","","1","5","training","adjacent","AB","1","2","R.jpg","N.jpg","0","1","0","",""
"","feedback","","html-keyboard-response","44","140522","0.0-1.0-51.0-0.0","0","0","39505","","null","","","null","5","","","","","","","","","","","","","","","",""
"","time_out","","html-keyboard-response","45","142524","0.0-1.0-53.0-0.0","0","0","39505","","null","","","null","5","","","","","","","","","","","","","","","",""
"","ITI","","html-keyboard-response","46","143526","0.0-1.0-54.0","0","0","39505","","null","","","null","5","","","","","","","","","","","","","","","NaN",""
"","S1","","html-keyboard-response","47","143779","0.0-1.0-56.0","0","0","39505","","null","","","null","6","","","","","","","","","","","","","","","",""
"","ISI","","html-keyboard-response","48","144282","0.0-1.0-57.0","0","0","39505","","null","","","null","6","NaN","","","","","","","","","","","","","","",""
"","S2","","html-keyboard-response","49","144535","0.0-1.0-58.0","0","0","39505","","null","","","null","6","","NaN","","","","","","","","","","","","","",""
"","response","","html-keyboard-response","50","144914","0.0-1.0-59.0-0.0","0","0","39505","","378","","","75","6","","","1","6","training","adjacent","FE","6","5","L.jpg","P.jpg","1","0","0","",""
"","feedback","","html-keyboard-response","51","145916","0.0-1.0-60.0-0.0","0","0","39505","","null","","","null","6","","","","","","","","","","","","","","","",""
"","time_out","","html-keyboard-response","52","147918","0.0-1.0-62.0-0.0","0","0","39505","","null","","","null","6","","","","","","","","","","","","","","","",""
"","ITI","","html-keyboard-response","53","148920","0.0-1.0-63.0","0","0","39505","","null","","","null","6","","","","","","","","","","","","","","","NaN",""
"","S1","","html-keyboard-response","54","149173","0.0-1.0-65.0","0","0","39505","","null","","","null","7","","","","","","","","","","","","","","","",""
"","ISI","","html-keyboard-response","55","149676","0.0-1.0-66.0","0","0","39505","","null","","","null","7","NaN","","","","","","","","","","","","","","",""
"","S2","","html-keyboard-response","56","149927","0.0-1.0-67.0","0","0","39505","","null","","","null","7","","NaN","","","","","","","","","","","","","",""
"","response","","html-keyboard-response","57","150244","0.0-1.0-68.0-0.0","0","0","39505","","316","","","75","7","","","1","7","training","adjacent","CD","3","4","Q.jpg","O.jpg","1","1","1","",""
"","feedback","","html-keyboard-response","58","151246","0.0-1.0-69.0-0.0","0","0","39505","","null","","","null","7","","","","","","","","","","","","","","","",""
"","ITI","","html-keyboard-response","59","152248","0.0-1.0-72.0","0","0","39505","","null","","","null","7","","","","","","","","","","","","","","","NaN",""
"","S1","","html-keyboard-response","60","152500","0.0-1.0-74.0","0","0","39505","","null","","","null","8","","","","","","","","","","","","","","","",""
"","ISI","","html-keyboard-response","61","153002","0.0-1.0-75.0","0","0","39505","","null","","","null","8","NaN","","","","","","","","","","","","","","",""
"","S2","","html-keyboard-response","62","153254","0.0-1.0-76.0","0","0","39505","","null","","","null","8","","NaN","","","","","","","","","","","","","",""
"","response","","html-keyboard-response","63","153543","0.0-1.0-77.0-0.0","0","0","39505","","287","","","68","8","","","1","8","training","adjacent","DC","4","3","O.jpg","Q.jpg","0","0","1","",""
"","feedback","","html-keyboard-response","64","154544","0.0-1.0-78.0-0.0","0","0","39505","","null","","","null","8","","","","","","","","","","","","","","","",""
"","ITI","","html-keyboard-response","65","155547","0.0-1.0-81.0","0","0","39505","","null","","","null","8","","","","","","","","","","","","","","","NaN",""
"","S1","","html-keyboard-response","66","155799","0.0-1.0-83.0","0","0","39505","","null","","","null","9","","","","","","","","","","","","","","","",""
"","ISI","","html-keyboard-response","67","156302","0.0-1.0-84.0","0","0","39505","","null","","","null","9","NaN","","","","","","","","","","","","","","",""
"","S2","","html-keyboard-response","68","156555","0.0-1.0-85.0","0","0","39505","","null","","","null","9","","NaN","","","","","","","","","","","","","",""
"","response","","html-keyboard-response","69","156988","0.0-1.0-86.0-0.0","0","0","39505","","433","","","68","9","","","1","9","training","adjacent","ED","5","4","P.jpg","O.jpg","0","0","1","",""
"","feedback","","html-keyboard-response","70","157991","0.0-1.0-87.0-0.0","0","0","39505","","null","","","null","9","","","","","","","","","","","","","","","",""
"","ITI","","html-keyboard-response","71","158994","0.0-1.0-90.0","0","0","39505","","null","","","null","9","","","","","","","","","","","","","","","NaN",""
"","S1","","html-keyboard-response","72","159260","0.0-1.0-92.0","0","0","39505","","null","","","null","10","","","","","","","","","","","","","","","",""
"","ISI","","html-keyboard-response","73","159763","0.0-1.0-93.0","0","0","39505","","null","","","null","10","NaN","","","","","","","","","","","","","","",""
"","S2","","html-keyboard-response","74","160016","0.0-1.0-94.0","0","0","39505","","null","","","null","10","","NaN","","","","","","","","","","","","","",""
"","response","","html-keyboard-response","75","160473","0.0-1.0-95.0-0.0","0","0","39505","","456","","","68","10","","","1","10","training","adjacent","ED","5","4","P.jpg","O.jpg","0","0","1","",""
"","feedback","","html-keyboard-response","76","161476","0.0-1.0-96.0-0.0","0","0","39505","","null","","","null","10","","","","","","","","","","","","","","","",""
"","ITI","","html-keyboard-response","77","162479","0.0-1.0-99.0","0","0","39505","","null","","","null","10","","","","","","","","","","","","","","","NaN",""
"","S1","","html-keyboard-response","78","162731","0.0-1.0-101.0","0","0","39505","","null","","","null","11","","","","","","","","","","","","","","","",""
"","ISI","","html-keyboard-response","79","163233","0.0-1.0-102.0","0","0","39505","","null","","","null","11","NaN","","","","","","","","","","","","","","",""
"","S2","","html-keyboard-response","80","163485","0.0-1.0-103.0","0","0","39505","","null","","","null","11","","NaN","","","","","","","","","","","","","",""
"","response","","html-keyboard-response","81","163887","0.0-1.0-104.0-0.0","0","0","39505","","400","","","75","11","","","1","11","training","adjacent","BA","2","1","N.jpg","R.jpg","1","0","0","",""
"","feedback","","html-keyboard-response","82","164890","0.0-1.0-105.0-0.0","0","0","39505","","null","","","null","11","","","","","","","","","","","","","","","",""
"","time_out","","html-keyboard-response","83","166892","0.0-1.0-107.0-0.0","0","0","39505","","null","","","null","11","","","","","","","","","","","","","","","",""
"","ITI","","html-keyboard-response","84","167895","0.0-1.0-108.0","0","0","39505","","null","","","null","11","","","","","","","","","","","","","","","NaN",""
"","S1","","html-keyboard-response","85","168151","0.0-1.0-110.0","0","0","39505","","null","","","null","12","","","","","","","","","","","","","","","",""
"","ISI","","html-keyboard-response","86","168653","0.0-1.0-111.0","0","0","39505","","null","","","null","12","NaN","","","","","","","","","","","","","","",""
"","S2","","html-keyboard-response","87","168906","0.0-1.0-112.0","0","0","39505","","null","","","null","12","","NaN","","","","","","","","","","","","","",""
"","response","","html-keyboard-response","88","169423","0.0-1.0-113.0-0.0","0","0","39505","","516","","","75","12","","","1","12","training","adjacent","DE","4","5","O.jpg","P.jpg","1","1","1","",""
"","feedback","","html-keyboard-response","89","170424","0.0-1.0-114.0-0.0","0","0","39505","","null","","","null","12","","","","","","","","","","","","","","","",""
"","ITI","","html-keyboard-response","90","171427","0.0-1.0-117.0","0","0","39505","","null","","","null","12","","","","","","","","","","","","","","","NaN",""
"","S1","","html-keyboard-response","91","171679","0.0-1.0-119.0","0","0","39505","","null","","","null","13","","","","","","","","","","","","","","","",""
"","ISI","","html-keyboard-response","92","172181","0.0-1.0-120.0","0","0","39505","","null","","","null","13","NaN","","","","","","","","","","","","","","",""
"","S2","","html-keyboard-response","93","172433","0.0-1.0-121.0","0","0","39505","","null","","","null","13","","NaN","","","","","","","","","","","","","",""
"","response","","html-keyboard-response","94","172927","0.0-1.0-122.0-0.0","0","0","39505","","493","","","68","13","","","1","13","training","adjacent","EF","5","6","P.jpg","L.jpg","0","1","0","",""
"","feedback","","html-keyboard-response","95","173930","0.0-1.0-123.0-0.0","0","0","39505","","null","","","null","13","","","","","","","","","","","","","","","",""
"","time_out","","html-keyboard-response","96","175931","0.0-1.0-125.0-0.0","0","0","39505","","null","","","null","13","","","","","","","","","","","","","","","",""
"","ITI","","html-keyboard-response","97","176933","0.0-1.0-126.0","0","0","39505","","null","","","null","13","","","","","","","","","","","","","","","NaN",""
"","S1","","html-keyboard-response","98","177186","0.0-1.0-128.0","0","0","39505","","null","","","null","14","","","","","","","","","","","","","","","",""
"","ISI","","html-keyboard-response","99","177688","0.0-1.0-129.0","0","0","39505","","null","","","null","14","NaN","","","","","","","","","","","","","","",""
"","S2","","html-keyboard-response","100","177940","0.0-1.0-130.0","0","0","39505","","null","","","null","14","","NaN","","","","","","","","","","","","","",""
"","response","","html-keyboard-response","101","178224","0.0-1.0-131.0-0.0","0","0","39505","","282","","","75","14","","","1","14","training","adjacent","FG","6","7","L.jpg","M.jpg","1","1","1","",""
"","feedback","","html-keyboard-response","102","179226","0.0-1.0-132.0-0.0","0","0","39505","","null","","","null","14","","","","","","","","","","","","","","","",""
"","ITI","","html-keyboard-response","103","180231","0.0-1.0-135.0","0","0","39505","","null","","","null","14","","","","","","","","","","","","","","","NaN",""
"","S1","","html-keyboard-response","104","180484","0.0-1.0-137.0","0","0","39505","","null","","","null","15","","","","","","","","","","","","","","","",""
"","ISI","","html-keyboard-response","105","180987","0.0-1.0-138.0","0","0","39505","","null","","","null","15","NaN","","","","","","","","","","","","","","",""
"","S2","","html-keyboard-response","106","181239","0.0-1.0-139.0","0","0","39505","","null","","","null","15","","NaN","","","","","","","","","","","","","",""
"","response","","html-keyboard-response","107","181887","0.0-1.0-140.0-0.0","0","0","39505","","646","","","68","15","","","1","15","training","adjacent","BA","2","1","N.jpg","R.jpg","0","0","1","",""
"","feedback","","html-keyboard-response","108","182898","0.0-1.0-141.0-0.0","0","0","39505","","null","","","null","15","","","","","","","","","","","","","","","",""
"","ITI","","html-keyboard-response","109","183899","0.0-1.0-144.0","0","0","39505","","null","","","null","15","","","","","","","","","","","","","","","NaN",""
"","S1","","html-keyboard-response","110","184152","0.0-1.0-146.0","0","0","39505","","null","","","null","16","","","","","","","","","","","","","","","",""
"","ISI","","html-keyboard-response","111","184655","0.0-1.0-147.0","0","0","39505","","null","","","null","16","NaN","","","","","","","","","","","","","","",""
"","S2","","html-keyboard-response","112","184917","0.0-1.0-148.0","0","0","39505","","null","","","null","16","","NaN","","","","","","","","","","","","","",""
"","response","","html-keyboard-response","113","185272","0.0-1.0-149.0-0.0","0","0","39505","","353","","","75","16","","","1","16","training","adjacent","FE","6","5","L.jpg","P.jpg","1","0","0","",""
"","feedback","","html-keyboard-response","114","186273","0.0-1.0-150.0-0.0","0","0","39505","","null","","","null","16","","","","","","","","","","","","","","","",""
"","time_out","","html-keyboard-response","115","188275","0.0-1.0-152.0-0.0","0","0","39505","","null","","","null","16","","","","","","","","","","","","","","","",""
"","ITI","","html-keyboard-response","116","189277","0.0-1.0-153.0","0","0","39505","","null","","","null","16","","","","","","","","","","","","","","","NaN",""
"","S1","","html-keyboard-response","117","189529","0.0-1.0-155.0","0","0","39505","","null","","","null","17","","","","","","","","","","","","","","","",""
"","ISI","","html-keyboard-response","118","190032","0.0-1.0-156.0","0","0","39505","","null","","","null","17","NaN","","","","","","","","","","","","","","",""
"","S2","","html-keyboard-response","119","190284","0.0-1.0-157.0","0","0","39505","","null","","","null","17","","NaN","","","","","","","","","","","","","",""
"","response","","html-keyboard-response","120","190626","0.0-1.0-158.0-0.0","0","0","39505","","340","","","68","17","","","1","17","training","adjacent","AB","1","2","R.jpg","N.jpg","0","1","0","",""
"","feedback","","html-keyboard-response","121","191627","0.0-1.0-159.0-0.0","0","0","39505","","null","","","null","17","","","","","","","","","","","","","","","",""
"","time_out","","html-keyboard-response","122","193629","0.0-1.0-161.0-0.0","0","0","39505","","null","","","null","17","","","","","","","","","","","","","","","",""
"","ITI","","html-keyboard-response","123","194631","0.0-1.0-162.0","0","0","39505","","null","","","null","17","","","","","","","","","","","","","","","NaN",""
"","S1","","html-keyboard-response","124","194883","0.0-1.0-164.0","0","0","39505","","null","","","null","18","","","","","","","","","","","","","","","",""
"","ISI","","html-keyboard-response","125","195385","0.0-1.0-165.0","0","0","39505","","null","","","null","18","NaN","","","","","","","","","","","","","","",""
"","S2","","html-keyboard-response","126","195637","0.0-1.0-166.0","0","0","39505","","null","","","null","18","","NaN","","","","","","","","","","","","","",""
"","response","","html-keyboard-response","127","196023","0.0-1.0-167.0-0.0","0","0","39505","","386","","","75","18","","","1","18","training","adjacent","DC","4","3","O.jpg","Q.jpg","1","0","0","",""
"","feedback","","html-keyboard-response","128","197025","0.0-1.0-168.0-0.0","0","0","39505","","null","","","null","18","","","","","","","","","","","","","","","",""
"","time_out","","html-keyboard-response","129","199027","0.0-1.0-170.0-0.0","0","0","39505","","null","","","null","18","","","","","","","","","","","","","","","",""
"","ITI","","html-keyboard-response","130","200028","0.0-1.0-171.0","0","0","39505","","null","","","null","18","","","","","","","","","","","","","","","NaN",""
"","S1","","html-keyboard-response","131","200281","0.0-1.0-173.0","0","0","39505","","null","","","null","19","","","","","","","","","","","","","","","",""
"","ISI","","html-keyboard-response","132","200783","0.0-1.0-174.0","0","0","39505","","null","","","null","19","NaN","","","","","","","","","","","","","","",""
"","S2","","html-keyboard-response","133","201036","0.0-1.0-175.0","0","0","39505","","null","","","null","19","","NaN","","","","","","","","","","","","","",""
"","response","","html-keyboard-response","134","201456","0.0-1.0-176.0-0.0","0","0","39505","","420","","","75","19","","","1","19","training","adjacent","DC","4","3","O.jpg","Q.jpg","1","0","0","",""
"","feedback","","html-keyboard-response","135","202458","0.0-1.0-177.0-0.0","0","0","39505","","null","","","null","19","","","","","","","","","","","","","","","",""
"","time_out","","html-keyboard-response","136","204460","0.0-1.0-179.0-0.0","0","0","39505","","null","","","null","19","","","","","","","","","","","","","","","",""
"","ITI","","html-keyboard-response","137","205463","0.0-1.0-180.0","0","0","39505","","null","","","null","19","","","","","","","","","","","","","","","NaN",""
"","S1","","html-keyboard-response","138","205722","0.0-1.0-182.0","0","0","39505","","null","","","null","20","","","","","","","","","","","","","","","",""
"","ISI","","html-keyboard-response","139","206224","0.0-1.0-183.0","0","0","39505","","null","","","null","20","NaN","","","","","","","","","","","","","","",""
"","S2","","html-keyboard-response","140","206475","0.0-1.0-184.0","0","0","39505","","null","","","null","20","","NaN","","","","","","","","","","","","","",""
"","response","","html-keyboard-response","141","206979","0.0-1.0-185.0-0.0","0","0","39505","","503","","","68","20","","","1","20","training","adjacent","EF","5","6","P.jpg","L.jpg","0","1","0","",""
"","feedback","","html-keyboard-response","142","207981","0.0-1.0-186.0-0.0","0","0","39505","","null","","","null","20","","","","","","","","","","","","","","","",""
"","time_out","","html-keyboard-response","143","209983","0.0-1.0-188.0-0.0","0","0","39505","","null","","","null","20","","","","","","","","","","","","","","","",""
"","ITI","","html-keyboard-response","144","210985","0.0-1.0-189.0","0","0","39505","","null","","","null","20","","","","","","","","","","","","","","","NaN",""
"","S1","","html-keyboard-response","145","211246","0.0-1.0-191.0","0","0","39505","","null","","","null","21","","","","","","","","","","","","","","","",""
"","ISI","","html-keyboard-response","146","211747","0.0-1.0-192.0","0","0","39505","","null","","","null","21","NaN","","","","","","","","","","","","","","",""
"","S2","","html-keyboard-response","147","211999","0.0-1.0-193.0","0","0","39505","","null","","","null","21","","NaN","","","","","","","","","","","","","",""
"","response","","html-keyboard-response","148","212754","0.0-1.0-194.0-0.0","0","0","39505","","755","","","75","21","","","1","21","training","adjacent","BA","2","1","N.jpg","R.jpg","1","0","0","",""
"","feedback","","html-keyboard-response","149","213757","0.0-1.0-195.0-0.0","0","0","39505","","null","","","null","21","","","","","","","","","","","","","","","",""
"","time_out","","html-keyboard-response","150","215759","0.0-1.0-197.0-0.0","0","0","39505","","null","","","null","21","","","","","","","","","","","","","","","",""
"","ITI","","html-keyboard-response","151","216761","0.0-1.0-198.0","0","0","39505","","null","","","null","21","","","","","","","","","","","","","","","NaN",""
"","S1","","html-keyboard-response","152","217013","0.0-1.0-200.0","0","0","39505","","null","","","null","22","","","","","","","","","","","","","","","",""
"","ISI","","html-keyboard-response","153","217515","0.0-1.0-201.0","0","0","39505","","null","","","null","22","NaN","","","","","","","","","","","","","","",""
"","S2","","html-keyboard-response","154","217769","0.0-1.0-202.0","0","0","39505","","null","","","null","22","","NaN","","","","","","","","","","","","","",""
"","response","","html-keyboard-response","155","218171","0.0-1.0-203.0-0.0","0","0","39505","","402","","","75","22","","","1","22","training","adjacent","FG","6","7","L.jpg","M.jpg","1","1","1","",""
"","feedback","","html-keyboard-response","156","219175","0.0-1.0-204.0-0.0","0","0","39505","","null","","","null","22","","","","","","","","","","","","","","","",""
"","ITI","","html-keyboard-response","157","220177","0.0-1.0-207.0","0","0","39505","","null","","","null","22","","","","","","","","","","","","","","","NaN",""
"","S1","","html-keyboard-response","158","220429","0.0-1.0-209.0","0","0","39505","","null","","","null","23","","","","","","","","","","","","","","","",""
"","ISI","","html-keyboard-response","159","220932","0.0-1.0-210.0","0","0","39505","","null","","","null","23","NaN","","","","","","","","","","","","","","",""
"","S2","","html-keyboard-response","160","221184","0.0-1.0-211.0","0","0","39505","","null","","","null","23","","NaN","","","","","","","","","","","","","",""
"","response","","html-keyboard-response","161","221714","0.0-1.0-212.0-0.0","0","0","39505","","529","","","68","23","","","1","23","training","adjacent","BC","2","3","N.jpg","Q.jpg","0","1","0","",""
"","feedback","","html-keyboard-response","162","222716","0.0-1.0-213.0-0.0","0","0","39505","","null","","","null","23","","","","","","","","","","","","","","","",""
"","time_out","","html-keyboard-response","163","224718","0.0-1.0-215.0-0.0","0","0","39505","","null","","","null","23","","","","","","","","","","","","","","","",""
"","ITI","","html-keyboard-response","164","225719","0.0-1.0-216.0","0","0","39505","","null","","","null","23","","","","","","","","","","","","","","","NaN",""
"","S1","","html-keyboard-response","165","225972","0.0-1.0-218.0","0","0","39505","","null","","","null","24","","","","","","","","","","","","","","","",""
"","ISI","","html-keyboard-response","166","226475","0.0-1.0-219.0","0","0","39505","","null","","","null","24","NaN","","","","","","","","","","","","","","",""
"","S2","","html-keyboard-response","167","226727","0.0-1.0-220.0","0","0","39505","","null","","","null","24","","NaN","","","","","","","","","","","","","",""
"","response","","html-keyboard-response","168","227476","0.0-1.0-221.0-0.0","0","0","39505","","748","","","75","24","","","1","24","training","adjacent","CB","3","2","Q.jpg","N.jpg","1","0","0","",""
"","feedback","","html-keyboard-response","169","228478","0.0-1.0-222.0-0.0","0","0","39505","","null","","","null","24","","","","","","","","","","","","","","","",""
"","time_out","","html-keyboard-response","170","230480","0.0-1.0-224.0-0.0","0","0","39505","","null","","","null","24","","","","","","","","","","","","","","","",""
"","ITI","","html-keyboard-response","171","231483","0.0-1.0-225.0","0","0","39505","","null","","","null","24","","","","","","","","","","","","","","","NaN",""
"","S1","","html-keyboard-response","172","231735","0.0-1.0-227.0","0","0","39505","","null","","","null","25","","","","","","","","","","","","","","","",""
"","ISI","","html-keyboard-response","173","232238","0.0-1.0-228.0","0","0","39505","","null","","","null","25","NaN","","","","","","","","","","","","","","",""
"","S2","","html-keyboard-response","174","232490","0.0-1.0-229.0","0","0","39505","","null","","","null","25","","NaN","","","","","","","","","","","","","",""
"","response","","html-keyboard-response","175","232940","0.0-1.0-230.0-0.0","0","0","39505","","448","","","75","25","","","1","25","training","adjacent","EF","5","6","P.jpg","L.jpg","1","1","1","",""
"","feedback","","html-keyboard-response","176","233942","0.0-1.0-231.0-0.0","0","0","39505","","null","","","null","25","","","","","","","","","","","","","","","",""
"","ITI","","html-keyboard-response","177","234945","0.0-1.0-234.0","0","0","39505","","null","","","null","25","","","","","","","","","","","","","","","NaN",""
"","S1","","html-keyboard-response","178","235198","0.0-1.0-236.0","0","0","39505","","null","","","null","26","","","","","","","","","","","","","","","",""
"","ISI","","html-keyboard-response","179","235700","0.0-1.0-237.0","0","0","39505","","null","","","null","26","NaN","","","","","","","","","","","","","","",""
"","S2","","html-keyboard-response","180","235952","0.0-1.0-238.0","0","0","39505","","null","","","null","26","","NaN","","","","","","","","","","","","","",""
"","response","","html-keyboard-response","181","236471","0.0-1.0-239.0-0.0","0","0","39505","","518","","","75","26","","","1","26","training","adjacent","DC","4","3","O.jpg","Q.jpg","1","0","0","",""
"","feedback","","html-keyboard-response","182","237473","0.0-1.0-240.0-0.0","0","0","39505","","null","","","null","26","","","","","","","","","","","","","","","",""
"","time_out","","html-keyboard-response","183","239475","0.0-1.0-242.0-0.0","0","0","39505","","null","","","null","26","","","","","","","","","","","","","","","",""
"","ITI","","html-keyboard-response","184","240477","0.0-1.0-243.0","0","0","39505","","null","","","null","26","","","","","","","","","","","","","","","NaN",""
"","S1","","html-keyboard-response","185","240728","0.0-1.0-245.0","0","0","39505","","null","","","null","27","","","","","","","","","","","","","","","",""
"","ISI","","html-keyboard-response","186","241230","0.0-1.0-246.0","0","0","39505","","null","","","null","27","NaN","","","","","","","","","","","","","","",""
"","S2","","html-keyboard-response","187","241481","0.0-1.0-247.0","0","0","39505","","null","","","null","27","","NaN","","","","","","","","","","","","","",""
"","response","","html-keyboard-response","188","242140","0.0-1.0-248.0-0.0","0","0","39505","","657","","","68","27","","","1","27","training","adjacent","CD","3","4","Q.jpg","O.jpg","0","1","0","",""
"","feedback","","html-keyboard-response","189","243141","0.0-1.0-249.0-0.0","0","0","39505","","null","","","null","27","","","","","","","","","","","","","","","",""
"","time_out","","html-keyboard-response","190","245143","0.0-1.0-251.0-0.0","0","0","39505","","null","","","null","27","","","","","","","","","","","","","","","",""
"","ITI","","html-keyboard-response","191","246145","0.0-1.0-252.0","0","0","39505","","null","","","null","27","","","","","","","","","","","","","","","NaN",""
"","S1","","html-keyboard-response","192","246408","0.0-1.0-254.0","0","0","39505","","null","","","null","28","","","","","","","","","","","","","","","",""
"","ISI","","html-keyboard-response","193","246910","0.0-1.0-255.0","0","0","39505","","null","","","null","28","NaN","","","","","","","","","","","","","","",""
"","S2","","html-keyboard-response","194","247176","0.0-1.0-256.0","0","0","39505","","null","","","null","28","","NaN","","","","","","","","","","","","","",""
"","response","","html-keyboard-response","195","247899","0.0-1.0-257.0-0.0","0","0","39505","","721","","","75","28","","","1","28","training","adjacent","FG","6","7","L.jpg","M.jpg","1","1","1","",""
"","feedback","","html-keyboard-response","196","248901","0.0-1.0-258.0-0.0","0","0","39505","","null","","","null","28","","","","","","","","","","","","","","","",""
"","ITI","","html-keyboard-response","197","249903","0.0-1.0-261.0","0","0","39505","","null","","","null","28","","","","","","","","","","","","","","","NaN",""
"","S1","","html-keyboard-response","198","250156","0.0-1.0-263.0","0","0","39505","","null","","","null","29","","","","","","","","","","","","","","","",""
"","ISI","","html-keyboard-response","199","250658","0.0-1.0-264.0","0","0","39505","","null","","","null","29","NaN","","","","","","","","","","","","","","",""
"","S2","","html-keyboard-response","200","250910","0.0-1.0-265.0","0","0","39505","","null","","","null","29","","NaN","","","","","","","","","","","","","",""
"","response","","html-keyboard-response","201","251675","0.0-1.0-266.0-0.0","0","0","39505","","763","","","75","29","","","1","29","training","adjacent","CB","3","2","Q.jpg","N.jpg","1","0","0","",""
"","feedback","","html-keyboard-response","202","252676","0.0-1.0-267.0-0.0","0","0","39505","","null","","","null","29","","","","","","","","","","","","","","","",""
"","time_out","","html-keyboard-response","203","254678","0.0-1.0-269.0-0.0","0","0","39505","","null","","","null","29","","","","","","","","","","","","","","","",""
"","ITI","","html-keyboard-response","204","255691","0.0-1.0-270.0","0","0","39505","","null","","","null","29","","","","","","","","","","","","","","","NaN",""
"","S1","","html-keyboard-response","205","255944","0.0-1.0-272.0","0","0","39505","","null","","","null","30","","","","","","","","","","","","","","","",""
"","ISI","","html-keyboard-response","206","256446","0.0-1.0-273.0","0","0","39505","","null","","","null","30","NaN","","","","","","","","","","","","","","",""
"","S2","","html-keyboard-response","207","256700","0.0-1.0-274.0","0","0","39505","","null","","","null","30","","NaN","","","","","","","","","","","","","",""
"","response","","html-keyboard-response","208","257308","0.0-1.0-275.0-0.0","0","0","39505","","607","","","75","30","","","1","30","training","adjacent","DE","4","5","O.jpg","P.jpg","1","1","1","",""
"","feedback","","html-keyboard-response","209","258312","0.0-1.0-276.0-0.0","0","0","39505","","null","","","null","30","","","","","","","","","","","","","","","",""
"","ITI","","html-keyboard-response","210","259314","0.0-1.0-279.0","0","0","39505","","null","","","null","30","","","","","","","","","","","","","","","NaN",""
"","S1","","html-keyboard-response","211","259566","0.0-1.0-281.0","0","0","39505","","null","","","null","31","","","","","","","","","","","","","","","",""
"","ISI","","html-keyboard-response","212","260068","0.0-1.0-282.0","0","0","39505","","null","","","null","31","NaN","","","","","","","","","","","","","","",""
"","S2","","html-keyboard-response","213","260319","0.0-1.0-283.0","0","0","39505","","null","","","null","31","","NaN","","","","","","","","","","","","","",""
"","response","","html-keyboard-response","214","261234","0.0-1.0-284.0-0.0","0","0","39505","","913","","","75","31","","","1","31","training","adjacent","CB","3","2","Q.jpg","N.jpg","1","0","0","",""
"","feedback","","html-keyboard-response","215","262236","0.0-1.0-285.0-0.0","0","0","39505","","null","","","null","31","","","","","","","","","","","","","","","",""
"","time_out","","html-keyboard-response","216","264239","0.0-1.0-287.0-0.0","0","0","39505","","null","","","null","31","","","","","","","","","","","","","","","",""
"","ITI","","html-keyboard-response","217","265241","0.0-1.0-288.0","0","0","39505","","null","","","null","31","","","","","","","","","","","","","","","NaN",""
"","S1","","html-keyboard-response","218","265493","0.0-1.0-290.0","0","0","39505","","null","","","null","32","","","","","","","","","","","","","","","",""
"","ISI","","html-keyboard-response","219","265997","0.0-1.0-291.0","0","0","39505","","null","","","null","32","NaN","","","","","","","","","","","","","","",""
"","S2","","html-keyboard-response","220","266250","0.0-1.0-292.0","0","0","39505","","null","","","null","32","","NaN","","","","","","","","","","","","","",""
"","response","","html-keyboard-response","221","266646","0.0-1.0-293.0-0.0","0","0","39505","","395","","","68","32","","","1","32","training","adjacent","BC","2","3","N.jpg","Q.jpg","0","1","0","",""
"","feedback","","html-keyboard-response","222","267648","0.0-1.0-294.0-0.0","0","0","39505","","null","","","null","32","","","","","","","","","","","","","","","",""
"","time_out","","html-keyboard-response","223","269650","0.0-1.0-296.0-0.0","0","0","39505","","null","","","null","32","","","","","","","","","","","","","","","",""
"","ITI","","html-keyboard-response","224","270653","0.0-1.0-297.0","0","0","39505","","null","","","null","32","","","","","","","","","","","","","","","NaN",""
"","S1","","html-keyboard-response","225","270905","0.0-1.0-299.0","0","0","39505","","null","","","null","33","","","","","","","","","","","","","","","",""
"","ISI","","html-keyboard-response","226","271417","0.0-1.0-300.0","0","0","39505","","null","","","null","33","NaN","","","","","","","","","","","","","","",""
"","S2","","html-keyboard-response","227","271669","0.0-1.0-301.0","0","0","39505","","null","","","null","33","","NaN","","","","","","","","","","","","","",""
"","response","","html-keyboard-response","228","272108","0.0-1.0-302.0-0.0","0","0","39505","","437","","","75","33","","","1","33","training","adjacent","DE","4","5","O.jpg","P.jpg","1","1","1","",""
"","feedback","","html-keyboard-response","229","273119","0.0-1.0-303.0-0.0","0","0","39505","","null","","","null","33","","","","","","","","","","","","","","","",""
"","ITI","","html-keyboard-response","230","274122","0.0-1.0-306.0","0","0","39505","","null","","","null","33","","","","","","","","","","","","","","","NaN",""
"","S1","","html-keyboard-response","231","274373","0.0-1.0-308.0","0","0","39505","","null","","","null","34","","","","","","","","","","","","","","","",""
"","ISI","","html-keyboard-response","232","274876","0.0-1.0-309.0","0","0","39505","","null","","","null","34","NaN","","","","","","","","","","","","","","",""
"","S2","","html-keyboard-response","233","275129","0.0-1.0-310.0","0","0","39505","","null","","","null","34","","NaN","","","","","","","","","","","","","",""
"","response","","html-keyboard-response","234","275857","0.0-1.0-311.0-0.0","0","0","39505","","727","","","68","34","","","1","34","training","adjacent","GF","7","6","M.jpg","L.jpg","0","0","1","",""
"","feedback","","html-keyboard-response","235","276859","0.0-1.0-312.0-0.0","0","0","39505","","null","","","null","34","","","","","","","","","","","","","","","",""
"","ITI","","html-keyboard-response","236","277862","0.0-1.0-315.0","0","0","39505","","null","","","null","34","","","","","","","","","","","","","","","NaN",""
"","S1","","html-keyboard-response","237","278114","0.0-1.0-317.0","0","0","39505","","null","","","null","35","","","","","","","","","","","","","","","",""
"","ISI","","html-keyboard-response","238","278620","0.0-1.0-318.0","0","0","39505","","null","","","null","35","NaN","","","","","","","","","","","","","","",""
"","S2","","html-keyboard-response","239","278872","0.0-1.0-319.0","0","0","39505","","null","","","null","35","","NaN","","","","","","","","","","","","","",""
"","response","","html-keyboard-response","240","279291","0.0-1.0-320.0-0.0","0","0","39505","","419","","","68","35","","","1","35","training","adjacent","BA","2","1","N.jpg","R.jpg","0","0","1","",""
"","feedback","","html-keyboard-response","241","280294","0.0-1.0-321.0-0.0","0","0","39505","","null","","","null","35","","","","","","","","","","","","","","","",""
"","ITI","","html-keyboard-response","242","281297","0.0-1.0-324.0","0","0","39505","","null","","","null","35","","","","","","","","","","","","","","","NaN",""
"","S1","","html-keyboard-response","243","281550","0.0-1.0-326.0","0","0","39505","","null","","","null","36","","","","","","","","","","","","","","","",""
"","ISI","","html-keyboard-response","244","282052","0.0-1.0-327.0","0","0","39505","","null","","","null","36","NaN","","","","","","","","","","","","","","",""
"","S2","","html-keyboard-response","245","282304","0.0-1.0-328.0","0","0","39505","","null","","","null","36","","NaN","","","","","","","","","","","","","",""
"","response","","html-keyboard-response","246","282873","0.0-1.0-329.0-0.0","0","0","39505","","569","","","68","36","","","1","36","training","adjacent","BC","2","3","N.jpg","Q.jpg","0","1","0","",""
"","feedback","","html-keyboard-response","247","283877","0.0-1.0-330.0-0.0","0","0","39505","","null","","","null","36","","","","","","","","","","","","","","","",""
"","time_out","","html-keyboard-response","248","285878","0.0-1.0-332.0-0.0","0","0","39505","","null","","","null","36","","","","","","","","","","","","","","","",""
"","ITI","","html-keyboard-response","249","286880","0.0-1.0-333.0","0","0","39505","","null","","","null","36","","","","","","","","","","","","","","","NaN",""
"","S1","","html-keyboard-response","250","287133","0.0-1.0-335.0","0","0","39505","","null","","","null","37","","","","","","","","","","","","","","","",""
"","ISI","","html-keyboard-response","251","287635","0.0-1.0-336.0","0","0","39505","","null","","","null","37","NaN","","","","","","","","","","","","","","",""
"","S2","","html-keyboard-response","252","287893","0.0-1.0-337.0","0","0","39505","","null","","","null","37","","NaN","","","","","","","","","","","","","",""
"","response","","html-keyboard-response","253","288451","0.0-1.0-338.0-0.0","0","0","39505","","557","","","75","37","","","1","37","training","adjacent","FE","6","5","L.jpg","P.jpg","1","0","0","",""
"","feedback","","html-keyboard-response","254","289453","0.0-1.0-339.0-0.0","0","0","39505","","null","","","null","37","","","","","","","","","","","","","","","",""
"","time_out","","html-keyboard-response","255","291455","0.0-1.0-341.0-0.0","0","0","39505","","null","","","null","37","","","","","","","","","","","","","","","",""
"","ITI","","html-keyboard-response","256","292457","0.0-1.0-342.0","0","0","39505","","null","","","null","37","","","","","","","","","","","","","","","NaN",""
"","S1","","html-keyboard-response","257","292710","0.0-1.0-344.0","0","0","39505","","null","","","null","38","","","","","","","","","","","","","","","",""
"","ISI","","html-keyboard-response","258","293211","0.0-1.0-345.0","0","0","39505","","null","","","null","38","NaN","","","","","","","","","","","","","","",""
"","S2","","html-keyboard-response","259","293464","0.0-1.0-346.0","0","0","39505","","null","","","null","38","","NaN","","","","","","","","","","","","","",""
"","response","","html-keyboard-response","260","294216","0.0-1.0-347.0-0.0","0","0","39505","","752","","","68","38","","","1","38","training","adjacent","GF","7","6","M.jpg","L.jpg","0","0","1","",""
"","feedback","","html-keyboard-response","261","295220","0.0-1.0-348.0-0.0","0","0","39505","","null","","","null","38","","","","","","","","","","","","","","","",""
"","ITI","","html-keyboard-response","262","296222","0.0-1.0-351.0","0","0","39505","","null","","","null","38","","","","","","","","","","","","","","","NaN",""
"","S1","","html-keyboard-response","263","296475","0.0-1.0-353.0","0","0","39505","","null","","","null","39","","","","","","","","","","","","","","","",""
"","ISI","","html-keyboard-response","264","296992","0.0-1.0-354.0","0","0","39505","","null","","","null","39","NaN","","","","","","","","","","","","","","",""
"","S2","","html-keyboard-response","265","297244","0.0-1.0-355.0","0","0","39505","","null","","","null","39","","NaN","","","","","","","","","","","","","",""
"","response","","html-keyboard-response","266","297768","0.0-1.0-356.0-0.0","0","0","39505","","522","","","68","39","","","1","39","training","adjacent","AB","1","2","R.jpg","N.jpg","0","1","0","",""
"","feedback","","html-keyboard-response","267","298769","0.0-1.0-357.0-0.0","0","0","39505","","null","","","null","39","","","","","","","","","","","","","","","",""
"","time_out","","html-keyboard-response","268","300771","0.0-1.0-359.0-0.0","0","0","39505","","null","","","null","39","","","","","","","","","","","","","","","",""
"","ITI","","html-keyboard-response","269","301774","0.0-1.0-360.0","0","0","39505","","null","","","null","39","","","","","","","","","","","","","","","NaN",""
"","S1","","html-keyboard-response","270","302026","0.0-1.0-362.0","0","0","39505","","null","","","null","40","","","","","","","","","","","","","","","",""
"","ISI","","html-keyboard-response","271","302528","0.0-1.0-363.0","0","0","39505","","null","","","null","40","NaN","","","","","","","","","","","","","","",""
"","S2","","html-keyboard-response","272","302781","0.0-1.0-364.0","0","0","39505","","null","","","null","40","","NaN","","","","","","","","","","","","","",""
"","response","","html-keyboard-response","273","303173","0.0-1.0-365.0-0.0","0","0","39505","","391","","","75","40","","","1","40","training","adjacent","FE","6","5","L.jpg","P.jpg","1","0","0","",""
"","feedback","","html-keyboard-response","274","304175","0.0-1.0-366.0-0.0","0","0","39505","","null","","","null","40","","","","","","","","","","","","","","","",""
"","time_out","","html-keyboard-response","275","306177","0.0-1.0-368.0-0.0","0","0","39505","","null","","","null","40","","","","","","","","","","","","","","","",""
"","ITI","","html-keyboard-response","276","307179","0.0-1.0-369.0","0","0","39505","","null","","","null","40","","","","","","","","","","","","","","","NaN",""
"","S1","","html-keyboard-response","277","307431","0.0-1.0-371.0","0","0","39505","","null","","","null","41","","","","","","","","","","","","","","","",""
"","ISI","","html-keyboard-response","278","307934","0.0-1.0-372.0","0","0","39505","","null","","","null","41","NaN","","","","","","","","","","","","","","",""
"","S2","","html-keyboard-response","279","308186","0.0-1.0-373.0","0","0","39505","","null","","","null","41","","NaN","","","","","","","","","","","","","",""
"","response","","html-keyboard-response","280","308760","0.0-1.0-374.0-0.0","0","0","39505","","574","","","75","41","","","1","41","training","adjacent","CD","3","4","Q.jpg","O.jpg","1","1","1","",""
"","feedback","","html-keyboard-response","281","309763","0.0-1.0-375.0-0.0","0","0","39505","","null","","","null","41","","","","","","","","","","","","","","","",""
"","ITI","","html-keyboard-response","282","310765","0.0-1.0-378.0","0","0","39505","","null","","","null","41","","","","","","","","","","","","","","","NaN",""
"","S1","","html-keyboard-response","283","311017","0.0-1.0-380.0","0","0","39505","","null","","","null","42","","","","","","","","","","","","","","","",""
"","ISI","","html-keyboard-response","284","311519","0.0-1.0-381.0","0","0","39505","","null","","","null","42","NaN","","","","","","","","","","","","","","",""
"","S2","","html-keyboard-response","285","311772","0.0-1.0-382.0","0","0","39505","","null","","","null","42","","NaN","","","","","","","","","","","","","",""
"","response","","html-keyboard-response","286","312317","0.0-1.0-383.0-0.0","0","0","39505","","544","","","75","42","","","1","42","training","adjacent","AB","1","2","R.jpg","N.jpg","1","1","1","",""
"","feedback","","html-keyboard-response","287","313319","0.0-1.0-384.0-0.0","0","0","39505","","null","","","null","42","","","","","","","","","","","","","","","",""
"","ITI","","html-keyboard-response","288","314321","0.0-1.0-387.0","0","0","39505","","null","","","null","42","","","","","","","","","","","","","","","NaN",""
"","S1","","html-keyboard-response","289","314574","0.0-1.0-389.0","0","0","39505","","null","","","null","43","","","","","","","","","","","","","","","",""
"","ISI","","html-keyboard-response","290","315075","0.0-1.0-390.0","0","0","39505","","null","","","null","43","NaN","","","","","","","","","","","","","","",""
"","S2","","html-keyboard-response","291","315327","0.0-1.0-391.0","0","0","39505","","null","","","null","43","","NaN","","","","","","","","","","","","","",""
"","response","","html-keyboard-response","292","316278","0.0-1.0-392.0-0.0","0","0","39505","","950","","","68","43","","","1","43","training","adjacent","ED","5","4","P.jpg","O.jpg","0","0","1","",""
"","feedback","","html-keyboard-response","293","317281","0.0-1.0-393.0-0.0","0","0","39505","","null","","","null","43","","","","","","","","","","","","","","","",""
"","ITI","","html-keyboard-response","294","318284","0.0-1.0-396.0","0","0","39505","","null","","","null","43","","","","","","","","","","","","","","","NaN",""
"","S1","","html-keyboard-response","295","318536","0.0-1.0-398.0","0","0","39505","","null","","","null","44","","","","","","","","","","","","","","","",""
"","ISI","","html-keyboard-response","296","319045","0.0-1.0-399.0","0","0","39505","","null","","","null","44","NaN","","","","","","","","","","","","","","",""
"","S2","","html-keyboard-response","297","319297","0.0-1.0-400.0","0","0","39505","","null","","","null","44","","NaN","","","","","","","","","","","","","",""
"","response","","html-keyboard-response","298","320226","0.0-1.0-401.0-0.0","0","0","39505","","927","","","68","44","","","1","44","training","adjacent","EF","5","6","P.jpg","L.jpg","0","1","0","",""
"","feedback","","html-keyboard-response","299","321228","0.0-1.0-402.0-0.0","0","0","39505","","null","","","null","44","","","","","","","","","","","","","","","",""
"","time_out","","html-keyboard-response","300","323230","0.0-1.0-404.0-0.0","0","0","39505","","null","","","null","44","","","","","","","","","","","","","","","",""
"","ITI","","html-keyboard-response","301","324231","0.0-1.0-405.0","0","0","39505","","null","","","null","44","","","","","","","","","","","","","","","NaN",""
"","S1","","html-keyboard-response","302","324483","0.0-1.0-407.0","0","0","39505","","null","","","null","45","","","","","","","","","","","","","","","",""
"","ISI","","html-keyboard-response","303","324984","0.0-1.0-408.0","0","0","39505","","null","","","null","45","NaN","","","","","","","","","","","","","","",""
"","S2","","html-keyboard-response","304","325247","0.0-1.0-409.0","0","0","39505","","null","","","null","45","","NaN","","","","","","","","","","","","","",""
"","response","","html-keyboard-response","305","325683","0.0-1.0-410.0-0.0","0","0","39505","","435","","","75","45","","","1","45","training","adjacent","CD","3","4","Q.jpg","O.jpg","1","1","1","",""
"","feedback","","html-keyboard-response","306","326685","0.0-1.0-411.0-0.0","0","0","39505","","null","","","null","45","","","","","","","","","","","","","","","",""
"","ITI","","html-keyboard-response","307","327687","0.0-1.0-414.0","0","0","39505","","null","","","null","45","","","","","","","","","","","","","","","NaN",""
"","S1","","html-keyboard-response","308","327941","0.0-1.0-416.0","0","0","39505","","null","","","null","46","","","","","","","","","","","","","","","",""
"","ISI","","html-keyboard-response","309","328444","0.0-1.0-417.0","0","0","39505","","null","","","null","46","NaN","","","","","","","","","","","","","","",""
"","S2","","html-keyboard-response","310","328696","0.0-1.0-418.0","0","0","39505","","null","","","null","46","","NaN","","","","","","","","","","","","","",""
"","response","","html-keyboard-response","311","329674","0.0-1.0-419.0-0.0","0","0","39505","","977","","","75","46","","","1","46","training","adjacent","BC","2","3","N.jpg","Q.jpg","1","1","1","",""
"","feedback","","html-keyboard-response","312","330677","0.0-1.0-420.0-0.0","0","0","39505","","null","","","null","46","","","","","","","","","","","","","","","",""
"","ITI","","html-keyboard-response","313","331680","0.0-1.0-423.0","0","0","39505","","null","","","null","46","","","","","","","","","","","","","","","NaN",""
"","S1","","html-keyboard-response","314","331931","0.0-1.0-425.0","0","0","39505","","null","","","null","47","","","","","","","","","","","","","","","",""
"","ISI","","html-keyboard-response","315","332434","0.0-1.0-426.0","0","0","39505","","null","","","null","47","NaN","","","","","","","","","","","","","","",""
"","S2","","html-keyboard-response","316","332686","0.0-1.0-427.0","0","0","39505","","null","","","null","47","","NaN","","","","","","","","","","","","","",""
"","response","","html-keyboard-response","317","333111","0.0-1.0-428.0-0.0","0","0","39505","","425","","","75","47","","","1","47","training","adjacent","FG","6","7","L.jpg","M.jpg","1","1","1","",""
"","feedback","","html-keyboard-response","318","334113","0.0-1.0-429.0-0.0","0","0","39505","","null","","","null","47","","","","","","","","","","","","","","","",""
"","ITI","","html-keyboard-response","319","335115","0.0-1.0-432.0","0","0","39505","","null","","","null","47","","","","","","","","","","","","","","","NaN",""
"","block_over","","html-keyboard-response","320","342103","0.0-1.0-433.0-0.0","0","0","39505","","6987","","","32","47","","","","","","","","","","","","","","","",""
"","S1","","html-keyboard-response","321","342357","0.0-1.0-434.0","0","0","39505","","null","","","null","48","","","","","","","","","","","","","","","",""
"","ISI","","html-keyboard-response","322","342859","0.0-1.0-435.0","0","0","39505","","null","","","null","48","NaN","","","","","","","","","","","","","","",""
"","S2","","html-keyboard-response","323","343111","0.0-1.0-436.0","0","0","39505","","null","","","null","48","","NaN","","","","","","","","","","","","","",""
"","response","","html-keyboard-response","324","343561","0.0-1.0-437.0-0.0","0","0","39505","","449","","","75","48","","","2","48","training","adjacent","DE","4","5","O.jpg","P.jpg","1","1","1","",""
"","feedback","","html-keyboard-response","325","344565","0.0-1.0-438.0-0.0","0","0","39505","","null","","","null","48","","","","","","","","","","","","","","","",""
"","ITI","","html-keyboard-response","326","345567","0.0-1.0-441.0","0","0","39505","","null","","","null","48","","","","","","","","","","","","","","","NaN",""
"","S1","","html-keyboard-response","327","345819","0.0-1.0-443.0","0","0","39505","","null","","","null","49","","","","","","","","","","","","","","","",""
"","ISI","","html-keyboard-response","328","346321","0.0-1.0-444.0","0","0","39505","","null","","","null","49","NaN","","","","","","","","","","","","","","",""
"","S2","","html-keyboard-response","329","346574","0.0-1.0-445.0","0","0","39505","","null","","","null","49","","NaN","","","","","","","","","","","","","",""
"","response","","html-keyboard-response","330","347097","0.0-1.0-446.0-0.0","0","0","39505","","522","","","68","49","","","2","49","training","adjacent","EF","5","6","P.jpg","L.jpg","0","1","0","",""
"","feedback","","html-keyboard-response","331","348100","0.0-1.0-447.0-0.0","0","0","39505","","null","","","null","49","","","","","","","","","","","","","","","",""
"","time_out","","html-keyboard-response","332","350102","0.0-1.0-449.0-0.0","0","0","39505","","null","","","null","49","","","","","","","","","","","","","","","",""
"","ITI","","html-keyboard-response","333","351103","0.0-1.0-450.0","0","0","39505","","null","","","null","49","","","","","","","","","","","","","","","NaN",""
"","S1","","html-keyboard-response","334","351355","0.0-1.0-452.0","0","0","39505","","null","","","null","50","","","","","","","","","","","","","","","",""
"","ISI","","html-keyboard-response","335","351857","0.0-1.0-453.0","0","0","39505","","null","","","null","50","NaN","","","","","","","","","","","","","","",""
"","S2","","html-keyboard-response","336","352109","0.0-1.0-454.0","0","0","39505","","null","","","null","50","","NaN","","","","","","","","","","","","","",""
"","response","","html-keyboard-response","337","352681","0.0-1.0-455.0-0.0","0","0","39505","","572","","","68","50","","","2","50","training","adjacent","GF","7","6","M.jpg","L.jpg","0","0","1","",""
"","feedback","","html-keyboard-response","338","353684","0.0-1.0-456.0-0.0","0","0","39505","","null","","","null","50","","","","","","","","","","","","","","","",""
"","ITI","","html-keyboard-response","339","354686","0.0-1.0-459.0","0","0","39505","","null","","","null","50","","","","","","","","","","","","","","","NaN",""
"","S1","","html-keyboard-response","340","354954","0.0-1.0-461.0","0","0","39505","","null","","","null","51","","","","","","","","","","","","","","","",""
"","ISI","","html-keyboard-response","341","355456","0.0-1.0-462.0","0","0","39505","","null","","","null","51","NaN","","","","","","","","","","","","","","",""
"","S2","","html-keyboard-response","342","355709","0.0-1.0-463.0","0","0","39505","","null","","","null","51","","NaN","","","","","","","","","","","","","",""
"","response","","html-keyboard-response","343","356462","0.0-1.0-464.0-0.0","0","0","39505","","752","","","75","51","","","2","51","training","adjacent","GF","7","6","M.jpg","L.jpg","1","0","0","",""
"","feedback","","html-keyboard-response","344","357464","0.0-1.0-465.0-0.0","0","0","39505","","null","","","null","51","","","","","","","","","","","","","","","",""
"","time_out","","html-keyboard-response","345","359466","0.0-1.0-467.0-0.0","0","0","39505","","null","","","null","51","","","","","","","","","","","","","","","",""
"","ITI","","html-keyboard-response","346","360468","0.0-1.0-468.0","0","0","39505","","null","","","null","51","","","","","","","","","","","","","","","NaN",""
"","S1","","html-keyboard-response","347","360721","0.0-1.0-470.0","0","0","39505","","null","","","null","52","","","","","","","","","","","","","","","",""
"","ISI","","html-keyboard-response","348","361222","0.0-1.0-471.0","0","0","39505","","null","","","null","52","NaN","","","","","","","","","","","","","","",""
"","S2","","html-keyboard-response","349","361475","0.0-1.0-472.0","0","0","39505","","null","","","null","52","","NaN","","","","","","","","","","","","","",""
"","response","","html-keyboard-response","350","361712","0.0-1.0-473.0-0.0","0","0","39505","","235","","","75","52","","","2","52","training","adjacent","DC","4","3","O.jpg","Q.jpg","1","0","0","",""
"","feedback","","html-keyboard-response","351","362714","0.0-1.0-474.0-0.0","0","0","39505","","null","","","null","52","","","","","","","","","","","","","","","",""
"","time_out","","html-keyboard-response","352","364717","0.0-1.0-476.0-0.0","0","0","39505","","null","","","null","52","","","","","","","","","","","","","","","",""
"","ITI","","html-keyboard-response","353","365720","0.0-1.0-477.0","0","0","39505","","null","","","null","52","","","","","","","","","","","","","","","NaN",""
"","S1","","html-keyboard-response","354","365972","0.0-1.0-479.0","0","0","39505","","null","","","null","53","","","","","","","","","","","","","","","",""
"","ISI","","html-keyboard-response","355","366473","0.0-1.0-480.0","0","0","39505","","null","","","null","53","NaN","","","","","","","","","","","","","","",""
"","S2","","html-keyboard-response","356","366726","0.0-1.0-481.0","0","0","39505","","null","","","null","53","","NaN","","","","","","","","","","","","","",""
"","response","","html-keyboard-response","357","367144","0.0-1.0-482.0-0.0","0","0","39505","","417","","","68","53","","","2","53","training","adjacent","DC","4","3","O.jpg","Q.jpg","0","0","1","",""
"","feedback","","html-keyboard-response","358","368146","0.0-1.0-483.0-0.0","0","0","39505","","null","","","null","53","","","","","","","","","","","","","","","",""
"","ITI","","html-keyboard-response","359","369149","0.0-1.0-486.0","0","0","39505","","null","","","null","53","","","","","","","","","","","","","","","NaN",""
"","S1","","html-keyboard-response","360","369400","0.0-1.0-488.0","0","0","39505","","null","","","null","54","","","","","","","","","","","","","","","",""
"","ISI","","html-keyboard-response","361","369902","0.0-1.0-489.0","0","0","39505","","null","","","null","54","NaN","","","","","","","","","","","","","","",""
"","S2","","html-keyboard-response","362","370155","0.0-1.0-490.0","0","0","39505","","null","","","null","54","","NaN","","","","","","","","","","","","","",""
"","response","","html-keyboard-response","363","370667","0.0-1.0-491.0-0.0","0","0","39505","","511","","","68","54","","","2","54","training","adjacent","CD","3","4","Q.jpg","O.jpg","0","1","0","",""
"","feedback","","html-keyboard-response","364","371669","0.0-1.0-492.0-0.0","0","0","39505","","null","","","null","54","","","","","","","","","","","","","","","",""
"","time_out","","html-keyboard-response","365","373671","0.0-1.0-494.0-0.0","0","0","39505","","null","","","null","54","","","","","","","","","","","","","","","",""
"","ITI","","html-keyboard-response","366","374672","0.0-1.0-495.0","0","0","39505","","null","","","null","54","","","","","","","","","","","","","","","NaN",""
"","S1","","html-keyboard-response","367","374925","0.0-1.0-497.0","0","0","39505","","null","","","null","55","","","","","","","","","","","","","","","",""
"","ISI","","html-keyboard-response","368","375431","0.0-1.0-498.0","0","0","39505","","null","","","null","55","NaN","","","","","","","","","","","","","","",""
"","S2","","html-keyboard-response","369","375683","0.0-1.0-499.0","0","0","39505","","null","","","null","55","","NaN","","","","","","","","","","","","","",""
"","response","","html-keyboard-response","370","375963","0.0-1.0-500.0-0.0","0","0","39505","","279","","","75","55","","","2","55","training","adjacent","AB","1","2","R.jpg","N.jpg","1","1","1","",""
"","feedback","","html-keyboard-response","371","376964","0.0-1.0-501.0-0.0","0","0","39505","","null","","","null","55","","","","","","","","","","","","","","","",""
"","ITI","","html-keyboard-response","372","377967","0.0-1.0-504.0","0","0","39505","","null","","","null","55","","","","","","","","","","","","","","","NaN",""
"","S1","","html-keyboard-response","373","378219","0.0-1.0-506.0","0","0","39505","","null","","","null","56","","","","","","","","","","","","","","","",""
"","ISI","","html-keyboard-response","374","378721","0.0-1.0-507.0","0","0","39505","","null","","","null","56","NaN","","","","","","","","","","","","","","",""
"","S2","","html-keyboard-response","375","378973","0.0-1.0-508.0","0","0","39505","","null","","","null","56","","NaN","","","","","","","","","","","","","",""
"","response","","html-keyboard-response","376","379537","0.0-1.0-509.0-0.0","0","0","39505","","563","","","68","56","","","2","56","training","adjacent","BA","2","1","N.jpg","R.jpg","0","0","1","",""
"","feedback","","html-keyboard-response","377","380545","0.0-1.0-510.0-0.0","0","0","39505","","null","","","null","56","","","","","","","","","","","","","","","",""
"","ITI","","html-keyboard-response","378","381547","0.0-1.0-513.0","0","0","39505","","null","","","null","56","","","","","","","","","","","","","","","NaN",""
"","S1","","html-keyboard-response","379","381800","0.0-1.0-515.0","0","0","39505","","null","","","null","57","","","","","","","","","","","","","","","",""
"","ISI","","html-keyboard-response","380","382302","0.0-1.0-516.0","0","0","39505","","null","","","null","57","NaN","","","","","","","","","","","","","","",""
"","S2","","html-keyboard-response","381","382554","0.0-1.0-517.0","0","0","39505","","null","","","null","57","","NaN","","","","","","","","","","","","","",""
"","response","","html-keyboard-response","382","382925","0.0-1.0-518.0-0.0","0","0","39505","","369","","","75","57","","","2","57","training","adjacent","FG","6","7","L.jpg","M.jpg","1","1","1","",""
"","feedback","","html-keyboard-response","383","383928","0.0-1.0-519.0-0.0","0","0","39505","","null","","","null","57","","","","","","","","","","","","","","","",""
"","ITI","","html-keyboard-response","384","384930","0.0-1.0-522.0","0","0","39505","","null","","","null","57","","","","","","","","","","","","","","","NaN",""
"","S1","","html-keyboard-response","385","385183","0.0-1.0-524.0","0","0","39505","","null","","","null","58","","","","","","","","","","","","","","","",""
"","ISI","","html-keyboard-response","386","385686","0.0-1.0-525.0","0","0","39505","","null","","","null","58","NaN","","","","","","","","","","","","","","",""
"","S2","","html-keyboard-response","387","385938","0.0-1.0-526.0","0","0","39505","","null","","","null","58","","NaN","","","","","","","","","","","","","",""
"","response","","html-keyboard-response","388","386715","0.0-1.0-527.0-0.0","0","0","39505","","777","","","75","58","","","2","58","training","adjacent","ED","5","4","P.jpg","O.jpg","1","0","0","",""
"","feedback","","html-keyboard-response","389","387731","0.0-1.0-528.0-0.0","0","0","39505","","null","","","null","58","","","","","","","","","","","","","","","",""
"","time_out","","html-keyboard-response","390","389733","0.0-1.0-530.0-0.0","0","0","39505","","null","","","null","58","","","","","","","","","","","","","","","",""
"","ITI","","html-keyboard-response","391","390736","0.0-1.0-531.0","0","0","39505","","null","","","null","58","","","","","","","","","","","","","","","NaN",""
"","S1","","html-keyboard-response","392","390989","0.0-1.0-533.0","0","0","39505","","null","","","null","59","","","","","","","","","","","","","","","",""
"","ISI","","html-keyboard-response","393","391491","0.0-1.0-534.0","0","0","39505","","null","","","null","59","NaN","","","","","","","","","","","","","","",""
"","S2","","html-keyboard-response","394","391744","0.0-1.0-535.0","0","0","39505","","null","","","null","59","","NaN","","","","","","","","","","","","","",""
"","response","","html-keyboard-response","395","392210","0.0-1.0-536.0-0.0","0","0","39505","","465","","","68","59","","","2","59","training","adjacent","BC","2","3","N.jpg","Q.jpg","0","1","0","",""
"","feedback","","html-keyboard-response","396","393212","0.0-1.0-537.0-0.0","0","0","39505","","null","","","null","59","","","","","","","","","","","","","","","",""
"","time_out","","html-keyboard-response","397","395215","0.0-1.0-539.0-0.0","0","0","39505","","null","","","null","59","","","","","","","","","","","","","","","",""
"","ITI","","html-keyboard-response","398","396219","0.0-1.0-540.0","0","0","39505","","null","","","null","59","","","","","","","","","","","","","","","NaN",""
"","S1","","html-keyboard-response","399","396471","0.0-1.0-542.0","0","0","39505","","null","","","null","60","","","","","","","","","","","","","","","",""
"","ISI","","html-keyboard-response","400","396973","0.0-1.0-543.0","0","0","39505","","null","","","null","60","NaN","","","","","","","","","","","","","","",""
"","S2","","html-keyboard-response","401","397226","0.0-1.0-544.0","0","0","39505","","null","","","null","60","","NaN","","","","","","","","","","","","","",""
"","response","","html-keyboard-response","402","397383","0.0-1.0-545.0-0.0","0","0","39505","","157","","","75","60","","","2","60","training","adjacent","FG","6","7","L.jpg","M.jpg","1","1","1","",""
"","feedback","","html-keyboard-response","403","398386","0.0-1.0-546.0-0.0","0","0","39505","","null","","","null","60","","","","","","","","","","","","","","","",""
"","ITI","","html-keyboard-response","404","399389","0.0-1.0-549.0","0","0","39505","","null","","","null","60","","","","","","","","","","","","","","","NaN",""
"","S1","","html-keyboard-response","405","399641","0.0-1.0-551.0","0","0","39505","","null","","","null","61","","","","","","","","","","","","","","","",""
"","ISI","","html-keyboard-response","406","400142","0.0-1.0-552.0","0","0","39505","","null","","","null","61","NaN","","","","","","","","","","","","","","",""
"","S2","","html-keyboard-response","407","400395","0.0-1.0-553.0","0","0","39505","","null","","","null","61","","NaN","","","","","","","","","","","","","",""
"","response","","html-keyboard-response","408","400846","0.0-1.0-554.0-0.0","0","0","39505","","449","","","68","61","","","2","61","training","adjacent","BC","2","3","N.jpg","Q.jpg","0","1","0","",""
"","feedback","","html-keyboard-response","409","401848","0.0-1.0-555.0-0.0","0","0","39505","","null","","","null","61","","","","","","","","","","","","","","","",""
"","time_out","","html-keyboard-response","410","403851","0.0-1.0-557.0-0.0","0","0","39505","","null","","","null","61","","","","","","","","","","","","","","","",""
"","ITI","","html-keyboard-response","411","404852","0.0-1.0-558.0","0","0","39505","","null","","","null","61","","","","","","","","","","","","","","","NaN",""
"","S1","","html-keyboard-response","412","405104","0.0-1.0-560.0","0","0","39505","","null","","","null","62","","","","","","","","","","","","","","","",""
"","ISI","","html-keyboard-response","413","405606","0.0-1.0-561.0","0","0","39505","","null","","","null","62","NaN","","","","","","","","","","","","","","",""
"","S2","","html-keyboard-response","414","405858","0.0-1.0-562.0","0","0","39505","","null","","","null","62","","NaN","","","","","","","","","","","","","",""
"","response","","html-keyboard-response","415","406196","0.0-1.0-563.0-0.0","0","0","39505","","337","","","75","62","","","2","62","training","adjacent","FE","6","5","L.jpg","P.jpg","1","0","0","",""
"","feedback","","html-keyboard-response","416","407198","0.0-1.0-564.0-0.0","0","0","39505","","null","","","null","62","","","","","","","","","","","","","","","",""
"","time_out","","html-keyboard-response","417","409200","0.0-1.0-566.0-0.0","0","0","39505","","null","","","null","62","","","","","","","","","","","","","","","",""
"","ITI","","html-keyboard-response","418","410201","0.0-1.0-567.0","0","0","39505","","null","","","null","62","","","","","","","","","","","","","","","NaN",""
"","S1","","html-keyboard-response","419","410454","0.0-1.0-569.0","0","0","39505","","null","","","null","63","","","","","","","","","","","","","","","",""
"","ISI","","html-keyboard-response","420","410956","0.0-1.0-570.0","0","0","39505","","null","","","null","63","NaN","","","","","","","","","","","","","","",""
"","S2","","html-keyboard-response","421","411208","0.0-1.0-571.0","0","0","39505","","null","","","null","63","","NaN","","","","","","","","","","","","","",""
"","response","","html-keyboard-response","422","411728","0.0-1.0-572.0-0.0","0","0","39505","","519","","","68","63","","","2","63","training","adjacent","BC","2","3","N.jpg","Q.jpg","0","1","0","",""
"","feedback","","html-keyboard-response","423","412731","0.0-1.0-573.0-0.0","0","0","39505","","null","","","null","63","","","","","","","","","","","","","","","",""
"","time_out","","html-keyboard-response","424","414733","0.0-1.0-575.0-0.0","0","0","39505","","null","","","null","63","","","","","","","","","","","","","","","",""
"","ITI","","html-keyboard-response","425","415734","0.0-1.0-576.0","0","0","39505","","null","","","null","63","","","","","","","","","","","","","","","NaN",""
"","S1","","html-keyboard-response","426","415986","0.0-1.0-578.0","0","0","39505","","null","","","null","64","","","","","","","","","","","","","","","",""
"","ISI","","html-keyboard-response","427","416496","0.0-1.0-579.0","0","0","39505","","null","","","null","64","NaN","","","","","","","","","","","","","","",""
"","S2","","html-keyboard-response","428","416762","0.0-1.0-580.0","0","0","39505","","null","","","null","64","","NaN","","","","","","","","","","","","","",""
"","response","","html-keyboard-response","429","417295","0.0-1.0-581.0-0.0","0","0","39505","","532","","","75","64","","","2","64","training","adjacent","CD","3","4","Q.jpg","O.jpg","1","1","1","",""
"","feedback","","html-keyboard-response","430","418298","0.0-1.0-582.0-0.0","0","0","39505","","null","","","null","64","","","","","","","","","","","","","","","",""
"","ITI","","html-keyboard-response","431","419301","0.0-1.0-585.0","0","0","39505","","null","","","null","64","","","","","","","","","","","","","","","NaN",""
"","S1","","html-keyboard-response","432","419554","0.0-1.0-587.0","0","0","39505","","null","","","null","65","","","","","","","","","","","","","","","",""
"","ISI","","html-keyboard-response","433","420056","0.0-1.0-588.0","0","0","39505","","null","","","null","65","NaN","","","","","","","","","","","","","","",""
"","S2","","html-keyboard-response","434","420316","0.0-1.0-589.0","0","0","39505","","null","","","null","65","","NaN","","","","","","","","","","","","","",""
"","response","","html-keyboard-response","435","420900","0.0-1.0-590.0-0.0","0","0","39505","","583","","","68","65","","","2","65","training","adjacent","DC","4","3","O.jpg","Q.jpg","0","0","1","",""
"","feedback","","html-keyboard-response","436","421904","0.0-1.0-591.0-0.0","0","0","39505","","null","","","null","65","","","","","","","","","","","","","","","",""
"","ITI","","html-keyboard-response","437","422906","0.0-1.0-594.0","0","0","39505","","null","","","null","65","","","","","","","","","","","","","","","NaN",""
"","S1","","html-keyboard-response","438","423162","0.0-1.0-596.0","0","0","39505","","null","","","null","66","","","","","","","","","","","","","","","",""
"","ISI","","html-keyboard-response","439","423664","0.0-1.0-597.0","0","0","39505","","null","","","null","66","NaN","","","","","","","","","","","","","","",""
"","S2","","html-keyboard-response","440","423930","0.0-1.0-598.0","0","0","39505","","null","","","null","66","","NaN","","","","","","","","","","","","","",""
"","response","","html-keyboard-response","441","424489","0.0-1.0-599.0-0.0","0","0","39505","","559","","","75","66","","","2","66","training","adjacent","ED","5","4","P.jpg","O.jpg","1","0","0","",""
"","feedback","","html-keyboard-response","442","425492","0.0-1.0-600.0-0.0","0","0","39505","","null","","","null","66","","","","","","","","","","","","","","","",""
"","time_out","","html-keyboard-response","443","427494","0.0-1.0-602.0-0.0","0","0","39505","","null","","","null","66","","","","","","","","","","","","","","","",""
"","ITI","","html-keyboard-response","444","428496","0.0-1.0-603.0","0","0","39505","","null","","","null","66","","","","","","","","","","","","","","","NaN",""
"","S1","","html-keyboard-response","445","428764","0.0-1.0-605.0","0","0","39505","","null","","","null","67","","","","","","","","","","","","","","","",""
"","ISI","","html-keyboard-response","446","429265","0.0-1.0-606.0","0","0","39505","","null","","","null","67","NaN","","","","","","","","","","","","","","",""
"","S2","","html-keyboard-response","447","429517","0.0-1.0-607.0","0","0","39505","","null","","","null","67","","NaN","","","","","","","","","","","","","",""
"","response","","html-keyboard-response","448","430357","0.0-1.0-608.0-0.0","0","0","39505","","838","","","68","67","","","2","67","training","adjacent","BA","2","1","N.jpg","R.jpg","0","0","1","",""
"","feedback","","html-keyboard-response","449","431359","0.0-1.0-609.0-0.0","0","0","39505","","null","","","null","67","","","","","","","","","","","","","","","",""
"","ITI","","html-keyboard-response","450","432361","0.0-1.0-612.0","0","0","39505","","null","","","null","67","","","","","","","","","","","","","","","NaN",""
"","S1","","html-keyboard-response","451","432614","0.0-1.0-614.0","0","0","39505","","null","","","null","68","","","","","","","","","","","","","","","",""
"","ISI","","html-keyboard-response","452","433116","0.0-1.0-615.0","0","0","39505","","null","","","null","68","NaN","","","","","","","","","","","","","","",""
"","S2","","html-keyboard-response","453","433369","0.0-1.0-616.0","0","0","39505","","null","","","null","68","","NaN","","","","","","","","","","","","","",""
"","response","","html-keyboard-response","454","433736","0.0-1.0-617.0-0.0","0","0","39505","","366","","","75","68","","","2","68","training","adjacent","CB","3","2","Q.jpg","N.jpg","1","0","0","",""
"","feedback","","html-keyboard-response","455","434738","0.0-1.0-618.0-0.0","0","0","39505","","null","","","null","68","","","","","","","","","","","","","","","",""
"","time_out","","html-keyboard-response","456","436741","0.0-1.0-620.0-0.0","0","0","39505","","null","","","null","68","","","","","","","","","","","","","","","",""
"","ITI","","html-keyboard-response","457","437744","0.0-1.0-621.0","0","0","39505","","null","","","null","68","","","","","","","","","","","","","","","NaN",""
"","S1","","html-keyboard-response","458","437996","0.0-1.0-623.0","0","0","39505","","null","","","null","69","","","","","","","","","","","","","","","",""
"","ISI","","html-keyboard-response","459","438506","0.0-1.0-624.0","0","0","39505","","null","","","null","69","NaN","","","","","","","","","","","","","","",""
"","S2","","html-keyboard-response","460","438771","0.0-1.0-625.0","0","0","39505","","null","","","null","69","","NaN","","","","","","","","","","","","","",""
"","response","","html-keyboard-response","461","439335","0.0-1.0-626.0-0.0","0","0","39505","","562","","","68","69","","","2","69","training","adjacent","BC","2","3","N.jpg","Q.jpg","0","1","0","",""
"","feedback","","html-keyboard-response","462","440338","0.0-1.0-627.0-0.0","0","0","39505","","null","","","null","69","","","","","","","","","","","","","","","",""
"","time_out","","html-keyboard-response","463","442339","0.0-1.0-629.0-0.0","0","0","39505","","null","","","null","69","","","","","","","","","","","","","","","",""
"","ITI","","html-keyboard-response","464","443341","0.0-1.0-630.0","0","0","39505","","null","","","null","69","","","","","","","","","","","","","","","NaN",""
"","S1","","html-keyboard-response","465","443593","0.0-1.0-632.0","0","0","39505","","null","","","null","70","","","","","","","","","","","","","","","",""
"","ISI","","html-keyboard-response","466","444095","0.0-1.0-633.0","0","0","39505","","null","","","null","70","NaN","","","","","","","","","","","","","","",""
"","S2","","html-keyboard-response","467","444347","0.0-1.0-634.0","0","0","39505","","null","","","null","70","","NaN","","","","","","","","","","","","","",""
"","response","","html-keyboard-response","468","445008","0.0-1.0-635.0-0.0","0","0","39505","","660","","","68","70","","","2","70","training","adjacent","BA","2","1","N.jpg","R.jpg","0","0","1","",""
"","feedback","","html-keyboard-response","469","446011","0.0-1.0-636.0-0.0","0","0","39505","","null","","","null","70","","","","","","","","","","","","","","","",""
"","ITI","","html-keyboard-response","470","447014","0.0-1.0-639.0","0","0","39505","","null","","","null","70","","","","","","","","","","","","","","","NaN",""
"","S1","","html-keyboard-response","471","447266","0.0-1.0-641.0","0","0","39505","","null","","","null","71","","","","","","","","","","","","","","","",""
"","ISI","","html-keyboard-response","472","447770","0.0-1.0-642.0","0","0","39505","","null","","","null","71","NaN","","","","","","","","","","","","","","",""
"","S2","","html-keyboard-response","473","448022","0.0-1.0-643.0","0","0","39505","","null","","","null","71","","NaN","","","","","","","","","","","","","",""
"","response","","html-keyboard-response","474","448576","0.0-1.0-644.0-0.0","0","0","39505","","553","","","75","71","","","2","71","training","adjacent","CD","3","4","Q.jpg","O.jpg","1","1","1","",""
"","feedback","","html-keyboard-response","475","449579","0.0-1.0-645.0-0.0","0","0","39505","","null","","","null","71","","","","","","","","","","","","","","","",""
"","ITI","","html-keyboard-response","476","450580","0.0-1.0-648.0","0","0","39505","","null","","","null","71","","","","","","","","","","","","","","","NaN",""
"","S1","","html-keyboard-response","477","450832","0.0-1.0-650.0","0","0","39505","","null","","","null","72","","","","","","","","","","","","","","","",""
"","ISI","","html-keyboard-response","478","451334","0.0-1.0-651.0","0","0","39505","","null","","","null","72","NaN","","","","","","","","","","","","","","",""
"","S2","","html-keyboard-response","479","451586","0.0-1.0-652.0","0","0","39505","","null","","","null","72","","NaN","","","","","","","","","","","","","",""
"","response","","html-keyboard-response","480","452203","0.0-1.0-653.0-0.0","0","0","39505","","615","","","68","72","","","2","72","training","adjacent","BA","2","1","N.jpg","R.jpg","0","0","1","",""
"","feedback","","html-keyboard-response","481","453205","0.0-1.0-654.0-0.0","0","0","39505","","null","","","null","72","","","","","","","","","","","","","","","",""
"","ITI","","html-keyboard-response","482","454207","0.0-1.0-657.0","0","0","39505","","null","","","null","72","","","","","","","","","","","","","","","NaN",""
"","S1","","html-keyboard-response","483","454460","0.0-1.0-659.0","0","0","39505","","null","","","null","73","","","","","","","","","","","","","","","",""
"","ISI","","html-keyboard-response","484","454961","0.0-1.0-660.0","0","0","39505","","null","","","null","73","NaN","","","","","","","","","","","","","","",""
"","S2","","html-keyboard-response","485","455213","0.0-1.0-661.0","0","0","39505","","null","","","null","73","","NaN","","","","","","","","","","","","","",""
"","response","","html-keyboard-response","486","455581","0.0-1.0-662.0-0.0","0","0","39505","","368","","","75","73","","","2","73","training","adjacent","AB","1","2","R.jpg","N.jpg","1","1","1","",""
"","feedback","","html-keyboard-response","487","456585","0.0-1.0-663.0-0.0","0","0","39505","","null","","","null","73","","","","","","","","","","","","","","","",""
"","ITI","","html-keyboard-response","488","457587","0.0-1.0-666.0","0","0","39505","","null","","","null","73","","","","","","","","","","","","","","","NaN",""
"","S1","","html-keyboard-response","489","457839","0.0-1.0-668.0","0","0","39505","","null","","","null","74","","","","","","","","","","","","","","","",""
"","ISI","","html-keyboard-response","490","458341","0.0-1.0-669.0","0","0","39505","","null","","","null","74","NaN","","","","","","","","","","","","","","",""
"","S2","","html-keyboard-response","491","458594","0.0-1.0-670.0","0","0","39505","","null","","","null","74","","NaN","","","","","","","","","","","","","",""
"","response","","html-keyboard-response","492","458948","0.0-1.0-671.0-0.0","0","0","39505","","353","","","75","74","","","2","74","training","adjacent","AB","1","2","R.jpg","N.jpg","1","1","1","",""
"","feedback","","html-keyboard-response","493","459950","0.0-1.0-672.0-0.0","0","0","39505","","null","","","null","74","","","","","","","","","","","","","","","",""
"","ITI","","html-keyboard-response","494","460952","0.0-1.0-675.0","0","0","39505","","null","","","null","74","","","","","","","","","","","","","","","NaN",""
"","S1","","html-keyboard-response","495","461204","0.0-1.0-677.0","0","0","39505","","null","","","null","75","","","","","","","","","","","","","","","",""
"","ISI","","html-keyboard-response","496","461705","0.0-1.0-678.0","0","0","39505","","null","","","null","75","NaN","","","","","","","","","","","","","","",""
"","S2","","html-keyboard-response","497","461957","0.0-1.0-679.0","0","0","39505","","null","","","null","75","","NaN","","","","","","","","","","","","","",""
"","response","","html-keyboard-response","498","462332","0.0-1.0-680.0-0.0","0","0","39505","","374","","","75","75","","","2","75","training","adjacent","AB","1","2","R.jpg","N.jpg","1","1","1","",""
"","feedback","","html-keyboard-response","499","463335","0.0-1.0-681.0-0.0","0","0","39505","","null","","","null","75","","","","","","","","","","","","","","","",""
"","ITI","","html-keyboard-response","500","464338","0.0-1.0-684.0","0","0","39505","","null","","","null","75","","","","","","","","","","","","","","","NaN",""
"","S1","","html-keyboard-response","501","464590","0.0-1.0-686.0","0","0","39505","","null","","","null","76","","","","","","","","","","","","","","","",""
"","ISI","","html-keyboard-response","502","465092","0.0-1.0-687.0","0","0","39505","","null","","","null","76","NaN","","","","","","","","","","","","","","",""
"","S2","","html-keyboard-response","503","465344","0.0-1.0-688.0","0","0","39505","","null","","","null","76","","NaN","","","","","","","","","","","","","",""
"","response","","html-keyboard-response","504","465746","0.0-1.0-689.0-0.0","0","0","39505","","401","","","68","76","","","2","76","training","adjacent","ED","5","4","P.jpg","O.jpg","0","0","1","",""
"","feedback","","html-keyboard-response","505","466748","0.0-1.0-690.0-0.0","0","0","39505","","null","","","null","76","","","","","","","","","","","","","","","",""
"","ITI","","html-keyboard-response","506","467750","0.0-1.0-693.0","0","0","39505","","null","","","null","76","","","","","","","","","","","","","","","NaN",""
"","S1","","html-keyboard-response","507","468003","0.0-1.0-695.0","0","0","39505","","null","","","null","77","","","","","","","","","","","","","","","",""
"","ISI","","html-keyboard-response","508","468505","0.0-1.0-696.0","0","0","39505","","null","","","null","77","NaN","","","","","","","","","","","","","","",""
"","S2","","html-keyboard-response","509","468757","0.0-1.0-697.0","0","0","39505","","null","","","null","77","","NaN","","","","","","","","","","","","","",""
"","response","","html-keyboard-response","510","469337","0.0-1.0-698.0-0.0","0","0","39505","","578","","","75","77","","","2","77","training","adjacent","FE","6","5","L.jpg","P.jpg","1","0","0","",""
"","feedback","","html-keyboard-response","511","470339","0.0-1.0-699.0-0.0","0","0","39505","","null","","","null","77","","","","","","","","","","","","","","","",""
"","time_out","","html-keyboard-response","512","472341","0.0-1.0-701.0-0.0","0","0","39505","","null","","","null","77","","","","","","","","","","","","","","","",""
"","ITI","","html-keyboard-response","513","473343","0.0-1.0-702.0","0","0","39505","","null","","","null","77","","","","","","","","","","","","","","","NaN",""
"","S1","","html-keyboard-response","514","473596","0.0-1.0-704.0","0","0","39505","","null","","","null","78","","","","","","","","","","","","","","","",""
"","ISI","","html-keyboard-response","515","474098","0.0-1.0-705.0","0","0","39505","","null","","","null","78","NaN","","","","","","","","","","","","","","",""
"","S2","","html-keyboard-response","516","474350","0.0-1.0-706.0","0","0","39505","","null","","","null","78","","NaN","","","","","","","","","","","","","",""
"","response","","html-keyboard-response","517","474769","0.0-1.0-707.0-0.0","0","0","39505","","418","","","68","78","","","2","78","training","adjacent","FE","6","5","L.jpg","P.jpg","0","0","1","",""
"","feedback","","html-keyboard-response","518","475772","0.0-1.0-708.0-0.0","0","0","39505","","null","","","null","78","","","","","","","","","","","","","","","",""
"","ITI","","html-keyboard-response","519","476775","0.0-1.0-711.0","0","0","39505","","null","","","null","78","","","","","","","","","","","","","","","NaN",""
"","S1","","html-keyboard-response","520","477034","0.0-1.0-713.0","0","0","39505","","null","","","null","79","","","","","","","","","","","","","","","",""
"","ISI","","html-keyboard-response","521","477537","0.0-1.0-714.0","0","0","39505","","null","","","null","79","NaN","","","","","","","","","","","","","","",""
"","S2","","html-keyboard-response","522","477789","0.0-1.0-715.0","0","0","39505","","null","","","null","79","","NaN","","","","","","","","","","","","","",""
"","response","","html-keyboard-response","523","478229","0.0-1.0-716.0-0.0","0","0","39505","","438","","","75","79","","","2","79","training","adjacent","CB","3","2","Q.jpg","N.jpg","1","0","0","",""
"","feedback","","html-keyboard-response","524","479231","0.0-1.0-717.0-0.0","0","0","39505","","null","","","null","79","","","","","","","","","","","","","","","",""
"","time_out","","html-keyboard-response","525","481233","0.0-1.0-719.0-0.0","0","0","39505","","null","","","null","79","","","","","","","","","","","","","","","",""
"","ITI","","html-keyboard-response","526","482242","0.0-1.0-720.0","0","0","39505","","null","","","null","79","","","","","","","","","","","","","","","NaN",""
"","S1","","html-keyboard-response","527","482494","0.0-1.0-722.0","0","0","39505","","null","","","null","80","","","","","","","","","","","","","","","",""
"","ISI","","html-keyboard-response","528","482997","0.0-1.0-723.0","0","0","39505","","null","","","null","80","NaN","","","","","","","","","","","","","","",""
"","S2","","html-keyboard-response","529","483249","0.0-1.0-724.0","0","0","39505","","null","","","null","80","","NaN","","","","","","","","","","","","","",""
"","response","","html-keyboard-response","530","483652","0.0-1.0-725.0-0.0","0","0","39505","","403","","","68","80","","","2","80","training","adjacent","EF","5","6","P.jpg","L.jpg","0","1","0","",""
"","feedback","","html-keyboard-response","531","484655","0.0-1.0-726.0-0.0","0","0","39505","","null","","","null","80","","","","","","","","","","","","","","","",""
"","time_out","","html-keyboard-response","532","486656","0.0-1.0-728.0-0.0","0","0","39505","","null","","","null","80","","","","","","","","","","","","","","","",""
"","ITI","","html-keyboard-response","533","487658","0.0-1.0-729.0","0","0","39505","","null","","","null","80","","","","","","","","","","","","","","","NaN",""
"","S1","","html-keyboard-response","534","487910","0.0-1.0-731.0","0","0","39505","","null","","","null","81","","","","","","","","","","","","","","","",""
"","ISI","","html-keyboard-response","535","488420","0.0-1.0-732.0","0","0","39505","","null","","","null","81","NaN","","","","","","","","","","","","","","",""
"","S2","","html-keyboard-response","536","488672","0.0-1.0-733.0","0","0","39505","","null","","","null","81","","NaN","","","","","","","","","","","","","",""
"","response","","html-keyboard-response","537","489471","0.0-1.0-734.0-0.0","0","0","39505","","798","","","75","81","","","2","81","training","adjacent","DE","4","5","O.jpg","P.jpg","1","1","1","",""
"","feedback","","html-keyboard-response","538","490472","0.0-1.0-735.0-0.0","0","0","39505","","null","","","null","81","","","","","","","","","","","","","","","",""
"","ITI","","html-keyboard-response","539","491475","0.0-1.0-738.0","0","0","39505","","null","","","null","81","","","","","","","","","","","","","","","NaN",""
"","S1","","html-keyboard-response","540","491727","0.0-1.0-740.0","0","0","39505","","null","","","null","82","","","","","","","","","","","","","","","",""
"","ISI","","html-keyboard-response","541","492229","0.0-1.0-741.0","0","0","39505","","null","","","null","82","NaN","","","","","","","","","","","","","","",""
"","S2","","html-keyboard-response","542","492481","0.0-1.0-742.0","0","0","39505","","null","","","null","82","","NaN","","","","","","","","","","","","","",""
"","response","","html-keyboard-response","543","493323","0.0-1.0-743.0-0.0","0","0","39505","","840","","","68","82","","","2","82","training","adjacent","DC","4","3","O.jpg","Q.jpg","0","0","1","",""
"","feedback","","html-keyboard-response","544","494325","0.0-1.0-744.0-0.0","0","0","39505","","null","","","null","82","","","","","","","","","","","","","","","",""
"","ITI","","html-keyboard-response","545","495327","0.0-1.0-747.0","0","0","39505","","null","","","null","82","","","","","","","","","","","","","","","NaN",""
"","S1","","html-keyboard-response","546","495580","0.0-1.0-749.0","0","0","39505","","null","","","null","83","","","","","","","","","","","","","","","",""
"","ISI","","html-keyboard-response","547","496082","0.0-1.0-750.0","0","0","39505","","null","","","null","83","NaN","","","","","","","","","","","","","","",""
"","S2","","html-keyboard-response","548","496334","0.0-1.0-751.0","0","0","39505","","null","","","null","83","","NaN","","","","","","","","","","","","","",""
"","response","","html-keyboard-response","549","497011","0.0-1.0-752.0-0.0","0","0","39505","","676","","","75","83","","","2","83","training","adjacent","ED","5","4","P.jpg","O.jpg","1","0","0","",""
"","feedback","","html-keyboard-response","550","498013","0.0-1.0-753.0-0.0","0","0","39505","","null","","","null","83","","","","","","","","","","","","","","","",""
"","time_out","","html-keyboard-response","551","500014","0.0-1.0-755.0-0.0","0","0","39505","","null","","","null","83","","","","","","","","","","","","","","","",""
"","ITI","","html-keyboard-response","552","501017","0.0-1.0-756.0","0","0","39505","","null","","","null","83","","","","","","","","","","","","","","","NaN",""
"","S1","","html-keyboard-response","553","501269","0.0-1.0-758.0","0","0","39505","","null","","","null","84","","","","","","","","","","","","","","","",""
"","ISI","","html-keyboard-response","554","501771","0.0-1.0-759.0","0","0","39505","","null","","","null","84","NaN","","","","","","","","","","","","","","",""
"","S2","","html-keyboard-response","555","502023","0.0-1.0-760.0","0","0","39505","","null","","","null","84","","NaN","","","","","","","","","","","","","",""
"","response","","html-keyboard-response","556","502570","0.0-1.0-761.0-0.0","0","0","39505","","547","","","75","84","","","2","84","training","adjacent","GF","7","6","M.jpg","L.jpg","1","0","0","",""
"","feedback","","html-keyboard-response","557","503573","0.0-1.0-762.0-0.0","0","0","39505","","null","","","null","84","","","","","","","","","","","","","","","",""
"","time_out","","html-keyboard-response","558","505575","0.0-1.0-764.0-0.0","0","0","39505","","null","","","null","84","","","","","","","","","","","","","","","",""
"","ITI","","html-keyboard-response","559","506577","0.0-1.0-765.0","0","0","39505","","null","","","null","84","","","","","","","","","","","","","","","NaN",""
"","S1","","html-keyboard-response","560","506829","0.0-1.0-767.0","0","0","39505","","null","","","null","85","","","","","","","","","","","","","","","",""
"","ISI","","html-keyboard-response","561","507331","0.0-1.0-768.0","0","0","39505","","null","","","null","85","NaN","","","","","","","","","","","","","","",""
"","S2","","html-keyboard-response","562","507583","0.0-1.0-769.0","0","0","39505","","null","","","null","85","","NaN","","","","","","","","","","","","","",""
"","response","","html-keyboard-response","563","508000","0.0-1.0-770.0-0.0","0","0","39505","","415","","","68","85","","","2","85","training","adjacent","EF","5","6","P.jpg","L.jpg","0","1","0","",""
"","feedback","","html-keyboard-response","564","509002","0.0-1.0-771.0-0.0","0","0","39505","","null","","","null","85","","","","","","","","","","","","","","","",""
"","time_out","","html-keyboard-response","565","511005","0.0-1.0-773.0-0.0","0","0","39505","","null","","","null","85","","","","","","","","","","","","","","","",""
"","ITI","","html-keyboard-response","566","512006","0.0-1.0-774.0","0","0","39505","","null","","","null","85","","","","","","","","","","","","","","","NaN",""
"","S1","","html-keyboard-response","567","512258","0.0-1.0-776.0","0","0","39505","","null","","","null","86","","","","","","","","","","","","","","","",""
"","ISI","","html-keyboard-response","568","512760","0.0-1.0-777.0","0","0","39505","","null","","","null","86","NaN","","","","","","","","","","","","","","",""
"","S2","","html-keyboard-response","569","513013","0.0-1.0-778.0","0","0","39505","","null","","","null","86","","NaN","","","","","","","","","","","","","",""
"","response","","html-keyboard-response","570","513715","0.0-1.0-779.0-0.0","0","0","39505","","700","","","75","86","","","2","86","training","adjacent","DE","4","5","O.jpg","P.jpg","1","1","1","",""
"","feedback","","html-keyboard-response","571","514717","0.0-1.0-780.0-0.0","0","0","39505","","null","","","null","86","","","","","","","","","","","","","","","",""
"","ITI","","html-keyboard-response","572","515719","0.0-1.0-783.0","0","0","39505","","null","","","null","86","","","","","","","","","","","","","","","NaN",""
"","S1","","html-keyboard-response","573","515971","0.0-1.0-785.0","0","0","39505","","null","","","null","87","","","","","","","","","","","","","","","",""
"","ISI","","html-keyboard-response","574","516473","0.0-1.0-786.0","0","0","39505","","null","","","null","87","NaN","","","","","","","","","","","","","","",""
"","S2","","html-keyboard-response","575","516725","0.0-1.0-787.0","0","0","39505","","null","","","null","87","","NaN","","","","","","","","","","","","","",""
"","response","","html-keyboard-response","576","517220","0.0-1.0-788.0-0.0","0","0","39505","","494","","","75","87","","","2","87","training","adjacent","FG","6","7","L.jpg","M.jpg","1","1","1","",""
"","feedback","","html-keyboard-response","577","518222","0.0-1.0-789.0-0.0","0","0","39505","","null","","","null","87","","","","","","","","","","","","","","","",""
"","ITI","","html-keyboard-response","578","519224","0.0-1.0-792.0","0","0","39505","","null","","","null","87","","","","","","","","","","","","","","","NaN",""
"","S1","","html-keyboard-response","579","519476","0.0-1.0-794.0","0","0","39505","","null","","","null","88","","","","","","","","","","","","","","","",""
"","ISI","","html-keyboard-response","580","519977","0.0-1.0-795.0","0","0","39505","","null","","","null","88","NaN","","","","","","","","","","","","","","",""
"","S2","","html-keyboard-response","581","520237","0.0-1.0-796.0","0","0","39505","","null","","","null","88","","NaN","","","","","","","","","","","","","",""
