"success","ttype","start_time","trial_type","trial_index","time_elapsed","internal_node_id","warning","missed_checkup","PID","view_history","rt","responses","repeat_instructions","key_press","index","keypress_isi","keypress_S2","block","trial_num","phase","group_type","pair_type","S1_stim","S2_stim","S1_img","S2_img","S1_chosen","S1_higher","accuracy","keypress_iti","total_bonus_tally"
"true","full_screen","d04152023hr0412","fullscreen","0","14521","0.0-0.0","0","0","21578","","","","","","","","","","","","","","","","","","","","","",""
"","instructions","","instructions","1","43002","0.0-1.0-0.0-0.0","0","0","21578","[{""page_index"":0,""viewing_time"":5115},{""page_index"":1,""viewing_time"":15073},{""page_index"":2,""viewing_time"":6052},{""page_index"":3,""viewing_time"":2238}]","28479","","","","","","","","","","","","","","","","","","","",""
"","comprehension_check","","survey-multi-choice","2","75154","0.0-1.0-0.0-1.0","0","0","21578","","32146","{""Q0"":""True"",""Q1"":""D"",""Q2"":""Once the second image appears and while the screen 'MAKE A CHOICE' is shown"",""Q3"":""Green mark"",""Q4"":""either D or K""}","0","","","","","","","","","","","","","","","","","",""
"","start_exp","","html-keyboard-response","3","76961","0.0-1.0-1.0","0","0","21578","","1803","","","32","","","","","","","","","","","","","","","","",""
"","S1","","html-keyboard-response","4","77217","0.0-1.0-2.0","0","0","21578","","null","","","null","0","","","","","","","","","","","","","","","",""
"","ISI","","html-keyboard-response","5","78224","0.0-1.0-3.0","0","0","21578","","null","","","null","0","NaN","","","","","","","","","","","","","","",""
"","S2","","html-keyboard-response","6","78485","0.0-1.0-4.0","0","0","21578","","null","","","null","0","","NaN","","","","","","","","","","","","","",""
"","response","","html-keyboard-response","7","79540","0.0-1.0-5.0-0.0","0","0","21578","","1052","","","68","0","","","1","0","training","adjacent","BC","2","3","P.jpg","L.jpg","1","1","1","",""
"","feedback","","html-keyboard-response","8","80547","0.0-1.0-6.0-0.0","0","0","21578","","null","","","null","0","","","","","","","","","","","","","","","",""
"","ITI","","html-keyboard-response","9","81550","0.0-1.0-9.0","0","0","21578","","null","","","null","0","","","","","","","","","","","","","","","NaN",""
"","S1","","html-keyboard-response","10","81802","0.0-1.0-11.0","0","0","21578","","null","","","null","1","","","","","","","","","","","","","","","",""
"","ISI","","html-keyboard-response","11","82810","0.0-1.0-12.0","0","0","21578","","null","","","null","1","NaN","","","","","","","","","","","","","","",""
"","S2","","html-keyboard-response","12","83072","0.0-1.0-13.0","0","0","21578","","null","","","null","1","","NaN","","","","","","","","","","","","","",""
"","response","","html-keyboard-response","13","83694","0.0-1.0-14.0-0.0","0","0","21578","","619","","","75","1","","","1","1","training","adjacent","ED","5","4","Q.jpg","N.jpg","0","0","1","",""
"","feedback","","html-keyboard-response","14","84700","0.0-1.0-15.0-0.0","0","0","21578","","null","","","null","1","","","","","","","","","","","","","","","",""
"","ITI","","html-keyboard-response","15","85704","0.0-1.0-18.0","0","0","21578","","null","","","null","1","","","","","","","","","","","","","","","NaN",""
"","S1","","html-keyboard-response","16","85959","0.0-1.0-20.0","0","0","21578","","null","","","null","2","","","","","","","","","","","","","","","",""
"","ISI","","html-keyboard-response","17","86961","0.0-1.0-21.0","0","0","21578","","null","","","null","2","NaN","","","","","","","","","","","","","","",""
"","S2","","html-keyboard-response","18","87215","0.0-1.0-22.0","0","0","21578","","null","","","null","2","","NaN","","","","","","","","","","","","","",""
"","response","","html-keyboard-response","19","87500","0.0-1.0-23.0-0.0","0","0","21578","","284","","","68","2","","","1","2","training","adjacent","CD","3","4","L.jpg","N.jpg","1","1","1","",""
"","feedback","","html-keyboard-response","20","88504","0.0-1.0-24.0-0.0","0","0","21578","","null","","","null","2","","","","","","","","","","","","","","","",""
"","ITI","","html-keyboard-response","21","89519","0.0-1.0-27.0","0","0","21578","","null","","","null","2","","","","","","","","","","","","","","","NaN",""
"","S1","","html-keyboard-response","22","89772","0.0-1.0-29.0","0","0","21578","","null","","","null","3","","","","","","","","","","","","","","","",""
"","ISI","","html-keyboard-response","23","90781","0.0-1.0-30.0","0","0","21578","","null","","","null","3","NaN","","","","","","","","","","","","","","",""
"","S2","","html-keyboard-response","24","91035","0.0-1.0-31.0","0","0","21578","","null","","","null","3","","NaN","","","","","","","","","","","","","",""
"","response","","html-keyboard-response","25","91396","0.0-1.0-32.0-0.0","0","0","21578","","360","","","68","3","","","1","3","training","adjacent","CD","3","4","L.jpg","N.jpg","1","1","1","",""
"","feedback","","html-keyboard-response","26","92403","0.0-1.0-33.0-0.0","0","0","21578","","null","","","null","3","","","","","","","","","","","","","","","",""
"","ITI","","html-keyboard-response","27","93411","0.0-1.0-36.0","0","0","21578","","null","","","null","3","","","","","","","","","","","","","","","NaN",""
"","S1","","html-keyboard-response","28","93671","0.0-1.0-38.0","0","0","21578","","null","","","null","4","","","","","","","","","","","","","","","",""
"","ISI","","html-keyboard-response","29","94678","0.0-1.0-39.0","0","0","21578","","null","","","null","4","NaN","","","","","","","","","","","","","","",""
"","S2","","html-keyboard-response","30","94938","0.0-1.0-40.0","0","0","21578","","null","","","null","4","","NaN","","","","","","","","","","","","","",""
"","response","","html-keyboard-response","31","95296","0.0-1.0-41.0-0.0","0","0","21578","","357","","","75","4","","","1","4","training","adjacent","GF","7","6","M.jpg","O.jpg","0","0","1","",""
"","feedback","","html-keyboard-response","32","96310","0.0-1.0-42.0-0.0","0","0","21578","","null","","","null","4","","","","","","","","","","","","","","","",""
"","ITI","","html-keyboard-response","33","97318","0.0-1.0-45.0","0","0","21578","","null","","","null","4","","","","","","","","","","","","","","","NaN",""
"","S1","","html-keyboard-response","34","97572","0.0-1.0-47.0","0","0","21578","","null","","","null","5","","","","","","","","","","","","","","","",""
"","ISI","","html-keyboard-response","35","98582","0.0-1.0-48.0","0","0","21578","","null","","","null","5","NaN","","","","","","","","","","","","","","",""
"","S2","","html-keyboard-response","36","98844","0.0-1.0-49.0","0","0","21578","","null","","","null","5","","NaN","","","","","","","","","","","","","",""
"","response","","html-keyboard-response","37","99097","0.0-1.0-50.0-0.0","0","0","21578","","251","","","75","5","","","1","5","training","adjacent","ED","5","4","Q.jpg","N.jpg","0","0","1","",""
"","feedback","","html-keyboard-response","38","100107","0.0-1.0-51.0-0.0","0","0","21578","","null","","","null","5","","","","","","","","","","","","","","","",""
"","ITI","","html-keyboard-response","39","101117","0.0-1.0-54.0","0","0","21578","","null","","","null","5","","","","","","","","","","","","","","","NaN",""
"","S1","","html-keyboard-response","40","101371","0.0-1.0-56.0","0","0","21578","","null","","","null","6","","","","","","","","","","","","","","","",""
"","ISI","","html-keyboard-response","41","102375","0.0-1.0-57.0","0","0","21578","","null","","","null","6","NaN","","","","","","","","","","","","","","",""
"","S2","","html-keyboard-response","42","102629","0.0-1.0-58.0","0","0","21578","","null","","","null","6","","NaN","","","","","","","","","","","","","",""
"","response","","html-keyboard-response","43","102860","0.0-1.0-59.0-0.0","0","0","21578","","229","","","68","6","","","1","6","training","adjacent","DC","4","3","N.jpg","L.jpg","1","0","0","",""
"","feedback","","html-keyboard-response","44","103866","0.0-1.0-60.0-0.0","0","0","21578","","null","","","null","6","","","","","","","","","","","","","","","",""
"","time_out","","html-keyboard-response","45","105883","0.0-1.0-62.0-0.0","0","0","21578","","null","","","null","6","","","","","","","","","","","","","","","",""
"","ITI","","html-keyboard-response","46","106886","0.0-1.0-63.0","0","0","21578","","null","","","null","6","","","","","","","","","","","","","","","NaN",""
"","S1","","html-keyboard-response","47","107138","0.0-1.0-65.0","0","0","21578","","null","","","null","7","","","","","","","","","","","","","","","",""
"","ISI","","html-keyboard-response","48","108144","0.0-1.0-66.0","0","0","21578","","null","","","null","7","NaN","","","","","","","","","","","","","","",""
"","S2","","html-keyboard-response","49","108397","0.0-1.0-67.0","0","0","21578","","null","","","null","7","","NaN","","","","","","","","","","","","","",""
"","response","","html-keyboard-response","50","108663","0.0-1.0-68.0-0.0","0","0","21578","","264","","","75","7","","","1","7","training","adjacent","BA","2","1","P.jpg","R.jpg","0","0","1","",""
"","feedback","","html-keyboard-response","51","109665","0.0-1.0-69.0-0.0","0","0","21578","","null","","","null","7","","","","","","","","","","","","","","","",""
"","ITI","","html-keyboard-response","52","110671","0.0-1.0-72.0","0","0","21578","","null","","","null","7","","","","","","","","","","","","","","","NaN",""
"","S1","","html-keyboard-response","53","110925","0.0-1.0-74.0","0","0","21578","","null","","","null","8","","","","","","","","","","","","","","","",""
"","ISI","","html-keyboard-response","54","111932","0.0-1.0-75.0","0","0","21578","","null","","","null","8","NaN","","","","","","","","","","","","","","",""
"","S2","","html-keyboard-response","55","112194","0.0-1.0-76.0","0","0","21578","","null","","","null","8","","NaN","","","","","","","","","","","","","",""
"","response","","html-keyboard-response","56","112521","0.0-1.0-77.0-0.0","0","0","21578","","324","","","68","8","","","1","8","training","adjacent","CB","3","2","L.jpg","P.jpg","1","0","0","",""
"","feedback","","html-keyboard-response","57","113531","0.0-1.0-78.0-0.0","0","0","21578","","null","","","null","8","","","","","","","","","","","","","","","",""
"","time_out","","html-keyboard-response","58","115540","0.0-1.0-80.0-0.0","0","0","21578","","null","","","null","8","","","","","","","","","","","","","","","",""
"","ITI","","html-keyboard-response","59","116548","0.0-1.0-81.0","0","0","21578","","null","","","null","8","","","","","","","","","","","","","","","NaN",""
"","S1","","html-keyboard-response","60","116808","0.0-1.0-83.0","0","0","21578","","null","","","null","9","","","","","","","","","","","","","","","",""
"","ISI","","html-keyboard-response","61","117823","0.0-1.0-84.0","0","0","21578","","null","","","null","9","NaN","","","","","","","","","","","","","","",""
"","S2","","html-keyboard-response","62","118084","0.0-1.0-85.0","0","0","21578","","null","","","null","9","","NaN","","","","","","","","","","","","","",""
"","response","","html-keyboard-response","63","118165","0.0-1.0-86.0-0.0","0","0","21578","","78","","","75","9","","","1","9","training","adjacent","AB","1","2","R.jpg","P.jpg","0","1","0","",""
"","feedback","","html-keyboard-response","64","119168","0.0-1.0-87.0-0.0","0","0","21578","","null","","","null","9","","","","","","","","","","","","","","","",""
"","time_out","","html-keyboard-response","65","121172","0.0-1.0-89.0-0.0","0","0","21578","","null","","","null","9","","","","","","","","","","","","","","","",""
"","ITI","","html-keyboard-response","66","122175","0.0-1.0-90.0","0","0","21578","","null","","","null","9","","","","","","","","","","","","","","","NaN",""
"","S1","","html-keyboard-response","67","122428","0.0-1.0-92.0","0","0","21578","","null","","","null","10","","","","","","","","","","","","","","","",""
"","ISI","","html-keyboard-response","68","123437","0.0-1.0-93.0","0","0","21578","","null","","","null","10","NaN","","","","","","","","","","","","","","",""
"","S2","","html-keyboard-response","69","123691","0.0-1.0-94.0","0","0","21578","","null","","","null","10","","NaN","","","","","","","","","","","","","",""
"","response","","html-keyboard-response","70","123790","0.0-1.0-95.0-0.0","0","0","21578","","97","","","68","10","","","1","10","training","adjacent","ED","5","4","Q.jpg","N.jpg","1","0","0","",""
"","feedback","","html-keyboard-response","71","124798","0.0-1.0-96.0-0.0","0","0","21578","","null","","","null","10","","","","","","","","","","","","","","","",""
"","time_out","","html-keyboard-response","72","126801","0.0-1.0-98.0-0.0","0","0","21578","","null","","","null","10","","","","","","","","","","","","","","","",""
"","ITI","","html-keyboard-response","73","127814","0.0-1.0-99.0","0","0","21578","","null","","","null","10","","","","","","","","","","","","","","","NaN",""
"","S1","","html-keyboard-response","74","128068","0.0-1.0-101.0","0","0","21578","","null","","","null","11","","","","","","","","","","","","","","","",""
"","ISI","","html-keyboard-response","75","129074","0.0-1.0-102.0","0","0","21578","","null","","","null","11","NaN","","","","","","","","","","","","","","",""
"","S2","","html-keyboard-response","76","129327","0.0-1.0-103.0","0","0","21578","","null","","","null","11","","NaN","","","","","","","","","","","","","",""
"","response","","html-keyboard-response","77","129376","0.0-1.0-104.0-0.0","0","0","21578","","48","","","68","11","","","1","11","training","adjacent","FG","6","7","O.jpg","M.jpg","1","1","1","",""
"","feedback","","html-keyboard-response","78","130385","0.0-1.0-105.0-0.0","0","0","21578","","null","","","null","11","","","","","","","","","","","","","","","",""
"","ITI","","html-keyboard-response","79","131400","0.0-1.0-108.0","0","0","21578","","null","","","null","11","","","","","","","","","","","","","","","NaN",""
"","S1","","html-keyboard-response","80","131663","0.0-1.0-110.0","0","0","21578","","null","","","null","12","","","","","","","","","","","","","","","",""
"","ISI","","html-keyboard-response","81","132680","0.0-1.0-111.0","0","0","21578","","null","","","null","12","NaN","","","","","","","","","","","","","","",""
"","S2","","html-keyboard-response","82","132933","0.0-1.0-112.0","0","0","21578","","null","","","null","12","","NaN","","","","","","","","","","","","","",""
"","response","","html-keyboard-response","83","133043","0.0-1.0-113.0-0.0","0","0","21578","","109","","","68","12","","","1","12","training","adjacent","BC","2","3","P.jpg","L.jpg","1","1","1","",""
"","feedback","","html-keyboard-response","84","134046","0.0-1.0-114.0-0.0","0","0","21578","","null","","","null","12","","","","","","","","","","","","","","","",""
"","ITI","","html-keyboard-response","85","135055","0.0-1.0-117.0","0","0","21578","","null","","","null","12","","","","","","","","","","","","","","","NaN",""
"","S1","","html-keyboard-response","86","135308","0.0-1.0-119.0","0","0","21578","","null","","","null","13","","","","","","","","","","","","","","","",""
"","ISI","","html-keyboard-response","87","136326","0.0-1.0-120.0","0","0","21578","","null","","","null","13","NaN","","","","","","","","","","","","","","",""
"","S2","","html-keyboard-response","88","136580","0.0-1.0-121.0","0","0","21578","","null","","","null","13","","NaN","","","","","","","","","","","","","",""
"","response","","html-keyboard-response","89","136806","0.0-1.0-122.0-0.0","0","0","21578","","225","","","75","13","","","1","13","training","adjacent","DE","4","5","N.jpg","Q.jpg","0","1","0","",""
"","feedback","","html-keyboard-response","90","137813","0.0-1.0-123.0-0.0","0","0","21578","","null","","","null","13","","","","","","","","","","","","","","","",""
"","time_out","","html-keyboard-response","91","139821","0.0-1.0-125.0-0.0","0","0","21578","","null","","","null","13","","","","","","","","","","","","","","","",""
"","ITI","","html-keyboard-response","92","140826","0.0-1.0-126.0","0","0","21578","","null","","","null","13","","","","","","","","","","","","","","","NaN",""
"","S1","","html-keyboard-response","93","141080","0.0-1.0-128.0","0","0","21578","","null","","","null","14","","","","","","","","","","","","","","","",""
"","ISI","","html-keyboard-response","94","142084","0.0-1.0-129.0","0","0","21578","","null","","","null","14","NaN","","","","","","","","","","","","","","",""
"","S2","","html-keyboard-response","95","142346","0.0-1.0-130.0","0","0","21578","","null","","","null","14","","NaN","","","","","","","","","","","","","",""
"","response","","html-keyboard-response","96","142387","0.0-1.0-131.0-0.0","0","0","21578","","40","","","68","14","","","1","14","training","adjacent","BA","2","1","P.jpg","R.jpg","1","0","0","",""
"","feedback","","html-keyboard-response","97","143394","0.0-1.0-132.0-0.0","0","0","21578","","null","","","null","14","","","","","","","","","","","","","","","",""
"","time_out","","html-keyboard-response","98","145403","0.0-1.0-134.0-0.0","0","0","21578","","null","","","null","14","","","","","","","","","","","","","","","",""
"","ITI","","html-keyboard-response","99","146409","0.0-1.0-135.0","0","0","21578","","null","","","null","14","","","","","","","","","","","","","","","NaN",""
"","S1","","html-keyboard-response","100","146671","0.0-1.0-137.0","0","0","21578","","null","","","null","15","","","","","","","","","","","","","","","",""
"","ISI","","html-keyboard-response","101","147681","0.0-1.0-138.0","0","0","21578","","null","","","null","15","NaN","","","","","","","","","","","","","","",""
"","S2","","html-keyboard-response","102","147935","0.0-1.0-139.0","0","0","21578","","null","","","null","15","","NaN","","","","","","","","","","","","","",""
"","response","","html-keyboard-response","103","148274","0.0-1.0-140.0-0.0","0","0","21578","","338","","","75","15","","","1","15","training","adjacent","CD","3","4","L.jpg","N.jpg","0","1","0","",""
"","feedback","","html-keyboard-response","104","149286","0.0-1.0-141.0-0.0","0","0","21578","","null","","","null","15","","","","","","","","","","","","","","","",""
"","time_out","","html-keyboard-response","105","151292","0.0-1.0-143.0-0.0","0","0","21578","","null","","","null","15","","","","","","","","","","","","","","","",""
"","ITI","","html-keyboard-response","106","152302","0.0-1.0-144.0","0","0","21578","","null","","","null","15","","","","","","","","","","","","","","","NaN",""
"","S1","","html-keyboard-response","107","152571","0.0-1.0-146.0","0","0","21578","","null","","","null","16","","","","","","","","","","","","","","","",""
"","ISI","","html-keyboard-response","108","153579","0.0-1.0-147.0","0","0","21578","","null","","","null","16","NaN","","","","","","","","","","","","","","",""
"","S2","","html-keyboard-response","109","153840","0.0-1.0-148.0","0","0","21578","","null","","","null","16","","NaN","","","","","","","","","","","","","",""
"","response","","html-keyboard-response","110","153882","0.0-1.0-149.0-0.0","0","0","21578","","39","","","68","16","","","1","16","training","adjacent","FE","6","5","O.jpg","Q.jpg","1","0","0","",""
"","feedback","","html-keyboard-response","111","154892","0.0-1.0-150.0-0.0","0","0","21578","","null","","","null","16","","","","","","","","","","","","","","","",""
"","time_out","","html-keyboard-response","112","156901","0.0-1.0-152.0-0.0","0","0","21578","","null","","","null","16","","","","","","","","","","","","","","","",""
"","ITI","","html-keyboard-response","113","157906","0.0-1.0-153.0","0","0","21578","","null","","","null","16","","","","","","","","","","","","","","","NaN",""
"","S1","","html-keyboard-response","114","158160","0.0-1.0-155.0","0","0","21578","","null","","","null","17","","","","","","","","","","","","","","","",""
"","ISI","","html-keyboard-response","115","159170","0.0-1.0-156.0","0","0","21578","","null","","","null","17","NaN","","","","","","","","","","","","","","",""
"","S2","","html-keyboard-response","116","159425","0.0-1.0-157.0","0","0","21578","","null","","","null","17","","NaN","","","","","","","","","","","","","",""
"","response","","html-keyboard-response","117","159546","0.0-1.0-158.0-0.0","0","0","21578","","120","","","68","17","","","1","17","training","adjacent","EF","5","6","Q.jpg","O.jpg","1","1","1","",""
"","feedback","","html-keyboard-response","118","160549","0.0-1.0-159.0-0.0","0","0","21578","","null","","","null","17","","","","","","","","","","","","","","","",""
"","ITI","","html-keyboard-response","119","161558","0.0-1.0-162.0","0","0","21578","","null","","","null","17","","","","","","","","","","","","","","","NaN",""
"","S1","","html-keyboard-response","120","161820","0.0-1.0-164.0","0","0","21578","","null","","","null","18","","","","","","","","","","","","","","","",""
"","ISI","","html-keyboard-response","121","162823","0.0-1.0-165.0","0","0","21578","","null","","","null","18","NaN","","","","","","","","","","","","","","",""
"","S2","","html-keyboard-response","122","163077","0.0-1.0-166.0","0","0","21578","","null","","","null","18","","NaN","","","","","","","","","","","","","",""
"","response","","html-keyboard-response","123","163230","0.0-1.0-167.0-0.0","0","0","21578","","151","","","68","18","","","1","18","training","adjacent","ED","5","4","Q.jpg","N.jpg","1","0","0","",""
"","feedback","","html-keyboard-response","124","164237","0.0-1.0-168.0-0.0","0","0","21578","","null","","","null","18","","","","","","","","","","","","","","","",""
"","time_out","","html-keyboard-response","125","166244","0.0-1.0-170.0-0.0","0","0","21578","","null","","","null","18","","","","","","","","","","","","","","","",""
"","ITI","","html-keyboard-response","126","167250","0.0-1.0-171.0","0","0","21578","","null","","","null","18","","","","","","","","","","","","","","","NaN",""
"","S1","","html-keyboard-response","127","167505","0.0-1.0-173.0","0","0","21578","","null","","","null","19","","","","","","","","","","","","","","","",""
"","ISI","","html-keyboard-response","128","168514","0.0-1.0-174.0","0","0","21578","","null","","","null","19","NaN","","","","","","","","","","","","","","",""
"","S2","","html-keyboard-response","129","168777","0.0-1.0-175.0","0","0","21578","","null","","","null","19","","NaN","","","","","","","","","","","","","",""
"","response","","html-keyboard-response","130","168809","0.0-1.0-176.0-0.0","0","0","21578","","31","","","68","19","","","1","19","training","adjacent","EF","5","6","Q.jpg","O.jpg","1","1","1","",""
"","feedback","","html-keyboard-response","131","169816","0.0-1.0-177.0-0.0","0","0","21578","","null","","","null","19","","","","","","","","","","","","","","","",""
"","ITI","","html-keyboard-response","132","170825","0.0-1.0-180.0","0","0","21578","","null","","","null","19","","","","","","","","","","","","","","","NaN",""
"","S1","","html-keyboard-response","133","171081","0.0-1.0-182.0","0","0","21578","","null","","","null","20","","","","","","","","","","","","","","","",""
"","ISI","","html-keyboard-response","134","172092","0.0-1.0-183.0","0","0","21578","","null","","","null","20","NaN","","","","","","","","","","","","","","",""
"","S2","","html-keyboard-response","135","172346","0.0-1.0-184.0","0","0","21578","","null","","","null","20","","NaN","","","","","","","","","","","","","",""
"","response","","html-keyboard-response","136","172655","0.0-1.0-185.0-0.0","0","0","21578","","308","","","75","20","","","1","20","training","adjacent","DE","4","5","N.jpg","Q.jpg","0","1","0","",""
"","feedback","","html-keyboard-response","137","173668","0.0-1.0-186.0-0.0","0","0","21578","","null","","","null","20","","","","","","","","","","","","","","","",""
"","time_out","","html-keyboard-response","138","175673","0.0-1.0-188.0-0.0","0","0","21578","","null","","","null","20","","","","","","","","","","","","","","","",""
"","ITI","","html-keyboard-response","139","176676","0.0-1.0-189.0","0","0","21578","","null","","","null","20","","","","","","","","","","","","","","","NaN",""
"","S1","","html-keyboard-response","140","176932","0.0-1.0-191.0","0","0","21578","","null","","","null","21","","","","","","","","","","","","","","","",""
"","ISI","","html-keyboard-response","141","177942","0.0-1.0-192.0","0","0","21578","","null","","","null","21","NaN","","","","","","","","","","","","","","",""
"","S2","","html-keyboard-response","142","178195","0.0-1.0-193.0","0","0","21578","","null","","","null","21","","NaN","","","","","","","","","","","","","",""
"","response","","html-keyboard-response","143","178402","0.0-1.0-194.0-0.0","0","0","21578","","205","","","75","21","","","1","21","training","adjacent","FE","6","5","O.jpg","Q.jpg","0","0","1","",""
"","feedback","","html-keyboard-response","144","179411","0.0-1.0-195.0-0.0","0","0","21578","","null","","","null","21","","","","","","","","","","","","","","","",""
"","ITI","","html-keyboard-response","145","180420","0.0-1.0-198.0","0","0","21578","","null","","","null","21","","","","","","","","","","","","","","","NaN",""
"","S1","","html-keyboard-response","146","180673","0.0-1.0-200.0","0","0","21578","","null","","","null","22","","","","","","","","","","","","","","","",""
"","ISI","","html-keyboard-response","147","181677","0.0-1.0-201.0","0","0","21578","","null","","","null","22","NaN","","","","","","","","","","","","","","",""
"","S2","","html-keyboard-response","148","181931","0.0-1.0-202.0","0","0","21578","","null","","","null","22","","NaN","","","","","","","","","","","","","",""
"","response","","html-keyboard-response","149","182183","0.0-1.0-203.0-0.0","0","0","21578","","250","","","68","22","","","1","22","training","adjacent","GF","7","6","M.jpg","O.jpg","1","0","0","",""
"","feedback","","html-keyboard-response","150","183191","0.0-1.0-204.0-0.0","0","0","21578","","null","","","null","22","","","","","","","","","","","","","","","",""
"","time_out","","html-keyboard-response","151","185202","0.0-1.0-206.0-0.0","0","0","21578","","null","","","null","22","","","","","","","","","","","","","","","",""
"","ITI","","html-keyboard-response","152","186213","0.0-1.0-207.0","0","0","21578","","null","","","null","22","","","","","","","","","","","","","","","NaN",""
"","S1","","html-keyboard-response","153","186468","0.0-1.0-209.0","0","0","21578","","null","","","null","23","","","","","","","","","","","","","","","",""
"","ISI","","html-keyboard-response","154","187478","0.0-1.0-210.0","0","0","21578","","null","","","null","23","NaN","","","","","","","","","","","","","","",""
"","S2","","html-keyboard-response","155","187739","0.0-1.0-211.0","0","0","21578","","null","","","null","23","","NaN","","","","","","","","","","","","","",""
"","response","","html-keyboard-response","156","188099","0.0-1.0-212.0-0.0","0","0","21578","","358","","","75","23","","","1","23","training","adjacent","FE","6","5","O.jpg","Q.jpg","0","0","1","",""
"","feedback","","html-keyboard-response","157","189109","0.0-1.0-213.0-0.0","0","0","21578","","null","","","null","23","","","","","","","","","","","","","","","",""
"","ITI","","html-keyboard-response","158","190117","0.0-1.0-216.0","0","0","21578","","null","","","null","23","","","","","","","","","","","","","","","NaN",""
"","S1","","html-keyboard-response","159","190369","0.0-1.0-218.0","0","0","21578","","null","","","null","24","","","","","","","","","","","","","","","",""
"","ISI","","html-keyboard-response","160","191373","0.0-1.0-219.0","0","0","21578","","null","","","null","24","NaN","","","","","","","","","","","","","","",""
"","S2","","html-keyboard-response","161","191627","0.0-1.0-220.0","0","0","21578","","null","","","null","24","","NaN","","","","","","","","","","","","","",""
"","response","","html-keyboard-response","162","191897","0.0-1.0-221.0-0.0","0","0","21578","","268","","","75","24","","","1","24","training","adjacent","DC","4","3","N.jpg","L.jpg","0","0","1","",""
"","feedback","","html-keyboard-response","163","192904","0.0-1.0-222.0-0.0","0","0","21578","","null","","","null","24","","","","","","","","","","","","","","","",""
"","ITI","","html-keyboard-response","164","193915","0.0-1.0-225.0","0","0","21578","","null","","","null","24","","","","","","","","","","","","","","","NaN",""
"","S1","","html-keyboard-response","165","194171","0.0-1.0-227.0","0","0","21578","","null","","","null","25","","","","","","","","","","","","","","","",""
"","ISI","","html-keyboard-response","166","195180","0.0-1.0-228.0","0","0","21578","","null","","","null","25","NaN","","","","","","","","","","","","","","",""
"","S2","","html-keyboard-response","167","195435","0.0-1.0-229.0","0","0","21578","","null","","","null","25","","NaN","","","","","","","","","","","","","",""
"","response","","html-keyboard-response","168","195607","0.0-1.0-230.0-0.0","0","0","21578","","171","","","68","25","","","1","25","training","adjacent","FG","6","7","O.jpg","M.jpg","1","1","1","",""
"","feedback","","html-keyboard-response","169","196615","0.0-1.0-231.0-0.0","0","0","21578","","null","","","null","25","","","","","","","","","","","","","","","",""
"","ITI","","html-keyboard-response","170","197625","0.0-1.0-234.0","0","0","21578","","null","","","null","25","","","","","","","","","","","","","","","NaN",""
"","S1","","html-keyboard-response","171","197880","0.0-1.0-236.0","0","0","21578","","null","","","null","26","","","","","","","","","","","","","","","",""
"","ISI","","html-keyboard-response","172","198888","0.0-1.0-237.0","0","0","21578","","null","","","null","26","NaN","","","","","","","","","","","","","","",""
"","S2","","html-keyboard-response","173","199143","0.0-1.0-238.0","0","0","21578","","null","","","null","26","","NaN","","","","","","","","","","","","","",""
"","response","","html-keyboard-response","174","199275","0.0-1.0-239.0-0.0","0","0","21578","","129","","","75","26","","","1","26","training","adjacent","AB","1","2","R.jpg","P.jpg","0","1","0","",""
"","feedback","","html-keyboard-response","175","200285","0.0-1.0-240.0-0.0","0","0","21578","","null","","","null","26","","","","","","","","","","","","","","","",""
"","time_out","","html-keyboard-response","176","202291","0.0-1.0-242.0-0.0","0","0","21578","","null","","","null","26","","","","","","","","","","","","","","","",""
"","ITI","","html-keyboard-response","177","203295","0.0-1.0-243.0","0","0","21578","","null","","","null","26","","","","","","","","","","","","","","","NaN",""
"","S1","","html-keyboard-response","178","203551","0.0-1.0-245.0","0","0","21578","","null","","","null","27","","","","","","","","","","","","","","","",""
"","ISI","","html-keyboard-response","179","204556","0.0-1.0-246.0","0","0","21578","","null","","","null","27","NaN","","","","","","","","","","","","","","",""
"","S2","","html-keyboard-response","180","204817","0.0-1.0-247.0","0","0","21578","","null","","","null","27","","NaN","","","","","","","","","","","","","",""
"","response","","html-keyboard-response","181","204843","0.0-1.0-248.0-0.0","0","0","21578","","24","","","68","27","","","1","27","training","adjacent","BA","2","1","P.jpg","R.jpg","1","0","0","",""
"","feedback","","html-keyboard-response","182","205855","0.0-1.0-249.0-0.0","0","0","21578","","null","","","null","27","","","","","","","","","","","","","","","",""
"","time_out","","html-keyboard-response","183","207859","0.0-1.0-251.0-0.0","0","0","21578","","null","","","null","27","","","","","","","","","","","","","","","",""
"","ITI","","html-keyboard-response","184","208864","0.0-1.0-252.0","0","0","21578","","null","","","null","27","","","","","","","","","","","","","","","NaN",""
"","S1","","html-keyboard-response","185","209119","0.0-1.0-254.0","0","0","21578","","null","","","null","28","","","","","","","","","","","","","","","",""
"","ISI","","html-keyboard-response","186","210123","0.0-1.0-255.0","0","0","21578","","null","","","null","28","NaN","","","","","","","","","","","","","","",""
"","S2","","html-keyboard-response","187","210387","0.0-1.0-256.0","0","0","21578","","null","","","null","28","","NaN","","","","","","","","","","","","","",""
"","response","","html-keyboard-response","188","210476","0.0-1.0-257.0-0.0","0","0","21578","","88","","","75","28","","","1","28","training","adjacent","AB","1","2","R.jpg","P.jpg","0","1","0","",""
"","feedback","","html-keyboard-response","189","211482","0.0-1.0-258.0-0.0","0","0","21578","","null","","","null","28","","","","","","","","","","","","","","","",""
"","time_out","","html-keyboard-response","190","213491","0.0-1.0-260.0-0.0","0","0","21578","","null","","","null","28","","","","","","","","","","","","","","","",""
"","ITI","","html-keyboard-response","191","214494","0.0-1.0-261.0","0","0","21578","","749","","","68","28","","","","","","","","","","","","","","","d",""
"","S1","","html-keyboard-response","192","214749","0.0-1.0-263.0","0","0","21578","","null","","","null","29","","","","","","","","","","","","","","","",""
"","ISI","","html-keyboard-response","193","215757","0.0-1.0-264.0","0","0","21578","","null","","","null","29","NaN","","","","","","","","","","","","","","",""
"","S2","","html-keyboard-response","194","216013","0.0-1.0-265.0","0","0","21578","","null","","","null","29","","NaN","","","","","","","","","","","","","",""
"","response","","html-keyboard-response","195","216098","0.0-1.0-266.0-0.0","0","0","21578","","84","","","68","29","","","1","29","training","adjacent","CD","3","4","L.jpg","N.jpg","1","1","1","",""
"","feedback","","html-keyboard-response","196","217105","0.0-1.0-267.0-0.0","0","0","21578","","null","","","null","29","","","","","","","","","","","","","","","",""
"","ITI","","html-keyboard-response","197","218109","0.0-1.0-270.0","0","0","21578","","null","","","null","29","","","","","","","","","","","","","","","NaN",""
"","S1","","html-keyboard-response","198","218365","0.0-1.0-272.0","0","0","21578","","null","","","null","30","","","","","","","","","","","","","","","",""
"","ISI","","html-keyboard-response","199","219374","0.0-1.0-273.0","0","0","21578","","null","","","null","30","NaN","","","","","","","","","","","","","","",""
"","S2","","html-keyboard-response","200","219630","0.0-1.0-274.0","0","0","21578","","null","","","null","30","","NaN","","","","","","","","","","","","","",""
"","response","","html-keyboard-response","201","219728","0.0-1.0-275.0-0.0","0","0","21578","","96","","","75","30","","","1","30","training","adjacent","FE","6","5","O.jpg","Q.jpg","0","0","1","",""
"","feedback","","html-keyboard-response","202","220736","0.0-1.0-276.0-0.0","0","0","21578","","null","","","null","30","","","","","","","","","","","","","","","",""
"","ITI","","html-keyboard-response","203","221739","0.0-1.0-279.0","0","0","21578","","null","","","null","30","","","","","","","","","","","","","","","NaN",""
"","S1","","html-keyboard-response","204","221994","0.0-1.0-281.0","0","0","21578","","null","","","null","31","","","","","","","","","","","","","","","",""
"","ISI","","html-keyboard-response","205","223011","0.0-1.0-282.0","0","0","21578","","null","","","null","31","NaN","","","","","","","","","","","","","","",""
"","S2","","html-keyboard-response","206","223272","0.0-1.0-283.0","0","0","21578","","null","","","null","31","","NaN","","","","","","","","","","","","","",""
"","response","","html-keyboard-response","207","223489","0.0-1.0-284.0-0.0","0","0","21578","","215","","","75","31","","","1","31","training","adjacent","DE","4","5","N.jpg","Q.jpg","0","1","0","",""
"","feedback","","html-keyboard-response","208","224493","0.0-1.0-285.0-0.0","0","0","21578","","null","","","null","31","","","","","","","","","","","","","","","",""
"","time_out","","html-keyboard-response","209","226504","0.0-1.0-287.0-0.0","0","0","21578","","null","","","null","31","","","","","","","","","","","","","","","",""
"","ITI","","html-keyboard-response","210","227508","0.0-1.0-288.0","0","0","21578","","null","","","null","31","","","","","","","","","","","","","","","NaN",""
"","S1","","html-keyboard-response","211","227763","0.0-1.0-290.0","0","0","21578","","null","","","null","32","","","","","","","","","","","","","","","",""
"","ISI","","html-keyboard-response","212","228767","0.0-1.0-291.0","0","0","21578","","null","","","null","32","NaN","","","","","","","","","","","","","","",""
"","S2","","html-keyboard-response","213","229023","0.0-1.0-292.0","0","0","21578","","null","","","null","32","","NaN","","","","","","","","","","","","","",""
"","response","","html-keyboard-response","214","229132","0.0-1.0-293.0-0.0","0","0","21578","","107","","","68","32","","","1","32","training","adjacent","EF","5","6","Q.jpg","O.jpg","1","1","1","",""
"","feedback","","html-keyboard-response","215","230138","0.0-1.0-294.0-0.0","0","0","21578","","null","","","null","32","","","","","","","","","","","","","","","",""
"","ITI","","html-keyboard-response","216","231144","0.0-1.0-297.0","0","0","21578","","null","","","null","32","","","","","","","","","","","","","","","NaN",""
"","S1","","html-keyboard-response","217","231398","0.0-1.0-299.0","0","0","21578","","null","","","null","33","","","","","","","","","","","","","","","",""
"","ISI","","html-keyboard-response","218","232417","0.0-1.0-300.0","0","0","21578","","null","","","null","33","NaN","","","","","","","","","","","","","","",""
"","S2","","html-keyboard-response","219","232679","0.0-1.0-301.0","0","0","21578","","null","","","null","33","","NaN","","","","","","","","","","","","","",""
"","response","","html-keyboard-response","220","232760","0.0-1.0-302.0-0.0","0","0","21578","","78","","","68","33","","","1","33","training","adjacent","FG","6","7","O.jpg","M.jpg","1","1","1","",""
"","feedback","","html-keyboard-response","221","233770","0.0-1.0-303.0-0.0","0","0","21578","","null","","","null","33","","","","","","","","","","","","","","","",""
"","ITI","","html-keyboard-response","222","234777","0.0-1.0-306.0","0","0","21578","","null","","","null","33","","","","","","","","","","","","","","","NaN",""
"","S1","","html-keyboard-response","223","235033","0.0-1.0-308.0","0","0","21578","","null","","","null","34","","","","","","","","","","","","","","","",""
"","ISI","","html-keyboard-response","224","236036","0.0-1.0-309.0","0","0","21578","","null","","","null","34","NaN","","","","","","","","","","","","","","",""
"","S2","","html-keyboard-response","225","236299","0.0-1.0-310.0","0","0","21578","","null","","","null","34","","NaN","","","","","","","","","","","","","",""
"","response","","html-keyboard-response","226","236520","0.0-1.0-311.0-0.0","0","0","21578","","219","","","75","34","","","1","34","training","adjacent","FG","6","7","O.jpg","M.jpg","0","1","0","",""
"","feedback","","html-keyboard-response","227","237523","0.0-1.0-312.0-0.0","0","0","21578","","null","","","null","34","","","","","","","","","","","","","","","",""
"","time_out","","html-keyboard-response","228","239528","0.0-1.0-314.0-0.0","0","0","21578","","null","","","null","34","","","","","","","","","","","","","","","",""
"","ITI","","html-keyboard-response","229","240539","0.0-1.0-315.0","0","0","21578","","null","","","null","34","","","","","","","","","","","","","","","NaN",""
"","S1","","html-keyboard-response","230","240793","0.0-1.0-317.0","0","0","21578","","null","","","null","35","","","","","","","","","","","","","","","",""
"","ISI","","html-keyboard-response","231","241799","0.0-1.0-318.0","0","0","21578","","null","","","null","35","NaN","","","","","","","","","","","","","","",""
"","S2","","html-keyboard-response","232","242052","0.0-1.0-319.0","0","0","21578","","null","","","null","35","","NaN","","","","","","","","","","","","","",""
"","response","","html-keyboard-response","233","242229","0.0-1.0-320.0-0.0","0","0","21578","","176","","","75","35","","","1","35","training","adjacent","DE","4","5","N.jpg","Q.jpg","0","1","0","",""
"","feedback","","html-keyboard-response","234","243235","0.0-1.0-321.0-0.0","0","0","21578","","null","","","null","35","","","","","","","","","","","","","","","",""
"","time_out","","html-keyboard-response","235","245241","0.0-1.0-323.0-0.0","0","0","21578","","null","","","null","35","","","","","","","","","","","","","","","",""
"","ITI","","html-keyboard-response","236","246253","0.0-1.0-324.0","0","0","21578","","null","","","null","35","","","","","","","","","","","","","","","NaN",""
"","S1","","html-keyboard-response","237","246515","0.0-1.0-326.0","0","0","21578","","null","","","null","36","","","","","","","","","","","","","","","",""
"","ISI","","html-keyboard-response","238","247529","0.0-1.0-327.0","0","0","21578","","null","","","null","36","NaN","","","","","","","","","","","","","","",""
"","S2","","html-keyboard-response","239","247784","0.0-1.0-328.0","0","0","21578","","null","","","null","36","","NaN","","","","","","","","","","","","","",""
"","response","","html-keyboard-response","240","247827","0.0-1.0-329.0-0.0","0","0","21578","","42","","","75","36","","","1","36","training","adjacent","GF","7","6","M.jpg","O.jpg","0","0","1","",""
"","feedback","","html-keyboard-response","241","248836","0.0-1.0-330.0-0.0","0","0","21578","","null","","","null","36","","","","","","","","","","","","","","","",""
"","ITI","","html-keyboard-response","242","249852","0.0-1.0-333.0","0","0","21578","","null","","","null","36","","","","","","","","","","","","","","","NaN",""
"","S1","","html-keyboard-response","243","250117","0.0-1.0-335.0","0","0","21578","","null","","","null","37","","","","","","","","","","","","","","","",""
"","ISI","","html-keyboard-response","244","251122","0.0-1.0-336.0","0","0","21578","","null","","","null","37","NaN","","","","","","","","","","","","","","",""
"","S2","","html-keyboard-response","245","251377","0.0-1.0-337.0","0","0","21578","","null","","","null","37","","NaN","","","","","","","","","","","","","",""
"","response","","html-keyboard-response","246","251501","0.0-1.0-338.0-0.0","0","0","21578","","123","","","68","37","","","1","37","training","adjacent","GF","7","6","M.jpg","O.jpg","1","0","0","",""
"","feedback","","html-keyboard-response","247","252517","0.0-1.0-339.0-0.0","0","0","21578","","null","","","null","37","","","","","","","","","","","","","","","",""
"","time_out","","html-keyboard-response","248","254524","0.0-1.0-341.0-0.0","0","0","21578","","null","","","null","37","","","","","","","","","","","","","","","",""
"","ITI","","html-keyboard-response","249","255535","0.0-1.0-342.0","0","0","21578","","null","","","null","37","","","","","","","","","","","","","","","NaN",""
"","S1","","html-keyboard-response","250","255788","0.0-1.0-344.0","0","0","21578","","null","","","null","38","","","","","","","","","","","","","","","",""
"","ISI","","html-keyboard-response","251","256801","0.0-1.0-345.0","0","0","21578","","null","","","null","38","NaN","","","","","","","","","","","","","","",""
"","S2","","html-keyboard-response","252","257057","0.0-1.0-346.0","0","0","21578","","null","","","null","38","","NaN","","","","","","","","","","","","","",""
"","response","","html-keyboard-response","253","257153","0.0-1.0-347.0-0.0","0","0","21578","","93","","","75","38","","","1","38","training","adjacent","EF","5","6","Q.jpg","O.jpg","0","1","0","",""
"","feedback","","html-keyboard-response","254","258165","0.0-1.0-348.0-0.0","0","0","21578","","null","","","null","38","","","","","","","","","","","","","","","",""
"","time_out","","html-keyboard-response","255","260173","0.0-1.0-350.0-0.0","0","0","21578","","null","","","null","38","","","","","","","","","","","","","","","",""
"","ITI","","html-keyboard-response","256","261182","0.0-1.0-351.0","0","0","21578","","null","","","null","38","","","","","","","","","","","","","","","NaN",""
"","S1","","html-keyboard-response","257","261436","0.0-1.0-353.0","0","0","21578","","null","","","null","39","","","","","","","","","","","","","","","",""
"","ISI","","html-keyboard-response","258","262447","0.0-1.0-354.0","0","0","21578","","null","","","null","39","NaN","","","","","","","","","","","","","","",""
"","S2","","html-keyboard-response","259","262702","0.0-1.0-355.0","0","0","21578","","null","","","null","39","","NaN","","","","","","","","","","","","","",""
"","response","","html-keyboard-response","260","263029","0.0-1.0-356.0-0.0","0","0","21578","","324","","","75","39","","","1","39","training","adjacent","DC","4","3","N.jpg","L.jpg","0","0","1","",""
"","feedback","","html-keyboard-response","261","264032","0.0-1.0-357.0-0.0","0","0","21578","","null","","","null","39","","","","","","","","","","","","","","","",""
"","ITI","","html-keyboard-response","262","265036","0.0-1.0-360.0","0","0","21578","","null","","","null","39","","","","","","","","","","","","","","","NaN",""
"","S1","","html-keyboard-response","263","265290","0.0-1.0-362.0","0","0","21578","","null","","","null","40","","","","","","","","","","","","","","","",""
"","ISI","","html-keyboard-response","264","266299","0.0-1.0-363.0","0","0","21578","","null","","","null","40","NaN","","","","","","","","","","","","","","",""
"","S2","","html-keyboard-response","265","266556","0.0-1.0-364.0","0","0","21578","","null","","","null","40","","NaN","","","","","","","","","","","","","",""
"","response","","html-keyboard-response","266","266787","0.0-1.0-365.0-0.0","0","0","21578","","229","","","68","40","","","1","40","training","adjacent","BA","2","1","P.jpg","R.jpg","1","0","0","",""
"","feedback","","html-keyboard-response","267","267795","0.0-1.0-366.0-0.0","0","0","21578","","null","","","null","40","","","","","","","","","","","","","","","",""
"","time_out","","html-keyboard-response","268","269805","0.0-1.0-368.0-0.0","0","0","21578","","null","","","null","40","","","","","","","","","","","","","","","",""
"","ITI","","html-keyboard-response","269","270810","0.0-1.0-369.0","0","0","21578","","null","","","null","40","","","","","","","","","","","","","","","NaN",""
"","S1","","html-keyboard-response","270","271071","0.0-1.0-371.0","0","0","21578","","null","","","null","41","","","","","","","","","","","","","","","",""
"","ISI","","html-keyboard-response","271","272077","0.0-1.0-372.0","0","0","21578","","null","","","null","41","NaN","","","","","","","","","","","","","","",""
"","S2","","html-keyboard-response","272","272329","0.0-1.0-373.0","0","0","21578","","null","","","null","41","","NaN","","","","","","","","","","","","","",""
"","response","","html-keyboard-response","273","272347","0.0-1.0-374.0-0.0","0","0","21578","","16","","","68","41","","","1","41","training","adjacent","CB","3","2","L.jpg","P.jpg","1","0","0","",""
"","feedback","","html-keyboard-response","274","273350","0.0-1.0-375.0-0.0","0","0","21578","","null","","","null","41","","","","","","","","","","","","","","","",""
"","time_out","","html-keyboard-response","275","275359","0.0-1.0-377.0-0.0","0","0","21578","","null","","","null","41","","","","","","","","","","","","","","","",""
"","ITI","","html-keyboard-response","276","276371","0.0-1.0-378.0","0","0","21578","","null","","","null","41","","","","","","","","","","","","","","","NaN",""
"","S1","","html-keyboard-response","277","276626","0.0-1.0-380.0","0","0","21578","","null","","","null","42","","","","","","","","","","","","","","","",""
"","ISI","","html-keyboard-response","278","277633","0.0-1.0-381.0","0","0","21578","","null","","","null","42","NaN","","","","","","","","","","","","","","",""
"","S2","","html-keyboard-response","279","277897","0.0-1.0-382.0","0","0","21578","","null","","","null","42","","NaN","","","","","","","","","","","","","",""
"","response","","html-keyboard-response","280","278058","0.0-1.0-383.0-0.0","0","0","21578","","159","","","68","42","","","1","42","training","adjacent","CB","3","2","L.jpg","P.jpg","1","0","0","",""
"","feedback","","html-keyboard-response","281","279076","0.0-1.0-384.0-0.0","0","0","21578","","null","","","null","42","","","","","","","","","","","","","","","",""
"","time_out","","html-keyboard-response","282","281083","0.0-1.0-386.0-0.0","0","0","21578","","null","","","null","42","","","","","","","","","","","","","","","",""
"","ITI","","html-keyboard-response","283","282100","0.0-1.0-387.0","0","0","21578","","null","","","null","42","","","","","","","","","","","","","","","NaN",""
"","S1","","html-keyboard-response","284","282353","0.0-1.0-389.0","0","0","21578","","null","","","null","43","","","","","","","","","","","","","","","",""
"","ISI","","html-keyboard-response","285","283364","0.0-1.0-390.0","0","0","21578","","null","","","null","43","NaN","","","","","","","","","","","","","","",""
"","S2","","html-keyboard-response","286","283618","0.0-1.0-391.0","0","0","21578","","null","","","null","43","","NaN","","","","","","","","","","","","","",""
"","response","","html-keyboard-response","287","283749","0.0-1.0-392.0-0.0","0","0","21578","","130","","","68","43","","","1","43","training","adjacent","CB","3","2","L.jpg","P.jpg","1","0","0","",""
"","feedback","","html-keyboard-response","288","284758","0.0-1.0-393.0-0.0","0","0","21578","","null","","","null","43","","","","","","","","","","","","","","","",""
"","time_out","","html-keyboard-response","289","286768","0.0-1.0-395.0-0.0","0","0","21578","","null","","","null","43","","","","","","","","","","","","","","","",""
"","ITI","","html-keyboard-response","290","287771","0.0-1.0-396.0","0","0","21578","","null","","","null","43","","","","","","","","","","","","","","","NaN",""
"","S1","","html-keyboard-response","291","288027","0.0-1.0-398.0","0","0","21578","","null","","","null","44","","","","","","","","","","","","","","","",""
"","ISI","","html-keyboard-response","292","289040","0.0-1.0-399.0","0","0","21578","","null","","","null","44","NaN","","","","","","","","","","","","","","",""
"","S2","","html-keyboard-response","293","289295","0.0-1.0-400.0","0","0","21578","","null","","","null","44","","NaN","","","","","","","","","","","","","",""
"","response","","html-keyboard-response","294","289467","0.0-1.0-401.0-0.0","0","0","21578","","170","","","68","44","","","1","44","training","adjacent","AB","1","2","R.jpg","P.jpg","1","1","1","",""
"","feedback","","html-keyboard-response","295","290477","0.0-1.0-402.0-0.0","0","0","21578","","null","","","null","44","","","","","","","","","","","","","","","",""
"","ITI","","html-keyboard-response","296","291481","0.0-1.0-405.0","0","0","21578","","null","","","null","44","","","","","","","","","","","","","","","NaN",""
"","S1","","html-keyboard-response","297","291734","0.0-1.0-407.0","0","0","21578","","null","","","null","45","","","","","","","","","","","","","","","",""
"","ISI","","html-keyboard-response","298","292743","0.0-1.0-408.0","0","0","21578","","null","","","null","45","NaN","","","","","","","","","","","","","","",""
"","S2","","html-keyboard-response","299","292998","0.0-1.0-409.0","0","0","21578","","null","","","null","45","","NaN","","","","","","","","","","","","","",""
"","response","","html-keyboard-response","300","293048","0.0-1.0-410.0-0.0","0","0","21578","","48","","","68","45","","","1","45","training","adjacent","DC","4","3","N.jpg","L.jpg","1","0","0","",""
"","feedback","","html-keyboard-response","301","294058","0.0-1.0-411.0-0.0","0","0","21578","","null","","","null","45","","","","","","","","","","","","","","","",""
"","time_out","","html-keyboard-response","302","296064","0.0-1.0-413.0-0.0","0","0","21578","","null","","","null","45","","","","","","","","","","","","","","","",""
"","ITI","","html-keyboard-response","303","297069","0.0-1.0-414.0","0","0","21578","","null","","","null","45","","","","","","","","","","","","","","","NaN",""
"","S1","","html-keyboard-response","304","297323","0.0-1.0-416.0","0","0","21578","","null","","","null","46","","","","","","","","","","","","","","","",""
"","ISI","","html-keyboard-response","305","298329","0.0-1.0-417.0","0","0","21578","","null","","","null","46","NaN","","","","","","","","","","","","","","",""
"","S2","","html-keyboard-response","306","298582","0.0-1.0-418.0","0","0","21578","","null","","","null","46","","NaN","","","","","","","","","","","","","",""
"","response","","html-keyboard-response","307","298730","0.0-1.0-419.0-0.0","0","0","21578","","147","","","75","46","","","1","46","training","adjacent","BC","2","3","P.jpg","L.jpg","0","1","0","",""
"","feedback","","html-keyboard-response","308","299735","0.0-1.0-420.0-0.0","0","0","21578","","null","","","null","46","","","","","","","","","","","","","","","",""
"","time_out","","html-keyboard-response","309","301745","0.0-1.0-422.0-0.0","0","0","21578","","null","","","null","46","","","","","","","","","","","","","","","",""
"","ITI","","html-keyboard-response","310","302753","0.0-1.0-423.0","0","0","21578","","null","","","null","46","","","","","","","","","","","","","","","NaN",""
"","S1","","html-keyboard-response","311","303017","0.0-1.0-425.0","0","0","21578","","null","","","null","47","","","","","","","","","","","","","","","",""
"","ISI","","html-keyboard-response","312","304033","0.0-1.0-426.0","0","0","21578","","null","","","null","47","NaN","","","","","","","","","","","","","","",""
"","S2","","html-keyboard-response","313","304287","0.0-1.0-427.0","0","0","21578","","null","","","null","47","","NaN","","","","","","","","","","","","","",""
"","response","","html-keyboard-response","314","304461","0.0-1.0-428.0-0.0","0","0","21578","","171","","","68","47","","","1","47","training","adjacent","BC","2","3","P.jpg","L.jpg","1","1","1","",""
"","feedback","","html-keyboard-response","315","305468","0.0-1.0-429.0-0.0","0","0","21578","","null","","","null","47","","","","","","","","","","","","","","","",""
"","ITI","","html-keyboard-response","316","306477","0.0-1.0-432.0","0","0","21578","","null","","","null","47","","","","","","","","","","","","","","","NaN",""
"","block_over","","html-keyboard-response","317","311716","0.0-1.0-433.0-0.0","0","0","21578","","5236","","","32","47","","","","","","","","","","","","","","","",""
"","S1","","html-keyboard-response","318","311972","0.0-1.0-434.0","0","0","21578","","null","","","null","48","","","","","","","","","","","","","","","",""
"","ISI","","html-keyboard-response","319","312976","0.0-1.0-435.0","0","0","21578","","null","","","null","48","NaN","","","","","","","","","","","","","","",""
"","S2","","html-keyboard-response","320","313239","0.0-1.0-436.0","0","0","21578","","null","","","null","48","","NaN","","","","","","","","","","","","","",""
"","response","","html-keyboard-response","321","313298","0.0-1.0-437.0-0.0","0","0","21578","","57","","","75","48","","","2","48","training","adjacent","GF","7","6","M.jpg","O.jpg","0","0","1","",""
"","feedback","","html-keyboard-response","322","314307","0.0-1.0-438.0-0.0","0","0","21578","","null","","","null","48","","","","","","","","","","","","","","","",""
"","ITI","","html-keyboard-response","323","315313","0.0-1.0-441.0","0","0","21578","","null","","","null","48","","","","","","","","","","","","","","","NaN",""
"","S1","","html-keyboard-response","324","315570","0.0-1.0-443.0","0","0","21578","","null","","","null","49","","","","","","","","","","","","","","","",""
"","ISI","","html-keyboard-response","325","316575","0.0-1.0-444.0","0","0","21578","","null","","","null","49","NaN","","","","","","","","","","","","","","",""
"","S2","","html-keyboard-response","326","316816","0.0-1.0-445.0","0","0","21578","","239","","","68","49","","d","2","49","training","adjacent","EF","5","6","Q.jpg","O.jpg","1","1","1","",""
"","feedback","","html-keyboard-response","327","317822","0.0-1.0-447.0-0.0","0","0","21578","","null","","","null","49","","","","","","","","","","","","","","","",""
"","ITI","","html-keyboard-response","328","318827","0.0-1.0-450.0","0","0","21578","","null","","","null","49","","","","","","","","","","","","","","","NaN",""
"","S1","","html-keyboard-response","329","319089","0.0-1.0-452.0","0","0","21578","","null","","","null","50","","","","","","","","","","","","","","","",""
"","ISI","","html-keyboard-response","330","320102","0.0-1.0-453.0","0","0","21578","","null","","","null","50","NaN","","","","","","","","","","","","","","",""
"","S2","","html-keyboard-response","331","320366","0.0-1.0-454.0","0","0","21578","","null","","","null","50","","NaN","","","","","","","","","","","","","",""
"","response","","html-keyboard-response","332","320535","0.0-1.0-455.0-0.0","0","0","21578","","166","","","75","50","","","2","50","training","adjacent","AB","1","2","R.jpg","P.jpg","0","1","0","",""
"","feedback","","html-keyboard-response","333","321543","0.0-1.0-456.0-0.0","0","0","21578","","null","","","null","50","","","","","","","","","","","","","","","",""
"","time_out","","html-keyboard-response","334","323551","0.0-1.0-458.0-0.0","0","0","21578","","null","","","null","50","","","","","","","","","","","","","","","",""
"","ITI","","html-keyboard-response","335","324558","0.0-1.0-459.0","0","0","21578","","null","","","null","50","","","","","","","","","","","","","","","NaN",""
"","S1","","html-keyboard-response","336","324814","0.0-1.0-461.0","0","0","21578","","null","","","null","51","","","","","","","","","","","","","","","",""
"","ISI","","html-keyboard-response","337","325817","0.0-1.0-462.0","0","0","21578","","null","","","null","51","NaN","","","","","","","","","","","","","","",""
"","S2","","html-keyboard-response","338","326070","0.0-1.0-463.0","0","0","21578","","null","","","null","51","","NaN","","","","","","","","","","","","","",""
"","response","","html-keyboard-response","339","326354","0.0-1.0-464.0-0.0","0","0","21578","","281","","","68","51","","","2","51","training","adjacent","CB","3","2","L.jpg","P.jpg","1","0","0","",""
"","feedback","","html-keyboard-response","340","327364","0.0-1.0-465.0-0.0","0","0","21578","","null","","","null","51","","","","","","","","","","","","","","","",""
"","time_out","","html-keyboard-response","341","329372","0.0-1.0-467.0-0.0","0","0","21578","","null","","","null","51","","","","","","","","","","","","","","","",""
"","ITI","","html-keyboard-response","342","330380","0.0-1.0-468.0","0","0","21578","","null","","","null","51","","","","","","","","","","","","","","","NaN",""
"","S1","","html-keyboard-response","343","330633","0.0-1.0-470.0","0","0","21578","","null","","","null","52","","","","","","","","","","","","","","","",""
"","ISI","","html-keyboard-response","344","331639","0.0-1.0-471.0","0","0","21578","","null","","","null","52","NaN","","","","","","","","","","","","","","",""
"","S2","","html-keyboard-response","345","331902","0.0-1.0-472.0","0","0","21578","","null","","","null","52","","NaN","","","","","","","","","","","","","",""
"","response","","html-keyboard-response","346","332185","0.0-1.0-473.0-0.0","0","0","21578","","281","","","75","52","","","2","52","training","adjacent","CB","3","2","L.jpg","P.jpg","0","0","1","",""
"","feedback","","html-keyboard-response","347","333192","0.0-1.0-474.0-0.0","0","0","21578","","null","","","null","52","","","","","","","","","","","","","","","",""
"","ITI","","html-keyboard-response","348","334206","0.0-1.0-477.0","0","0","21578","","null","","","null","52","","","","","","","","","","","","","","","NaN",""
"","S1","","html-keyboard-response","349","334464","0.0-1.0-479.0","0","0","21578","","null","","","null","53","","","","","","","","","","","","","","","",""
"","ISI","","html-keyboard-response","350","335469","0.0-1.0-480.0","0","0","21578","","null","","","null","53","NaN","","","","","","","","","","","","","","",""
"","S2","","html-keyboard-response","351","335725","0.0-1.0-481.0","0","0","21578","","null","","","null","53","","NaN","","","","","","","","","","","","","",""
"","response","","html-keyboard-response","352","335877","0.0-1.0-482.0-0.0","0","0","21578","","151","","","68","53","","","2","53","training","adjacent","CD","3","4","L.jpg","N.jpg","1","1","1","",""
"","feedback","","html-keyboard-response","353","336882","0.0-1.0-483.0-0.0","0","0","21578","","null","","","null","53","","","","","","","","","","","","","","","",""
"","ITI","","html-keyboard-response","354","337894","0.0-1.0-486.0","0","0","21578","","null","","","null","53","","","","","","","","","","","","","","","NaN",""
"","S1","","html-keyboard-response","355","338156","0.0-1.0-488.0","0","0","21578","","null","","","null","54","","","","","","","","","","","","","","","",""
"","ISI","","html-keyboard-response","356","339166","0.0-1.0-489.0","0","0","21578","","null","","","null","54","NaN","","","","","","","","","","","","","","",""
"","S2","","html-keyboard-response","357","339424","0.0-1.0-490.0","0","0","21578","","null","","","null","54","","NaN","","","","","","","","","","","","","",""
"","response","","html-keyboard-response","358","339550","0.0-1.0-491.0-0.0","0","0","21578","","124","","","68","54","","","2","54","training","adjacent","FG","6","7","O.jpg","M.jpg","1","1","1","",""
"","feedback","","html-keyboard-response","359","340568","0.0-1.0-492.0-0.0","0","0","21578","","null","","","null","54","","","","","","","","","","","","","","","",""
"","ITI","","html-keyboard-response","360","341571","0.0-1.0-495.0","0","0","21578","","null","","","null","54","","","","","","","","","","","","","","","NaN",""
"","S1","","html-keyboard-response","361","341836","0.0-1.0-497.0","0","0","21578","","null","","","null","55","","","","","","","","","","","","","","","",""
"","ISI","","html-keyboard-response","362","342844","0.0-1.0-498.0","0","0","21578","","null","","","null","55","NaN","","","","","","","","","","","","","","",""
"","S2","","html-keyboard-response","363","343097","0.0-1.0-499.0","0","0","21578","","null","","","null","55","","NaN","","","","","","","","","","","","","",""
"","response","","html-keyboard-response","364","343255","0.0-1.0-500.0-0.0","0","0","21578","","156","","","75","55","","","2","55","training","adjacent","FE","6","5","O.jpg","Q.jpg","0","0","1","",""
"","feedback","","html-keyboard-response","365","344261","0.0-1.0-501.0-0.0","0","0","21578","","null","","","null","55","","","","","","","","","","","","","","","",""
"","ITI","","html-keyboard-response","366","345271","0.0-1.0-504.0","0","0","21578","","null","","","null","55","","","","","","","","","","","","","","","NaN",""
"","S1","","html-keyboard-response","367","345539","0.0-1.0-506.0","0","0","21578","","null","","","null","56","","","","","","","","","","","","","","","",""
"","ISI","","html-keyboard-response","368","346550","0.0-1.0-507.0","0","0","21578","","null","","","null","56","NaN","","","","","","","","","","","","","","",""
"","S2","","html-keyboard-response","369","346810","0.0-1.0-508.0","0","0","21578","","null","","","null","56","","NaN","","","","","","","","","","","","","",""
"","response","","html-keyboard-response","370","347302","0.0-1.0-509.0-0.0","0","0","21578","","490","","","68","56","","","2","56","training","adjacent","AB","1","2","R.jpg","P.jpg","1","1","1","",""
"","feedback","","html-keyboard-response","371","348311","0.0-1.0-510.0-0.0","0","0","21578","","null","","","null","56","","","","","","","","","","","","","","","",""
"","ITI","","html-keyboard-response","372","349318","0.0-1.0-513.0","0","0","21578","","null","","","null","56","","","","","","","","","","","","","","","NaN",""
"","S1","","html-keyboard-response","373","349578","0.0-1.0-515.0","0","0","21578","","null","","","null","57","","","","","","","","","","","","","","","",""
"","ISI","","html-keyboard-response","374","350594","0.0-1.0-516.0","0","0","21578","","null","","","null","57","NaN","","","","","","","","","","","","","","",""
"","S2","","html-keyboard-response","375","350857","0.0-1.0-517.0","0","0","21578","","null","","","null","57","","NaN","","","","","","","","","","","","","",""
"","response","","html-keyboard-response","376","351277","0.0-1.0-518.0-0.0","0","0","21578","","419","","","68","57","","","2","57","training","adjacent","BA","2","1","P.jpg","R.jpg","1","0","0","",""
"","feedback","","html-keyboard-response","377","352289","0.0-1.0-519.0-0.0","0","0","21578","","null","","","null","57","","","","","","","","","","","","","","","",""
"","time_out","","html-keyboard-response","378","354299","0.0-1.0-521.0-0.0","0","0","21578","","null","","","null","57","","","","","","","","","","","","","","","",""
"","ITI","","html-keyboard-response","379","355303","0.0-1.0-522.0","0","0","21578","","null","","","null","57","","","","","","","","","","","","","","","NaN",""
"","S1","","html-keyboard-response","380","355559","0.0-1.0-524.0","0","0","21578","","null","","","null","58","","","","","","","","","","","","","","","",""
"","ISI","","html-keyboard-response","381","356565","0.0-1.0-525.0","0","0","21578","","null","","","null","58","NaN","","","","","","","","","","","","","","",""
"","S2","","html-keyboard-response","382","356819","0.0-1.0-526.0","0","0","21578","","null","","","null","58","","NaN","","","","","","","","","","","","","",""
"","response","","html-keyboard-response","383","357052","0.0-1.0-527.0-0.0","0","0","21578","","232","","","75","58","","","2","58","training","adjacent","DE","4","5","N.jpg","Q.jpg","0","1","0","",""
"","feedback","","html-keyboard-response","384","358066","0.0-1.0-528.0-0.0","0","0","21578","","null","","","null","58","","","","","","","","","","","","","","","",""
"","time_out","","html-keyboard-response","385","360072","0.0-1.0-530.0-0.0","0","0","21578","","null","","","null","58","","","","","","","","","","","","","","","",""
"","ITI","","html-keyboard-response","386","361079","0.0-1.0-531.0","0","0","21578","","null","","","null","58","","","","","","","","","","","","","","","NaN",""
"","S1","","html-keyboard-response","387","361333","0.0-1.0-533.0","0","0","21578","","null","","","null","59","","","","","","","","","","","","","","","",""
"","ISI","","html-keyboard-response","388","362344","0.0-1.0-534.0","0","0","21578","","null","","","null","59","NaN","","","","","","","","","","","","","","",""
"","S2","","html-keyboard-response","389","362598","0.0-1.0-535.0","0","0","21578","","null","","","null","59","","NaN","","","","","","","","","","","","","",""
"","response","","html-keyboard-response","390","362966","0.0-1.0-536.0-0.0","0","0","21578","","366","","","75","59","","","2","59","training","adjacent","CB","3","2","L.jpg","P.jpg","0","0","1","",""
"","feedback","","html-keyboard-response","391","363973","0.0-1.0-537.0-0.0","0","0","21578","","null","","","null","59","","","","","","","","","","","","","","","",""
"","ITI","","html-keyboard-response","392","364984","0.0-1.0-540.0","0","0","21578","","null","","","null","59","","","","","","","","","","","","","","","NaN",""
"","S1","","html-keyboard-response","393","365240","0.0-1.0-542.0","0","0","21578","","null","","","null","60","","","","","","","","","","","","","","","",""
"","ISI","","html-keyboard-response","394","366244","0.0-1.0-543.0","0","0","21578","","null","","","null","60","NaN","","","","","","","","","","","","","","",""
"","S2","","html-keyboard-response","395","366507","0.0-1.0-544.0","0","0","21578","","null","","","null","60","","NaN","","","","","","","","","","","","","",""
"","response","","html-keyboard-response","396","366606","0.0-1.0-545.0-0.0","0","0","21578","","96","","","68","60","","","2","60","training","adjacent","FG","6","7","O.jpg","M.jpg","1","1","1","",""
"","feedback","","html-keyboard-response","397","367610","0.0-1.0-546.0-0.0","0","0","21578","","null","","","null","60","","","","","","","","","","","","","","","",""
"","ITI","","html-keyboard-response","398","368612","0.0-1.0-549.0","0","0","21578","","null","","","null","60","","","","","","","","","","","","","","","NaN",""
"","S1","","html-keyboard-response","399","368867","0.0-1.0-551.0","0","0","21578","","null","","","null","61","","","","","","","","","","","","","","","",""
"","ISI","","html-keyboard-response","400","369879","0.0-1.0-552.0","0","0","21578","","null","","","null","61","NaN","","","","","","","","","","","","","","",""
"","S2","","html-keyboard-response","401","370133","0.0-1.0-553.0","0","0","21578","","null","","","null","61","","NaN","","","","","","","","","","","","","",""
"","response","","html-keyboard-response","402","370472","0.0-1.0-554.0-0.0","0","0","21578","","337","","","75","61","","","2","61","training","adjacent","EF","5","6","Q.jpg","O.jpg","0","1","0","",""
"","feedback","","html-keyboard-response","403","371476","0.0-1.0-555.0-0.0","0","0","21578","","null","","","null","61","","","","","","","","","","","","","","","",""
"","time_out","","html-keyboard-response","404","373485","0.0-1.0-557.0-0.0","0","0","21578","","null","","","null","61","","","","","","","","","","","","","","","",""
"","ITI","","html-keyboard-response","405","374490","0.0-1.0-558.0","0","0","21578","","null","","","null","61","","","","","","","","","","","","","","","NaN",""
"","S1","","html-keyboard-response","406","374744","0.0-1.0-560.0","0","0","21578","","null","","","null","62","","","","","","","","","","","","","","","",""
"","ISI","","html-keyboard-response","407","375753","0.0-1.0-561.0","0","0","21578","","null","","","null","62","NaN","","","","","","","","","","","","","","",""
"","S2","","html-keyboard-response","408","376017","0.0-1.0-562.0","0","0","21578","","null","","","null","62","","NaN","","","","","","","","","","","","","",""
"","response","","html-keyboard-response","409","376043","0.0-1.0-563.0-0.0","0","0","21578","","24","","","68","62","","","2","62","training","adjacent","ED","5","4","Q.jpg","N.jpg","1","0","0","",""
"","feedback","","html-keyboard-response","410","377051","0.0-1.0-564.0-0.0","0","0","21578","","null","","","null","62","","","","","","","","","","","","","","","",""
"","time_out","","html-keyboard-response","411","379059","0.0-1.0-566.0-0.0","0","0","21578","","null","","","null","62","","","","","","","","","","","","","","","",""
"","ITI","","html-keyboard-response","412","380068","0.0-1.0-567.0","0","0","21578","","null","","","null","62","","","","","","","","","","","","","","","NaN",""
"","S1","","html-keyboard-response","413","380331","0.0-1.0-569.0","0","0","21578","","null","","","null","63","","","","","","","","","","","","","","","",""
"","ISI","","html-keyboard-response","414","381348","0.0-1.0-570.0","0","0","21578","","null","","","null","63","NaN","","","","","","","","","","","","","","",""
"","S2","","html-keyboard-response","415","381602","0.0-1.0-571.0","0","0","21578","","null","","","null","63","","NaN","","","","","","","","","","","","","",""
"","response","","html-keyboard-response","416","381926","0.0-1.0-572.0-0.0","0","0","21578","","322","","","68","63","","","2","63","training","adjacent","FG","6","7","O.jpg","M.jpg","1","1","1","",""
"","feedback","","html-keyboard-response","417","382936","0.0-1.0-573.0-0.0","0","0","21578","","null","","","null","63","","","","","","","","","","","","","","","",""
"","ITI","","html-keyboard-response","418","383944","0.0-1.0-576.0","0","0","21578","","null","","","null","63","","","","","","","","","","","","","","","NaN",""
"","S1","","html-keyboard-response","419","384212","0.0-1.0-578.0","0","0","21578","","null","","","null","64","","","","","","","","","","","","","","","",""
"","ISI","","html-keyboard-response","420","385222","0.0-1.0-579.0","0","0","21578","","null","","","null","64","NaN","","","","","","","","","","","","","","",""
"","S2","","html-keyboard-response","421","385478","0.0-1.0-580.0","0","0","21578","","null","","","null","64","","NaN","","","","","","","","","","","","","",""
"","response","","html-keyboard-response","422","385712","0.0-1.0-581.0-0.0","0","0","21578","","233","","","68","64","","","2","64","training","adjacent","CB","3","2","L.jpg","P.jpg","1","0","0","",""
"","feedback","","html-keyboard-response","423","386730","0.0-1.0-582.0-0.0","0","0","21578","","null","","","null","64","","","","","","","","","","","","","","","",""
"","time_out","","html-keyboard-response","424","388732","0.0-1.0-584.0-0.0","0","0","21578","","null","","","null","64","","","","","","","","","","","","","","","",""
"","ITI","","html-keyboard-response","425","389743","0.0-1.0-585.0","0","0","21578","","null","","","null","64","","","","","","","","","","","","","","","NaN",""
"","S1","","html-keyboard-response","426","390004","0.0-1.0-587.0","0","0","21578","","null","","","null","65","","","","","","","","","","","","","","","",""
"","ISI","","html-keyboard-response","427","391014","0.0-1.0-588.0","0","0","21578","","null","","","null","65","NaN","","","","","","","","","","","","","","",""
"","S2","","html-keyboard-response","428","391269","0.0-1.0-589.0","0","0","21578","","null","","","null","65","","NaN","","","","","","","","","","","","","",""
"","response","","html-keyboard-response","429","391394","0.0-1.0-590.0-0.0","0","0","21578","","124","","","75","65","","","2","65","training","adjacent","ED","5","4","Q.jpg","N.jpg","0","0","1","",""
"","feedback","","html-keyboard-response","430","392398","0.0-1.0-591.0-0.0","0","0","21578","","null","","","null","65","","","","","","","","","","","","","","","",""
"","ITI","","html-keyboard-response","431","393410","0.0-1.0-594.0","0","0","21578","","null","","","null","65","","","","","","","","","","","","","","","NaN",""
"","S1","","html-keyboard-response","432","393663","0.0-1.0-596.0","0","0","21578","","null","","","null","66","","","","","","","","","","","","","","","",""
"","ISI","","html-keyboard-response","433","394669","0.0-1.0-597.0","0","0","21578","","null","","","null","66","NaN","","","","","","","","","","","","","","",""
"","S2","","html-keyboard-response","434","394923","0.0-1.0-598.0","0","0","21578","","null","","","null","66","","NaN","","","","","","","","","","","","","",""
"","response","","html-keyboard-response","435","394988","0.0-1.0-599.0-0.0","0","0","21578","","63","","","75","66","","","2","66","training","adjacent","CD","3","4","L.jpg","N.jpg","0","1","0","",""
"","feedback","","html-keyboard-response","436","395991","0.0-1.0-600.0-0.0","0","0","21578","","null","","","null","66","","","","","","","","","","","","","","","",""
"","time_out","","html-keyboard-response","437","397999","0.0-1.0-602.0-0.0","0","0","21578","","null","","","null","66","","","","","","","","","","","","","","","",""
"","ITI","","html-keyboard-response","438","399016","0.0-1.0-603.0","0","0","21578","","null","","","null","66","","","","","","","","","","","","","","","NaN",""
"","S1","","html-keyboard-response","439","399268","0.0-1.0-605.0","0","0","21578","","null","","","null","67","","","","","","","","","","","","","","","",""
"","ISI","","html-keyboard-response","440","400275","0.0-1.0-606.0","0","0","21578","","null","","","null","67","NaN","","","","","","","","","","","","","","",""
"","S2","","html-keyboard-response","441","400539","0.0-1.0-607.0","0","0","21578","","null","","","null","67","","NaN","","","","","","","","","","","","","",""
"","response","","html-keyboard-response","442","400662","0.0-1.0-608.0-0.0","0","0","21578","","122","","","68","67","","","2","67","training","adjacent","BA","2","1","P.jpg","R.jpg","1","0","0","",""
"","feedback","","html-keyboard-response","443","401668","0.0-1.0-609.0-0.0","0","0","21578","","null","","","null","67","","","","","","","","","","","","","","","",""
"","time_out","","html-keyboard-response","444","403676","0.0-1.0-611.0-0.0","0","0","21578","","null","","","null","67","","","","","","","","","","","","","","","",""
"","ITI","","html-keyboard-response","445","404684","0.0-1.0-612.0","0","0","21578","","null","","","null","67","","","","","","","","","","","","","","","NaN",""
"","S1","","html-keyboard-response","446","404938","0.0-1.0-614.0","0","0","21578","","null","","","null","68","","","","","","","","","","","","","","","",""
"","ISI","","html-keyboard-response","447","405949","0.0-1.0-615.0","0","0","21578","","null","","","null","68","NaN","","","","","","","","","","","","","","",""
"","S2","","html-keyboard-response","448","406202","0.0-1.0-616.0","0","0","21578","","null","","","null","68","","NaN","","","","","","","","","","","","","",""
"","response","","html-keyboard-response","449","406506","0.0-1.0-617.0-0.0","0","0","21578","","302","","","68","68","","","2","68","training","adjacent","DC","4","3","N.jpg","L.jpg","1","0","0","",""
"","feedback","","html-keyboard-response","450","407518","0.0-1.0-618.0-0.0","0","0","21578","","null","","","null","68","","","","","","","","","","","","","","","",""
"","time_out","","html-keyboard-response","451","409525","0.0-1.0-620.0-0.0","0","0","21578","","null","","","null","68","","","","","","","","","","","","","","","",""
"","ITI","","html-keyboard-response","452","410533","0.0-1.0-621.0","0","0","21578","","null","","","null","68","","","","","","","","","","","","","","","NaN",""
"","S1","","html-keyboard-response","453","410788","0.0-1.0-623.0","0","0","21578","","null","","","null","69","","","","","","","","","","","","","","","",""
"","ISI","","html-keyboard-response","454","411792","0.0-1.0-624.0","0","0","21578","","null","","","null","69","NaN","","","","","","","","","","","","","","",""
"","S2","","html-keyboard-response","455","412048","0.0-1.0-625.0","0","0","21578","","null","","","null","69","","NaN","","","","","","","","","","","","","",""
"","response","","html-keyboard-response","456","412336","0.0-1.0-626.0-0.0","0","0","21578","","287","","","68","69","","","2","69","training","adjacent","BC","2","3","P.jpg","L.jpg","1","1","1","",""
"","feedback","","html-keyboard-response","457","413346","0.0-1.0-627.0-0.0","0","0","21578","","null","","","null","69","","","","","","","","","","","","","","","",""
"","ITI","","html-keyboard-response","458","414350","0.0-1.0-630.0","0","0","21578","","null","","","null","69","","","","","","","","","","","","","","","NaN",""
"","S1","","html-keyboard-response","459","414613","0.0-1.0-632.0","0","0","21578","","null","","","null","70","","","","","","","","","","","","","","","",""
"","ISI","","html-keyboard-response","460","415620","0.0-1.0-633.0","0","0","21578","","null","","","null","70","NaN","","","","","","","","","","","","","","",""
"","S2","","html-keyboard-response","461","415874","0.0-1.0-634.0","0","0","21578","","null","","","null","70","","NaN","","","","","","","","","","","","","",""
"","response","","html-keyboard-response","462","415967","0.0-1.0-635.0-0.0","0","0","21578","","91","","","75","70","","","2","70","training","adjacent","CD","3","4","L.jpg","N.jpg","0","1","0","",""
"","feedback","","html-keyboard-response","463","416976","0.0-1.0-636.0-0.0","0","0","21578","","null","","","null","70","","","","","","","","","","","","","","","",""
"","time_out","","html-keyboard-response","464","418985","0.0-1.0-638.0-0.0","0","0","21578","","null","","","null","70","","","","","","","","","","","","","","","",""
"","ITI","","html-keyboard-response","465","419988","0.0-1.0-639.0","0","0","21578","","null","","","null","70","","","","","","","","","","","","","","","NaN",""
"","S1","","html-keyboard-response","466","420242","0.0-1.0-641.0","0","0","21578","","null","","","null","71","","","","","","","","","","","","","","","",""
"","ISI","","html-keyboard-response","467","421257","0.0-1.0-642.0","0","0","21578","","null","","","null","71","NaN","","","","","","","","","","","","","","",""
"","S2","","html-keyboard-response","468","421520","0.0-1.0-643.0","0","0","21578","","null","","","null","71","","NaN","","","","","","","","","","","","","",""
"","response","","html-keyboard-response","469","421803","0.0-1.0-644.0-0.0","0","0","21578","","281","","","68","71","","","2","71","training","adjacent","DC","4","3","N.jpg","L.jpg","1","0","0","",""
"","feedback","","html-keyboard-response","470","422812","0.0-1.0-645.0-0.0","0","0","21578","","null","","","null","71","","","","","","","","","","","","","","","",""
"","time_out","","html-keyboard-response","471","424819","0.0-1.0-647.0-0.0","0","0","21578","","null","","","null","71","","","","","","","","","","","","","","","",""
"","ITI","","html-keyboard-response","472","425821","0.0-1.0-648.0","0","0","21578","","null","","","null","71","","","","","","","","","","","","","","","NaN",""
"","S1","","html-keyboard-response","473","426084","0.0-1.0-650.0","0","0","21578","","null","","","null","72","","","","","","","","","","","","","","","",""
"","ISI","","html-keyboard-response","474","427088","0.0-1.0-651.0","0","0","21578","","null","","","null","72","NaN","","","","","","","","","","","","","","",""
"","S2","","html-keyboard-response","475","427343","0.0-1.0-652.0","0","0","21578","","null","","","null","72","","NaN","","","","","","","","","","","","","",""
"","response","","html-keyboard-response","476","427647","0.0-1.0-653.0-0.0","0","0","21578","","302","","","68","72","","","2","72","training","adjacent","DE","4","5","N.jpg","Q.jpg","1","1","1","",""
"","feedback","","html-keyboard-response","477","428650","0.0-1.0-654.0-0.0","0","0","21578","","null","","","null","72","","","","","","","","","","","","","","","",""
"","ITI","","html-keyboard-response","478","429653","0.0-1.0-657.0","0","0","21578","","null","","","null","72","","","","","","","","","","","","","","","NaN",""
"","S1","","html-keyboard-response","479","429916","0.0-1.0-659.0","0","0","21578","","null","","","null","73","","","","","","","","","","","","","","","",""
"","ISI","","html-keyboard-response","480","430919","0.0-1.0-660.0","0","0","21578","","null","","","null","73","NaN","","","","","","","","","","","","","","",""
"","S2","","html-keyboard-response","481","431174","0.0-1.0-661.0","0","0","21578","","null","","","null","73","","NaN","","","","","","","","","","","","","",""
"","response","","html-keyboard-response","482","431481","0.0-1.0-662.0-0.0","0","0","21578","","306","","","68","73","","","2","73","training","adjacent","DC","4","3","N.jpg","L.jpg","1","0","0","",""
"","feedback","","html-keyboard-response","483","432487","0.0-1.0-663.0-0.0","0","0","21578","","null","","","null","73","","","","","","","","","","","","","","","",""
"","time_out","","html-keyboard-response","484","434494","0.0-1.0-665.0-0.0","0","0","21578","","null","","","null","73","","","","","","","","","","","","","","","",""
"","ITI","","html-keyboard-response","485","435503","0.0-1.0-666.0","0","0","21578","","null","","","null","73","","","","","","","","","","","","","","","NaN",""
"","S1","","html-keyboard-response","486","435757","0.0-1.0-668.0","0","0","21578","","null","","","null","74","","","","","","","","","","","","","","","",""
"","ISI","","html-keyboard-response","487","436764","0.0-1.0-669.0","0","0","21578","","null","","","null","74","NaN","","","","","","","","","","","","","","",""
"","S2","","html-keyboard-response","488","437018","0.0-1.0-670.0","0","0","21578","","null","","","null","74","","NaN","","","","","","","","","","","","","",""
"","response","","html-keyboard-response","489","437227","0.0-1.0-671.0-0.0","0","0","21578","","207","","","68","74","","","2","74","training","adjacent","BC","2","3","P.jpg","L.jpg","1","1","1","",""
"","feedback","","html-keyboard-response","490","438230","0.0-1.0-672.0-0.0","0","0","21578","","null","","","null","74","","","","","","","","","","","","","","","",""
"","ITI","","html-keyboard-response","491","439236","0.0-1.0-675.0","0","0","21578","","null","","","null","74","","","","","","","","","","","","","","","NaN",""
"","S1","","html-keyboard-response","492","439491","0.0-1.0-677.0","0","0","21578","","null","","","null","75","","","","","","","","","","","","","","","",""
"","ISI","","html-keyboard-response","493","440494","0.0-1.0-678.0","0","0","21578","","null","","","null","75","NaN","","","","","","","","","","","","","","",""
"","S2","","html-keyboard-response","494","440747","0.0-1.0-679.0","0","0","21578","","null","","","null","75","","NaN","","","","","","","","","","","","","",""
"","response","","html-keyboard-response","495","440962","0.0-1.0-680.0-0.0","0","0","21578","","213","","","68","75","","","2","75","training","adjacent","EF","5","6","Q.jpg","O.jpg","1","1","1","",""
"","feedback","","html-keyboard-response","496","441971","0.0-1.0-681.0-0.0","0","0","21578","","null","","","null","75","","","","","","","","","","","","","","","",""
"","ITI","","html-keyboard-response","497","442981","0.0-1.0-684.0","0","0","21578","","null","","","null","75","","","","","","","","","","","","","","","NaN",""
"","S1","","html-keyboard-response","498","443235","0.0-1.0-686.0","0","0","21578","","null","","","null","76","","","","","","","","","","","","","","","",""
"","ISI","","html-keyboard-response","499","444244","0.0-1.0-687.0","0","0","21578","","null","","","null","76","NaN","","","","","","","","","","","","","","",""
"","S2","","html-keyboard-response","500","444506","0.0-1.0-688.0","0","0","21578","","null","","","null","76","","NaN","","","","","","","","","","","","","",""
"","response","","html-keyboard-response","501","444615","0.0-1.0-689.0-0.0","0","0","21578","","107","","","75","76","","","2","76","training","adjacent","DC","4","3","N.jpg","L.jpg","0","0","1","",""
"","feedback","","html-keyboard-response","502","445622","0.0-1.0-690.0-0.0","0","0","21578","","null","","","null","76","","","","","","","","","","","","","","","",""
"","ITI","","html-keyboard-response","503","446631","0.0-1.0-693.0","0","0","21578","","null","","","null","76","","","","","","","","","","","","","","","NaN",""
"","S1","","html-keyboard-response","504","446891","0.0-1.0-695.0","0","0","21578","","null","","","null","77","","","","","","","","","","","","","","","",""
"","ISI","","html-keyboard-response","505","447900","0.0-1.0-696.0","0","0","21578","","null","","","null","77","NaN","","","","","","","","","","","","","","",""
"","S2","","html-keyboard-response","506","448163","0.0-1.0-697.0","0","0","21578","","null","","","null","77","","NaN","","","","","","","","","","","","","",""
"","response","","html-keyboard-response","507","448386","0.0-1.0-698.0-0.0","0","0","21578","","221","","","68","77","","","2","77","training","adjacent","CD","3","4","L.jpg","N.jpg","1","1","1","",""
"","feedback","","html-keyboard-response","508","449397","0.0-1.0-699.0-0.0","0","0","21578","","null","","","null","77","","","","","","","","","","","","","","","",""
"","ITI","","html-keyboard-response","509","450404","0.0-1.0-702.0","0","0","21578","","null","","","null","77","","","","","","","","","","","","","","","NaN",""
"","S1","","html-keyboard-response","510","450663","0.0-1.0-704.0","0","0","21578","","null","","","null","78","","","","","","","","","","","","","","","",""
"","ISI","","html-keyboard-response","511","451671","0.0-1.0-705.0","0","0","21578","","null","","","null","78","NaN","","","","","","","","","","","","","","",""
"","S2","","html-keyboard-response","512","451923","0.0-1.0-706.0","0","0","21578","","null","","","null","78","","NaN","","","","","","","","","","","","","",""
"","response","","html-keyboard-response","513","452202","0.0-1.0-707.0-0.0","0","0","21578","","277","","","68","78","","","2","78","training","adjacent","DE","4","5","N.jpg","Q.jpg","1","1","1","",""
"","feedback","","html-keyboard-response","514","453209","0.0-1.0-708.0-0.0","0","0","21578","","null","","","null","78","","","","","","","","","","","","","","","",""
"","ITI","","html-keyboard-response","515","454227","0.0-1.0-711.0","0","0","21578","","null","","","null","78","","","","","","","","","","","","","","","NaN",""
"","S1","","html-keyboard-response","516","454481","0.0-1.0-713.0","0","0","21578","","null","","","null","79","","","","","","","","","","","","","","","",""
"","ISI","","html-keyboard-response","517","455493","0.0-1.0-714.0","0","0","21578","","null","","","null","79","NaN","","","","","","","","","","","","","","",""
"","S2","","html-keyboard-response","518","455748","0.0-1.0-715.0","0","0","21578","","null","","","null","79","","NaN","","","","","","","","","","","","","",""
"","response","","html-keyboard-response","519","455879","0.0-1.0-716.0-0.0","0","0","21578","","130","","","75","79","","","2","79","training","adjacent","FE","6","5","O.jpg","Q.jpg","0","0","1","",""
"","feedback","","html-keyboard-response","520","456894","0.0-1.0-717.0-0.0","0","0","21578","","null","","","null","79","","","","","","","","","","","","","","","",""
"","ITI","","html-keyboard-response","521","457900","0.0-1.0-720.0","0","0","21578","","null","","","null","79","","","","","","","","","","","","","","","NaN",""
"","S1","","html-keyboard-response","522","458155","0.0-1.0-722.0","0","0","21578","","null","","","null","80","","","","","","","","","","","","","","","",""
"","ISI","","html-keyboard-response","523","459168","0.0-1.0-723.0","0","0","21578","","null","","","null","80","NaN","","","","","","","","","","","","","","",""
"","S2","","html-keyboard-response","524","459422","0.0-1.0-724.0","0","0","21578","","null","","","null","80","","NaN","","","","","","","","","","","","","",""
"","response","","html-keyboard-response","525","459704","0.0-1.0-725.0-0.0","0","0","21578","","281","","","75","80","","","2","80","training","adjacent","GF","7","6","M.jpg","O.jpg","0","0","1","",""
"","feedback","","html-keyboard-response","526","460712","0.0-1.0-726.0-0.0","0","0","21578","","null","","","null","80","","","","","","","","","","","","","","","",""
"","ITI","","html-keyboard-response","527","461723","0.0-1.0-729.0","0","0","21578","","null","","","null","80","","","","","","","","","","","","","","","NaN",""
"","S1","","html-keyboard-response","528","461976","0.0-1.0-731.0","0","0","21578","","null","","","null","81","","","","","","","","","","","","","","","",""
"","ISI","","html-keyboard-response","529","462982","0.0-1.0-732.0","0","0","21578","","null","","","null","81","NaN","","","","","","","","","","","","","","",""
"","S2","","html-keyboard-response","530","463237","0.0-1.0-733.0","0","0","21578","","null","","","null","81","","NaN","","","","","","","","","","","","","",""
"","response","","html-keyboard-response","531","463567","0.0-1.0-734.0-0.0","0","0","21578","","329","","","75","81","","","2","81","training","adjacent","BA","2","1","P.jpg","R.jpg","0","0","1","",""
"","feedback","","html-keyboard-response","532","464575","0.0-1.0-735.0-0.0","0","0","21578","","null","","","null","81","","","","","","","","","","","","","","","",""
"","ITI","","html-keyboard-response","533","465581","0.0-1.0-738.0","0","0","21578","","null","","","null","81","","","","","","","","","","","","","","","NaN",""
"","S1","","html-keyboard-response","534","465840","0.0-1.0-740.0","0","0","21578","","null","","","null","82","","","","","","","","","","","","","","","",""
"","ISI","","html-keyboard-response","535","466843","0.0-1.0-741.0","0","0","21578","","null","","","null","82","NaN","","","","","","","","","","","","","","",""
"","S2","","html-keyboard-response","536","467098","0.0-1.0-742.0","0","0","21578","","null","","","null","82","","NaN","","","","","","","","","","","","","",""
"","response","","html-keyboard-response","537","467214","0.0-1.0-743.0-0.0","0","0","21578","","114","","","68","82","","","2","82","training","adjacent","FE","6","5","O.jpg","Q.jpg","1","0","0","",""
"","feedback","","html-keyboard-response","538","468218","0.0-1.0-744.0-0.0","0","0","21578","","null","","","null","82","","","","","","","","","","","","","","","",""
"","time_out","","html-keyboard-response","539","470223","0.0-1.0-746.0-0.0","0","0","21578","","null","","","null","82","","","","","","","","","","","","","","","",""
"","ITI","","html-keyboard-response","540","471228","0.0-1.0-747.0","0","0","21578","","null","","","null","82","","","","","","","","","","","","","","","NaN",""
"","S1","","html-keyboard-response","541","471481","0.0-1.0-749.0","0","0","21578","","null","","","null","83","","","","","","","","","","","","","","","",""
"","ISI","","html-keyboard-response","542","472489","0.0-1.0-750.0","0","0","21578","","null","","","null","83","NaN","","","","","","","","","","","","","","",""
"","S2","","html-keyboard-response","543","472743","0.0-1.0-751.0","0","0","21578","","null","","","null","83","","NaN","","","","","","","","","","","","","",""
"","response","","html-keyboard-response","544","472768","0.0-1.0-752.0-0.0","0","0","21578","","23","","","75","83","","","2","83","training","adjacent","AB","1","2","R.jpg","P.jpg","0","1","0","",""
"","feedback","","html-keyboard-response","545","473781","0.0-1.0-753.0-0.0","0","0","21578","","null","","","null","83","","","","","","","","","","","","","","","",""
"","time_out","","html-keyboard-response","546","475792","0.0-1.0-755.0-0.0","0","0","21578","","null","","","null","83","","","","","","","","","","","","","","","",""
"","ITI","","html-keyboard-response","547","476800","0.0-1.0-756.0","0","0","21578","","null","","","null","83","","","","","","","","","","","","","","","NaN",""
"","S1","","html-keyboard-response","548","477062","0.0-1.0-758.0","0","0","21578","","null","","","null","84","","","","","","","","","","","","","","","",""
"","ISI","","html-keyboard-response","549","478072","0.0-1.0-759.0","0","0","21578","","null","","","null","84","NaN","","","","","","","","","","","","","","",""
"","S2","","html-keyboard-response","550","478329","0.0-1.0-760.0","0","0","21578","","null","","","null","84","","NaN","","","","","","","","","","","","","",""
"","response","","html-keyboard-response","551","478731","0.0-1.0-761.0-0.0","0","0","21578","","400","","","75","84","","","2","84","training","adjacent","ED","5","4","Q.jpg","N.jpg","0","0","1","",""
"","feedback","","html-keyboard-response","552","479742","0.0-1.0-762.0-0.0","0","0","21578","","null","","","null","84","","","","","","","","","","","","","","","",""
"","ITI","","html-keyboard-response","553","480747","0.0-1.0-765.0","0","0","21578","","null","","","null","84","","","","","","","","","","","","","","","NaN",""
"","S1","","html-keyboard-response","554","481011","0.0-1.0-767.0","0","0","21578","","null","","","null","85","","","","","","","","","","","","","","","",""
"","ISI","","html-keyboard-response","555","482017","0.0-1.0-768.0","0","0","21578","","null","","","null","85","NaN","","","","","","","","","","","","","","",""
"","S2","","html-keyboard-response","556","482274","0.0-1.0-769.0","0","0","21578","","null","","","null","85","","NaN","","","","","","","","","","","","","",""
"","response","","html-keyboard-response","557","482649","0.0-1.0-770.0-0.0","0","0","21578","","372","","","68","85","","","2","85","training","adjacent","BC","2","3","P.jpg","L.jpg","1","1","1","",""
"","feedback","","html-keyboard-response","558","483658","0.0-1.0-771.0-0.0","0","0","21578","","null","","","null","85","","","","","","","","","","","","","","","",""
"","ITI","","html-keyboard-response","559","484669","0.0-1.0-774.0","0","0","21578","","null","","","null","85","","","","","","","","","","","","","","","NaN",""
"","S1","","html-keyboard-response","560","484928","0.0-1.0-776.0","0","0","21578","","null","","","null","86","","","","","","","","","","","","","","","",""
"","ISI","","html-keyboard-response","561","485936","0.0-1.0-777.0","0","0","21578","","null","","","null","86","NaN","","","","","","","","","","","","","","",""
"","S2","","html-keyboard-response","562","486202","0.0-1.0-778.0","0","0","21578","","null","","","null","86","","NaN","","","","","","","","","","","","","",""
"","response","","html-keyboard-response","563","486256","0.0-1.0-779.0-0.0","0","0","21578","","52","","","68","86","","","2","86","training","adjacent","ED","5","4","Q.jpg","N.jpg","1","0","0","",""
"","feedback","","html-keyboard-response","564","487264","0.0-1.0-780.0-0.0","0","0","21578","","null","","","null","86","","","","","","","","","","","","","","","",""
"","time_out","","html-keyboard-response","565","489272","0.0-1.0-782.0-0.0","0","0","21578","","null","","","null","86","","","","","","","","","","","","","","","",""
"","ITI","","html-keyboard-response","566","490278","0.0-1.0-783.0","0","0","21578","","null","","","null","86","","","","","","","","","","","","","","","NaN",""
"","S1","","html-keyboard-response","567","490541","0.0-1.0-785.0","0","0","21578","","null","","","null","87","","","","","","","","","","","","","","","",""
"","ISI","","html-keyboard-response","568","491551","0.0-1.0-786.0","0","0","21578","","null","","","null","87","NaN","","","","","","","","","","","","","","",""
"","S2","","html-keyboard-response","569","491813","0.0-1.0-787.0","0","0","21578","","null","","","null","87","","NaN","","","","","","","","","","","","","",""
"","response","","html-keyboard-response","570","491873","0.0-1.0-788.0-0.0","0","0","21578","","57","","","68","87","","","2","87","training","adjacent","EF","5","6","Q.jpg","O.jpg","1","1","1","",""
"","feedback","","html-keyboard-response","571","492891","0.0-1.0-789.0-0.0","0","0","21578","","null","","","null","87","","","","","","","","","","","","","","","",""
"","ITI","","html-keyboard-response","572","493900","0.0-1.0-792.0","0","0","21578","","null","","","null","87","","","","","","","","","","","","","","","NaN",""
"","S1","","html-keyboard-response","573","494164","0.0-1.0-794.0","0","0","21578","","null","","","null","88","","","","","","","","","","","","","","","",""
"","ISI","","html-keyboard-response","574","495174","0.0-1.0-795.0","0","0","21578","","null","","","null","88","NaN","","","","","","","","","","","","","","",""
"","S2","","html-keyboard-response","575","495435","0.0-1.0-796.0","0","0","21578","","null","","","null","88","","NaN","","","","","","","","","","","","","",""
"","response","","html-keyboard-response","576","495451","0.0-1.0-797.0-0.0","0","0","21578","","14","","","75","88","","","2","88","training","adjacent","FE","6","5","O.jpg","Q.jpg","0","0","1","",""
"","feedback","","html-keyboard-response","577","496464","0.0-1.0-798.0-0.0","0","0","21578","","null","","","null","88","","","","","","","","","","","","","","","",""
"","ITI","","html-keyboard-response","578","497472","0.0-1.0-801.0","0","0","21578","","null","","","null","88","","","","","","","","","","","","","","","NaN",""
"","S1","","html-keyboard-response","579","497735","0.0-1.0-803.0","0","0","21578","","null","","","null","89","","","","","","","","","","","","","","","",""
"","ISI","","html-keyboard-response","580","498739","0.0-1.0-804.0","0","0","21578","","null","","","null","89","NaN","","","","","","","","","","","","","","",""
"","S2","","html-keyboard-response","581","499000","0.0-1.0-805.0","0","0","21578","","null","","","null","89","","NaN","","","","","","","","","","","","","",""
"","response","","html-keyboard-response","582","499119","0.0-1.0-806.0-0.0","0","0","21578","","118","","","75","89","","","2","89","training","adjacent","FG","6","7","O.jpg","M.jpg","0","1","0","",""
