"success","ttype","start_time","trial_type","trial_index","time_elapsed","internal_node_id","warning","missed_checkup","PID","view_history","rt","responses","repeat_instructions","key_press","index","keypress_isi","keypress_S2","block","trial_num","phase","group_type","pair_type","S1_stim","S2_stim","S1_img","S2_img","S1_chosen","S1_higher","accuracy","keypress_iti","total_bonus_tally"
"true","full_screen","d08012022hr1801","fullscreen","0","8749","0.0-0.0","0","0","66645","","","","","","","","","","","","","","","","","","","","","",""
"","instructions","","instructions","1","72854","0.0-1.0-0.0-0.0","0","0","66645","[{""page_index"":0,""viewing_time"":8137},{""page_index"":1,""viewing_time"":36979},{""page_index"":2,""viewing_time"":17015},{""page_index"":3,""viewing_time"":1967}]","64099","","","","","","","","","","","","","","","","","","","",""
"","comprehension_check","","survey-multi-choice","2","98059","0.0-1.0-0.0-1.0","0","0","66645","","25195","{""Q0"":""True"",""Q1"":""K"",""Q2"":""While the images are shown"",""Q3"":""Green mark"",""Q4"":""either D or K""}","1","","","","","","","","","","","","","","","","","",""
"","missed_instruction_checkup","","html-keyboard-response","3","100370","0.0-1.0-0.0-2.0-0.0","0","1","66645","","2303","","","32","","","","","","","","","","","","","","","","",""
"","instructions","","instructions","4","137692","0.0-1.0-0.1-0.1","0","0","66645","[{""page_index"":0,""viewing_time"":3290},{""page_index"":1,""viewing_time"":4103},{""page_index"":2,""viewing_time"":2784},{""page_index"":1,""viewing_time"":608},{""page_index"":0,""viewing_time"":3496},{""page_index"":1,""viewing_time"":8222},{""page_index"":2,""viewing_time"":6039},{""page_index"":3,""viewing_time"":1864},{""page_index"":2,""viewing_time"":408},{""page_index"":1,""viewing_time"":1656},{""page_index"":0,""viewing_time"":2063},{""page_index"":1,""viewing_time"":544},{""page_index"":2,""viewing_time"":992},{""page_index"":3,""viewing_time"":1248}]","37318","","","","","","","","","","","","","","","","","","","",""
"","comprehension_check","","survey-multi-choice","5","155555","0.0-1.0-0.1-1.1","0","0","66645","","17852","{""Q0"":""True"",""Q1"":""K"",""Q2"":""When you see the prompt 'MAKE A CHOICE' after the second image was presented"",""Q3"":""Green mark"",""Q4"":""either D or K""}","0","","","","","","","","","","","","","","","","","",""
"","start_exp","","html-keyboard-response","6","159194","0.0-1.0-1.0","0","0","66645","","3633","","","32","","","","","","","","","","","","","","","","",""
"","S1","","html-keyboard-response","7","159451","0.0-1.0-2.0","0","0","66645","","null","","","null","0","","","","","","","","","","","","","","","",""
"","ISI","","html-keyboard-response","8","161456","0.0-1.0-3.0","0","0","66645","","null","","","null","0","NaN","","","","","","","","","","","","","","",""
"","S2","","html-keyboard-response","9","161713","0.0-1.0-4.0","0","0","66645","","null","","","null","0","","NaN","","","","","","","","","","","","","",""
"","response","","html-keyboard-response","10","162418","0.0-1.0-5.0","0","0","66645","","701","","","75","0","","","1","0","training","adjacent","FE","6","5","Q.jpg","L.jpg","1","0","0","",""
"","feedback","","html-keyboard-response","11","163424","0.0-1.0-6.0-0.0","0","0","66645","","null","","","null","0","","","","","","","","","","","","","","","",""
"","time_out","","html-keyboard-response","12","165430","0.0-1.0-8.0-0.0","0","0","66645","","null","","","null","0","","","","","","","","","","","","","","","",""
"","ITI","","html-keyboard-response","13","166437","0.0-1.0-9.0","0","0","66645","","null","","","null","0","","","","","","","","","","","","","","","NaN",""
"","S1","","html-keyboard-response","14","166694","0.0-1.0-11.0","0","0","66645","","null","","","null","1","","","","","","","","","","","","","","","",""
"","ISI","","html-keyboard-response","15","168699","0.0-1.0-12.0","0","0","66645","","null","","","null","1","NaN","","","","","","","","","","","","","","",""
"","S2","","html-keyboard-response","16","168955","0.0-1.0-13.0","0","0","66645","","null","","","null","1","","NaN","","","","","","","","","","","","","",""
"","response","","html-keyboard-response","17","169658","0.0-1.0-14.0","0","0","66645","","699","","","75","1","","","1","1","training","adjacent","EF","5","6","L.jpg","Q.jpg","1","1","1","",""
"","feedback","","html-keyboard-response","18","170664","0.0-1.0-15.0-0.0","0","0","66645","","null","","","null","1","","","","","","","","","","","","","","","",""
"","ITI","","html-keyboard-response","19","171669","0.0-1.0-18.0","0","0","66645","","null","","","null","1","","","","","","","","","","","","","","","NaN",""
"","S1","","html-keyboard-response","20","171925","0.0-1.0-20.0","0","0","66645","","null","","","null","2","","","","","","","","","","","","","","","",""
"","ISI","","html-keyboard-response","21","173930","0.0-1.0-21.0","0","0","66645","","null","","","null","2","NaN","","","","","","","","","","","","","","",""
"","S2","","html-keyboard-response","22","174186","0.0-1.0-22.0","0","0","66645","","null","","","null","2","","NaN","","","","","","","","","","","","","",""
"","response","","html-keyboard-response","23","174698","0.0-1.0-23.0","0","0","66645","","508","","","68","2","","","1","2","training","adjacent","CB","3","2","N.jpg","R.jpg","0","0","1","",""
"","feedback","","html-keyboard-response","24","175703","0.0-1.0-24.0-0.0","0","0","66645","","null","","","null","2","","","","","","","","","","","","","","","",""
"","ITI","","html-keyboard-response","25","176710","0.0-1.0-27.0","0","0","66645","","null","","","null","2","","","","","","","","","","","","","","","NaN",""
"","S1","","html-keyboard-response","26","176966","0.0-1.0-29.0","0","0","66645","","null","","","null","3","","","","","","","","","","","","","","","",""
"","ISI","","html-keyboard-response","27","178971","0.0-1.0-30.0","0","0","66645","","null","","","null","3","NaN","","","","","","","","","","","","","","",""
"","S2","","html-keyboard-response","28","179227","0.0-1.0-31.0","0","0","66645","","null","","","null","3","","NaN","","","","","","","","","","","","","",""
"","response","","html-keyboard-response","29","179730","0.0-1.0-32.0","0","0","66645","","498","","","75","3","","","1","3","training","adjacent","ED","5","4","L.jpg","M.jpg","1","0","0","",""
"","feedback","","html-keyboard-response","30","180736","0.0-1.0-33.0-0.0","0","0","66645","","null","","","null","3","","","","","","","","","","","","","","","",""
"","time_out","","html-keyboard-response","31","182741","0.0-1.0-35.0-0.0","0","0","66645","","null","","","null","3","","","","","","","","","","","","","","","",""
"","ITI","","html-keyboard-response","32","183747","0.0-1.0-36.0","0","0","66645","","null","","","null","3","","","","","","","","","","","","","","","NaN",""
"","S1","","html-keyboard-response","33","184003","0.0-1.0-38.0","0","0","66645","","null","","","null","4","","","","","","","","","","","","","","","",""
"","ISI","","html-keyboard-response","34","186008","0.0-1.0-39.0","0","0","66645","","null","","","null","4","NaN","","","","","","","","","","","","","","",""
"","S2","","html-keyboard-response","35","186264","0.0-1.0-40.0","0","0","66645","","null","","","null","4","","NaN","","","","","","","","","","","","","",""
"","response","","html-keyboard-response","36","186698","0.0-1.0-41.0","0","0","66645","","429","","","75","4","","","1","4","training","adjacent","DC","4","3","M.jpg","N.jpg","1","0","0","",""
"","feedback","","html-keyboard-response","37","187703","0.0-1.0-42.0-0.0","0","0","66645","","null","","","null","4","","","","","","","","","","","","","","","",""
"","time_out","","html-keyboard-response","38","189709","0.0-1.0-44.0-0.0","0","0","66645","","null","","","null","4","","","","","","","","","","","","","","","",""
"","ITI","","html-keyboard-response","39","190716","0.0-1.0-45.0","0","0","66645","","null","","","null","4","","","","","","","","","","","","","","","NaN",""
"","S1","","html-keyboard-response","40","190971","0.0-1.0-47.0","0","0","66645","","null","","","null","5","","","","","","","","","","","","","","","",""
"","ISI","","html-keyboard-response","41","192977","0.0-1.0-48.0","0","0","66645","","null","","","null","5","NaN","","","","","","","","","","","","","","",""
"","S2","","html-keyboard-response","42","193233","0.0-1.0-49.0","0","0","66645","","null","","","null","5","","NaN","","","","","","","","","","","","","",""
"","response","","html-keyboard-response","43","193769","0.0-1.0-50.0","0","0","66645","","532","","","68","5","","","1","5","training","adjacent","CB","3","2","N.jpg","R.jpg","0","0","1","",""
"","feedback","","html-keyboard-response","44","194775","0.0-1.0-51.0-0.0","0","0","66645","","null","","","null","5","","","","","","","","","","","","","","","",""
"","ITI","","html-keyboard-response","45","195780","0.0-1.0-54.0","0","0","66645","","null","","","null","5","","","","","","","","","","","","","","","NaN",""
"","S1","","html-keyboard-response","46","196035","0.0-1.0-56.0","0","0","66645","","null","","","null","6","","","","","","","","","","","","","","","",""
"","ISI","","html-keyboard-response","47","198041","0.0-1.0-57.0","0","0","66645","","null","","","null","6","NaN","","","","","","","","","","","","","","",""
"","S2","","html-keyboard-response","48","198297","0.0-1.0-58.0","0","0","66645","","null","","","null","6","","NaN","","","","","","","","","","","","","",""
"","response","","html-keyboard-response","49","198738","0.0-1.0-59.0","0","0","66645","","436","","","75","6","","","1","6","training","adjacent","GF","7","6","O.jpg","Q.jpg","1","0","0","",""
"","feedback","","html-keyboard-response","50","199745","0.0-1.0-60.0-0.0","0","0","66645","","null","","","null","6","","","","","","","","","","","","","","","",""
"","time_out","","html-keyboard-response","51","201751","0.0-1.0-62.0-0.0","0","0","66645","","null","","","null","6","","","","","","","","","","","","","","","",""
"","ITI","","html-keyboard-response","52","202756","0.0-1.0-63.0","0","0","66645","","null","","","null","6","","","","","","","","","","","","","","","NaN",""
"","S1","","html-keyboard-response","53","203012","0.0-1.0-65.0","0","0","66645","","null","","","null","7","","","","","","","","","","","","","","","",""
"","ISI","","html-keyboard-response","54","205017","0.0-1.0-66.0","0","0","66645","","null","","","null","7","NaN","","","","","","","","","","","","","","",""
"","S2","","html-keyboard-response","55","205273","0.0-1.0-67.0","0","0","66645","","null","","","null","7","","NaN","","","","","","","","","","","","","",""
"","response","","html-keyboard-response","56","206113","0.0-1.0-68.0","0","0","66645","","836","","","75","7","","","1","7","training","adjacent","ED","5","4","L.jpg","M.jpg","1","0","0","",""
"","feedback","","html-keyboard-response","57","207119","0.0-1.0-69.0-0.0","0","0","66645","","null","","","null","7","","","","","","","","","","","","","","","",""
"","time_out","","html-keyboard-response","58","209125","0.0-1.0-71.0-0.0","0","0","66645","","null","","","null","7","","","","","","","","","","","","","","","",""
"","ITI","","html-keyboard-response","59","210137","0.0-1.0-72.0","0","0","66645","","null","","","null","7","","","","","","","","","","","","","","","NaN",""
"","S1","","html-keyboard-response","60","210393","0.0-1.0-74.0","0","0","66645","","null","","","null","8","","","","","","","","","","","","","","","",""
"","ISI","","html-keyboard-response","61","212399","0.0-1.0-75.0","0","0","66645","","null","","","null","8","NaN","","","","","","","","","","","","","","",""
"","S2","","html-keyboard-response","62","212655","0.0-1.0-76.0","0","0","66645","","null","","","null","8","","NaN","","","","","","","","","","","","","",""
"","response","","html-keyboard-response","63","213145","0.0-1.0-77.0","0","0","66645","","486","","","75","8","","","1","8","training","adjacent","DC","4","3","M.jpg","N.jpg","1","0","0","",""
"","feedback","","html-keyboard-response","64","214152","0.0-1.0-78.0-0.0","0","0","66645","","null","","","null","8","","","","","","","","","","","","","","","",""
"","time_out","","html-keyboard-response","65","216157","0.0-1.0-80.0-0.0","0","0","66645","","null","","","null","8","","","","","","","","","","","","","","","",""
"","ITI","","html-keyboard-response","66","217161","0.0-1.0-81.0","0","0","66645","","null","","","null","8","","","","","","","","","","","","","","","NaN",""
"","S1","","html-keyboard-response","67","217417","0.0-1.0-83.0","0","0","66645","","null","","","null","9","","","","","","","","","","","","","","","",""
"","ISI","","html-keyboard-response","68","219422","0.0-1.0-84.0","0","0","66645","","null","","","null","9","NaN","","","","","","","","","","","","","","",""
"","S2","","html-keyboard-response","69","219678","0.0-1.0-85.0","0","0","66645","","null","","","null","9","","NaN","","","","","","","","","","","","","",""
"","response","","html-keyboard-response","70","220290","0.0-1.0-86.0","0","0","66645","","604","","","68","9","","","1","9","training","adjacent","DC","4","3","M.jpg","N.jpg","0","0","1","",""
"","feedback","","html-keyboard-response","71","221296","0.0-1.0-87.0-0.0","0","0","66645","","null","","","null","9","","","","","","","","","","","","","","","",""
"","ITI","","html-keyboard-response","72","222301","0.0-1.0-90.0","0","0","66645","","null","","","null","9","","","","","","","","","","","","","","","NaN",""
"","S1","","html-keyboard-response","73","222557","0.0-1.0-92.0","0","0","66645","","null","","","null","10","","","","","","","","","","","","","","","",""
"","ISI","","html-keyboard-response","74","224562","0.0-1.0-93.0","0","0","66645","","null","","","null","10","NaN","","","","","","","","","","","","","","",""
"","S2","","html-keyboard-response","75","224817","0.0-1.0-94.0","0","0","66645","","null","","","null","10","","NaN","","","","","","","","","","","","","",""
"","response","","html-keyboard-response","76","225506","0.0-1.0-95.0","0","0","66645","","685","","","68","10","","","1","10","training","adjacent","AB","1","2","P.jpg","R.jpg","0","1","0","",""
"","feedback","","html-keyboard-response","77","226511","0.0-1.0-96.0-0.0","0","0","66645","","null","","","null","10","","","","","","","","","","","","","","","",""
"","time_out","","html-keyboard-response","78","228516","0.0-1.0-98.0-0.0","0","0","66645","","null","","","null","10","","","","","","","","","","","","","","","",""
"","ITI","","html-keyboard-response","79","229530","0.0-1.0-99.0","0","0","66645","","null","","","null","10","","","","","","","","","","","","","","","NaN",""
"","S1","","html-keyboard-response","80","229786","0.0-1.0-101.0","0","0","66645","","null","","","null","11","","","","","","","","","","","","","","","",""
"","ISI","","html-keyboard-response","81","231790","0.0-1.0-102.0","0","0","66645","","null","","","null","11","NaN","","","","","","","","","","","","","","",""
"","S2","","html-keyboard-response","82","232046","0.0-1.0-103.0","0","0","66645","","null","","","null","11","","NaN","","","","","","","","","","","","","",""
"","response","","html-keyboard-response","83","232937","0.0-1.0-104.0","0","0","66645","","887","","","75","11","","","1","11","training","adjacent","CD","3","4","N.jpg","M.jpg","1","1","1","",""
"","feedback","","html-keyboard-response","84","233943","0.0-1.0-105.0-0.0","0","0","66645","","null","","","null","11","","","","","","","","","","","","","","","",""
"","ITI","","html-keyboard-response","85","234948","0.0-1.0-108.0","0","0","66645","","null","","","null","11","","","","","","","","","","","","","","","NaN",""
"","S1","","html-keyboard-response","86","235204","0.0-1.0-110.0","0","0","66645","","null","","","null","12","","","","","","","","","","","","","","","",""
"","ISI","","html-keyboard-response","87","237209","0.0-1.0-111.0","0","0","66645","","null","","","null","12","NaN","","","","","","","","","","","","","","",""
"","S2","","html-keyboard-response","88","237464","0.0-1.0-112.0","0","0","66645","","null","","","null","12","","NaN","","","","","","","","","","","","","",""
"","response","","html-keyboard-response","89","238314","0.0-1.0-113.0","0","0","66645","","845","","","68","12","","","1","12","training","adjacent","DE","4","5","M.jpg","L.jpg","0","1","0","",""
"","feedback","","html-keyboard-response","90","239319","0.0-1.0-114.0-0.0","0","0","66645","","null","","","null","12","","","","","","","","","","","","","","","",""
"","time_out","","html-keyboard-response","91","241324","0.0-1.0-116.0-0.0","0","0","66645","","null","","","null","12","","","","","","","","","","","","","","","",""
"","ITI","","html-keyboard-response","92","242329","0.0-1.0-117.0","0","0","66645","","null","","","null","12","","","","","","","","","","","","","","","NaN",""
"","S1","","html-keyboard-response","93","242585","0.0-1.0-119.0","0","0","66645","","null","","","null","13","","","","","","","","","","","","","","","",""
"","ISI","","html-keyboard-response","94","244591","0.0-1.0-120.0","0","0","66645","","null","","","null","13","NaN","","","","","","","","","","","","","","",""
"","S2","","html-keyboard-response","95","244846","0.0-1.0-121.0","0","0","66645","","null","","","null","13","","NaN","","","","","","","","","","","","","",""
"","response","","html-keyboard-response","96","245386","0.0-1.0-122.0","0","0","66645","","535","","","75","13","","","1","13","training","adjacent","FG","6","7","Q.jpg","O.jpg","1","1","1","",""
"","feedback","","html-keyboard-response","97","246391","0.0-1.0-123.0-0.0","0","0","66645","","null","","","null","13","","","","","","","","","","","","","","","",""
"","ITI","","html-keyboard-response","98","247396","0.0-1.0-126.0","0","0","66645","","null","","","null","13","","","","","","","","","","","","","","","NaN",""
"","S1","","html-keyboard-response","99","247652","0.0-1.0-128.0","0","0","66645","","null","","","null","14","","","","","","","","","","","","","","","",""
"","ISI","","html-keyboard-response","100","249657","0.0-1.0-129.0","0","0","66645","","null","","","null","14","NaN","","","","","","","","","","","","","","",""
"","S2","","html-keyboard-response","101","249912","0.0-1.0-130.0","0","0","66645","","null","","","null","14","","NaN","","","","","","","","","","","","","",""
"","response","","html-keyboard-response","102","250602","0.0-1.0-131.0","0","0","66645","","685","","","75","14","","","1","14","training","adjacent","FE","6","5","Q.jpg","L.jpg","1","0","0","",""
"","feedback","","html-keyboard-response","103","251608","0.0-1.0-132.0-0.0","0","0","66645","","null","","","null","14","","","","","","","","","","","","","","","",""
"","time_out","","html-keyboard-response","104","253612","0.0-1.0-134.0-0.0","0","0","66645","","null","","","null","14","","","","","","","","","","","","","","","",""
"","ITI","","html-keyboard-response","105","254618","0.0-1.0-135.0","0","0","66645","","null","","","null","14","","","","","","","","","","","","","","","NaN",""
"","S1","","html-keyboard-response","106","254874","0.0-1.0-137.0","0","0","66645","","null","","","null","15","","","","","","","","","","","","","","","",""
"","ISI","","html-keyboard-response","107","256879","0.0-1.0-138.0","0","0","66645","","null","","","null","15","NaN","","","","","","","","","","","","","","",""
"","S2","","html-keyboard-response","108","257135","0.0-1.0-139.0","0","0","66645","","null","","","null","15","","NaN","","","","","","","","","","","","","",""
"","response","","html-keyboard-response","109","257697","0.0-1.0-140.0","0","0","66645","","558","","","68","15","","","1","15","training","adjacent","CD","3","4","N.jpg","M.jpg","0","1","0","",""
"","feedback","","html-keyboard-response","110","258703","0.0-1.0-141.0-0.0","0","0","66645","","null","","","null","15","","","","","","","","","","","","","","","",""
"","time_out","","html-keyboard-response","111","260708","0.0-1.0-143.0-0.0","0","0","66645","","null","","","null","15","","","","","","","","","","","","","","","",""
"","ITI","","html-keyboard-response","112","261712","0.0-1.0-144.0","0","0","66645","","null","","","null","15","","","","","","","","","","","","","","","NaN",""
"","S1","","html-keyboard-response","113","261969","0.0-1.0-146.0","0","0","66645","","null","","","null","16","","","","","","","","","","","","","","","",""
"","ISI","","html-keyboard-response","114","263974","0.0-1.0-147.0","0","0","66645","","null","","","null","16","NaN","","","","","","","","","","","","","","",""
"","S2","","html-keyboard-response","115","264229","0.0-1.0-148.0","0","0","66645","","null","","","null","16","","NaN","","","","","","","","","","","","","",""
"","response","","html-keyboard-response","116","264642","0.0-1.0-149.0","0","0","66645","","410","","","75","16","","","1","16","training","adjacent","BA","2","1","R.jpg","P.jpg","1","0","0","",""
"","feedback","","html-keyboard-response","117","265647","0.0-1.0-150.0-0.0","0","0","66645","","null","","","null","16","","","","","","","","","","","","","","","",""
"","time_out","","html-keyboard-response","118","267652","0.0-1.0-152.0-0.0","0","0","66645","","null","","","null","16","","","","","","","","","","","","","","","",""
"","ITI","","html-keyboard-response","119","268657","0.0-1.0-153.0","0","0","66645","","null","","","null","16","","","","","","","","","","","","","","","NaN",""
"","S1","","html-keyboard-response","120","268913","0.0-1.0-155.0","0","0","66645","","null","","","null","17","","","","","","","","","","","","","","","",""
"","ISI","","html-keyboard-response","121","270918","0.0-1.0-156.0","0","0","66645","","null","","","null","17","NaN","","","","","","","","","","","","","","",""
"","S2","","html-keyboard-response","122","271174","0.0-1.0-157.0","0","0","66645","","null","","","null","17","","NaN","","","","","","","","","","","","","",""
"","response","","html-keyboard-response","123","271882","0.0-1.0-158.0","0","0","66645","","703","","","68","17","","","1","17","training","adjacent","FG","6","7","Q.jpg","O.jpg","0","1","0","",""
"","feedback","","html-keyboard-response","124","272888","0.0-1.0-159.0-0.0","0","0","66645","","null","","","null","17","","","","","","","","","","","","","","","",""
"","time_out","","html-keyboard-response","125","274892","0.0-1.0-161.0-0.0","0","0","66645","","null","","","null","17","","","","","","","","","","","","","","","",""
"","ITI","","html-keyboard-response","126","275897","0.0-1.0-162.0","0","0","66645","","null","","","null","17","","","","","","","","","","","","","","","NaN",""
"","S1","","html-keyboard-response","127","276152","0.0-1.0-164.0","0","0","66645","","null","","","null","18","","","","","","","","","","","","","","","",""
"","ISI","","html-keyboard-response","128","278157","0.0-1.0-165.0","0","0","66645","","null","","","null","18","NaN","","","","","","","","","","","","","","",""
"","S2","","html-keyboard-response","129","278412","0.0-1.0-166.0","0","0","66645","","null","","","null","18","","NaN","","","","","","","","","","","","","",""
"","response","","html-keyboard-response","130","278986","0.0-1.0-167.0","0","0","66645","","570","","","68","18","","","1","18","training","adjacent","BA","2","1","R.jpg","P.jpg","0","0","1","",""
"","feedback","","html-keyboard-response","131","279991","0.0-1.0-168.0-0.0","0","0","66645","","null","","","null","18","","","","","","","","","","","","","","","",""
"","ITI","","html-keyboard-response","132","280996","0.0-1.0-171.0","0","0","66645","","null","","","null","18","","","","","","","","","","","","","","","NaN",""
"","S1","","html-keyboard-response","133","281252","0.0-1.0-173.0","0","0","66645","","null","","","null","19","","","","","","","","","","","","","","","",""
"","ISI","","html-keyboard-response","134","283258","0.0-1.0-174.0","0","0","66645","","null","","","null","19","NaN","","","","","","","","","","","","","","",""
"","S2","","html-keyboard-response","135","283513","0.0-1.0-175.0","0","0","66645","","null","","","null","19","","NaN","","","","","","","","","","","","","",""
"","response","","html-keyboard-response","136","284258","0.0-1.0-176.0","0","0","66645","","741","","","68","19","","","1","19","training","adjacent","EF","5","6","L.jpg","Q.jpg","0","1","0","",""
"","feedback","","html-keyboard-response","137","285265","0.0-1.0-177.0-0.0","0","0","66645","","null","","","null","19","","","","","","","","","","","","","","","",""
"","time_out","","html-keyboard-response","138","287270","0.0-1.0-179.0-0.0","0","0","66645","","null","","","null","19","","","","","","","","","","","","","","","",""
"","ITI","","html-keyboard-response","139","288275","0.0-1.0-180.0","0","0","66645","","null","","","null","19","","","","","","","","","","","","","","","NaN",""
"","S1","","html-keyboard-response","140","288530","0.0-1.0-182.0","0","0","66645","","null","","","null","20","","","","","","","","","","","","","","","",""
"","ISI","","html-keyboard-response","141","290535","0.0-1.0-183.0","0","0","66645","","null","","","null","20","NaN","","","","","","","","","","","","","","",""
"","S2","","html-keyboard-response","142","290790","0.0-1.0-184.0","0","0","66645","","null","","","null","20","","NaN","","","","","","","","","","","","","",""
"","response","","html-keyboard-response","143","291147","0.0-1.0-185.0","0","0","66645","","352","","","75","20","","","1","20","training","adjacent","FE","6","5","Q.jpg","L.jpg","1","0","0","",""
"","feedback","","html-keyboard-response","144","292152","0.0-1.0-186.0-0.0","0","0","66645","","null","","","null","20","","","","","","","","","","","","","","","",""
"","time_out","","html-keyboard-response","145","294157","0.0-1.0-188.0-0.0","0","0","66645","","null","","","null","20","","","","","","","","","","","","","","","",""
"","ITI","","html-keyboard-response","146","295162","0.0-1.0-189.0","0","0","66645","","null","","","null","20","","","","","","","","","","","","","","","NaN",""
"","S1","","html-keyboard-response","147","295418","0.0-1.0-191.0","0","0","66645","","null","","","null","21","","","","","","","","","","","","","","","",""
"","ISI","","html-keyboard-response","148","297423","0.0-1.0-192.0","0","0","66645","","null","","","null","21","NaN","","","","","","","","","","","","","","",""
"","S2","","html-keyboard-response","149","297678","0.0-1.0-193.0","0","0","66645","","null","","","null","21","","NaN","","","","","","","","","","","","","",""
"","response","","html-keyboard-response","150","298138","0.0-1.0-194.0","0","0","66645","","456","","","75","21","","","1","21","training","adjacent","AB","1","2","P.jpg","R.jpg","1","1","1","",""
"","feedback","","html-keyboard-response","151","299144","0.0-1.0-195.0-0.0","0","0","66645","","null","","","null","21","","","","","","","","","","","","","","","",""
"","ITI","","html-keyboard-response","152","300148","0.0-1.0-198.0","0","0","66645","","null","","","null","21","","","","","","","","","","","","","","","NaN",""
"","S1","","html-keyboard-response","153","300403","0.0-1.0-200.0","0","0","66645","","null","","","null","22","","","","","","","","","","","","","","","",""
"","ISI","","html-keyboard-response","154","302408","0.0-1.0-201.0","0","0","66645","","null","","","null","22","NaN","","","","","","","","","","","","","","",""
"","S2","","html-keyboard-response","155","302664","0.0-1.0-202.0","0","0","66645","","null","","","null","22","","NaN","","","","","","","","","","","","","",""
"","response","","html-keyboard-response","156","303578","0.0-1.0-203.0","0","0","66645","","910","","","68","22","","","1","22","training","adjacent","EF","5","6","L.jpg","Q.jpg","0","1","0","",""
"","feedback","","html-keyboard-response","157","304585","0.0-1.0-204.0-0.0","0","0","66645","","null","","","null","22","","","","","","","","","","","","","","","",""
"","time_out","","html-keyboard-response","158","306590","0.0-1.0-206.0-0.0","0","0","66645","","null","","","null","22","","","","","","","","","","","","","","","",""
"","ITI","","html-keyboard-response","159","307596","0.0-1.0-207.0","0","0","66645","","null","","","null","22","","","","","","","","","","","","","","","NaN",""
"","S1","","html-keyboard-response","160","307851","0.0-1.0-209.0","0","0","66645","","null","","","null","23","","","","","","","","","","","","","","","",""
"","ISI","","html-keyboard-response","161","309856","0.0-1.0-210.0","0","0","66645","","null","","","null","23","NaN","","","","","","","","","","","","","","",""
"","S2","","html-keyboard-response","162","310112","0.0-1.0-211.0","0","0","66645","","null","","","null","23","","NaN","","","","","","","","","","","","","",""
"","response","","html-keyboard-response","163","310578","0.0-1.0-212.0","0","0","66645","","461","","","68","23","","","1","23","training","adjacent","ED","5","4","L.jpg","M.jpg","0","0","1","",""
"","feedback","","html-keyboard-response","164","311584","0.0-1.0-213.0-0.0","0","0","66645","","null","","","null","23","","","","","","","","","","","","","","","",""
"","ITI","","html-keyboard-response","165","312589","0.0-1.0-216.0","0","0","66645","","null","","","null","23","","","","","","","","","","","","","","","NaN",""
"","S1","","html-keyboard-response","166","312844","0.0-1.0-218.0","0","0","66645","","null","","","null","24","","","","","","","","","","","","","","","",""
"","ISI","","html-keyboard-response","167","314849","0.0-1.0-219.0","0","0","66645","","null","","","null","24","NaN","","","","","","","","","","","","","","",""
"","S2","","html-keyboard-response","168","315105","0.0-1.0-220.0","0","0","66645","","null","","","null","24","","NaN","","","","","","","","","","","","","",""
"","response","","html-keyboard-response","169","315906","0.0-1.0-221.0","0","0","66645","","796","","","68","24","","","1","24","training","adjacent","GF","7","6","O.jpg","Q.jpg","0","0","1","",""
"","feedback","","html-keyboard-response","170","316911","0.0-1.0-222.0-0.0","0","0","66645","","null","","","null","24","","","","","","","","","","","","","","","",""
"","ITI","","html-keyboard-response","171","317916","0.0-1.0-225.0","0","0","66645","","null","","","null","24","","","","","","","","","","","","","","","NaN",""
"","S1","","html-keyboard-response","172","318172","0.0-1.0-227.0","0","0","66645","","null","","","null","25","","","","","","","","","","","","","","","",""
"","ISI","","html-keyboard-response","173","320176","0.0-1.0-228.0","0","0","66645","","null","","","null","25","NaN","","","","","","","","","","","","","","",""
"","S2","","html-keyboard-response","174","320432","0.0-1.0-229.0","0","0","66645","","null","","","null","25","","NaN","","","","","","","","","","","","","",""
"","response","","html-keyboard-response","175","321225","0.0-1.0-230.0","0","0","66645","","789","","","75","25","","","1","25","training","adjacent","GF","7","6","O.jpg","Q.jpg","1","0","0","",""
"","feedback","","html-keyboard-response","176","322231","0.0-1.0-231.0-0.0","0","0","66645","","null","","","null","25","","","","","","","","","","","","","","","",""
"","time_out","","html-keyboard-response","177","324235","0.0-1.0-233.0-0.0","0","0","66645","","null","","","null","25","","","","","","","","","","","","","","","",""
"","ITI","","html-keyboard-response","178","325250","0.0-1.0-234.0","0","0","66645","","null","","","null","25","","","","","","","","","","","","","","","NaN",""
"","S1","","html-keyboard-response","179","325506","0.0-1.0-236.0","0","0","66645","","null","","","null","26","","","","","","","","","","","","","","","",""
"","ISI","","html-keyboard-response","180","327511","0.0-1.0-237.0","0","0","66645","","null","","","null","26","NaN","","","","","","","","","","","","","","",""
"","S2","","html-keyboard-response","181","327766","0.0-1.0-238.0","0","0","66645","","null","","","null","26","","NaN","","","","","","","","","","","","","",""
"","response","","html-keyboard-response","182","328234","0.0-1.0-239.0","0","0","66645","","463","","","68","26","","","1","26","training","adjacent","DC","4","3","M.jpg","N.jpg","0","0","1","",""
"","feedback","","html-keyboard-response","183","329239","0.0-1.0-240.0-0.0","0","0","66645","","null","","","null","26","","","","","","","","","","","","","","","",""
"","ITI","","html-keyboard-response","184","330245","0.0-1.0-243.0","0","0","66645","","null","","","null","26","","","","","","","","","","","","","","","NaN",""
"","S1","","html-keyboard-response","185","330500","0.0-1.0-245.0","0","0","66645","","null","","","null","27","","","","","","","","","","","","","","","",""
"","ISI","","html-keyboard-response","186","332505","0.0-1.0-246.0","0","0","66645","","null","","","null","27","NaN","","","","","","","","","","","","","","",""
"","S2","","html-keyboard-response","187","332761","0.0-1.0-247.0","0","0","66645","","null","","","null","27","","NaN","","","","","","","","","","","","","",""
"","response","","html-keyboard-response","188","333210","0.0-1.0-248.0","0","0","66645","","444","","","75","27","","","1","27","training","adjacent","CB","3","2","N.jpg","R.jpg","1","0","0","",""
"","feedback","","html-keyboard-response","189","334215","0.0-1.0-249.0-0.0","0","0","66645","","null","","","null","27","","","","","","","","","","","","","","","",""
"","time_out","","html-keyboard-response","190","336220","0.0-1.0-251.0-0.0","0","0","66645","","null","","","null","27","","","","","","","","","","","","","","","",""
"","ITI","","html-keyboard-response","191","337226","0.0-1.0-252.0","0","0","66645","","null","","","null","27","","","","","","","","","","","","","","","NaN",""
"","S1","","html-keyboard-response","192","337481","0.0-1.0-254.0","0","0","66645","","null","","","null","28","","","","","","","","","","","","","","","",""
"","ISI","","html-keyboard-response","193","339485","0.0-1.0-255.0","0","0","66645","","null","","","null","28","NaN","","","","","","","","","","","","","","",""
"","S2","","html-keyboard-response","194","339740","0.0-1.0-256.0","0","0","66645","","null","","","null","28","","NaN","","","","","","","","","","","","","",""
"","response","","html-keyboard-response","195","340194","0.0-1.0-257.0","0","0","66645","","449","","","68","28","","","1","28","training","adjacent","CD","3","4","N.jpg","M.jpg","0","1","0","",""
"","feedback","","html-keyboard-response","196","341200","0.0-1.0-258.0-0.0","0","0","66645","","null","","","null","28","","","","","","","","","","","","","","","",""
"","time_out","","html-keyboard-response","197","343205","0.0-1.0-260.0-0.0","0","0","66645","","null","","","null","28","","","","","","","","","","","","","","","",""
"","ITI","","html-keyboard-response","198","344210","0.0-1.0-261.0","0","0","66645","","null","","","null","28","","","","","","","","","","","","","","","NaN",""
"","S1","","html-keyboard-response","199","344466","0.0-1.0-263.0","0","0","66645","","null","","","null","29","","","","","","","","","","","","","","","",""
"","ISI","","html-keyboard-response","200","346471","0.0-1.0-264.0","0","0","66645","","null","","","null","29","NaN","","","","","","","","","","","","","","",""
"","S2","","html-keyboard-response","201","346727","0.0-1.0-265.0","0","0","66645","","null","","","null","29","","NaN","","","","","","","","","","","","","",""
"","response","","html-keyboard-response","202","347282","0.0-1.0-266.0","0","0","66645","","550","","","68","29","","","1","29","training","adjacent","ED","5","4","L.jpg","M.jpg","0","0","1","",""
"","feedback","","html-keyboard-response","203","348287","0.0-1.0-267.0-0.0","0","0","66645","","null","","","null","29","","","","","","","","","","","","","","","",""
"","ITI","","html-keyboard-response","204","349293","0.0-1.0-270.0","0","0","66645","","null","","","null","29","","","","","","","","","","","","","","","NaN",""
"","S1","","html-keyboard-response","205","349548","0.0-1.0-272.0","0","0","66645","","null","","","null","30","","","","","","","","","","","","","","","",""
"","ISI","","html-keyboard-response","206","351554","0.0-1.0-273.0","0","0","66645","","null","","","null","30","NaN","","","","","","","","","","","","","","",""
"","S2","","html-keyboard-response","207","351809","0.0-1.0-274.0","0","0","66645","","null","","","null","30","","NaN","","","","","","","","","","","","","",""
"","response","","html-keyboard-response","208","352690","0.0-1.0-275.0","0","0","66645","","876","","","68","30","","","1","30","training","adjacent","BA","2","1","R.jpg","P.jpg","0","0","1","",""
"","feedback","","html-keyboard-response","209","353696","0.0-1.0-276.0-0.0","0","0","66645","","null","","","null","30","","","","","","","","","","","","","","","",""
"","ITI","","html-keyboard-response","210","354701","0.0-1.0-279.0","0","0","66645","","null","","","null","30","","","","","","","","","","","","","","","NaN",""
"","S1","","html-keyboard-response","211","354957","0.0-1.0-281.0","0","0","66645","","null","","","null","31","","","","","","","","","","","","","","","",""
"","ISI","","html-keyboard-response","212","356962","0.0-1.0-282.0","0","0","66645","","null","","","null","31","NaN","","","","","","","","","","","","","","",""
"","S2","","html-keyboard-response","213","357218","0.0-1.0-283.0","0","0","66645","","null","","","null","31","","NaN","","","","","","","","","","","","","",""
"","response","","html-keyboard-response","214","358058","0.0-1.0-284.0","0","0","66645","","835","","","68","31","","","1","31","training","adjacent","FG","6","7","Q.jpg","O.jpg","0","1","0","",""
"","feedback","","html-keyboard-response","215","359063","0.0-1.0-285.0-0.0","0","0","66645","","null","","","null","31","","","","","","","","","","","","","","","",""
"","time_out","","html-keyboard-response","216","361069","0.0-1.0-287.0-0.0","0","0","66645","","null","","","null","31","","","","","","","","","","","","","","","",""
"","ITI","","html-keyboard-response","217","362075","0.0-1.0-288.0","0","0","66645","","null","","","null","31","","","","","","","","","","","","","","","NaN",""
"","S1","","html-keyboard-response","218","362330","0.0-1.0-290.0","0","0","66645","","null","","","null","32","","","","","","","","","","","","","","","",""
"","ISI","","html-keyboard-response","219","364335","0.0-1.0-291.0","0","0","66645","","null","","","null","32","NaN","","","","","","","","","","","","","","",""
"","S2","","html-keyboard-response","220","364590","0.0-1.0-292.0","0","0","66645","","null","","","null","32","","NaN","","","","","","","","","","","","","",""
"","response","","html-keyboard-response","221","365481","0.0-1.0-293.0","0","0","66645","","887","","","75","32","","","1","32","training","adjacent","BA","2","1","R.jpg","P.jpg","1","0","0","",""
"","feedback","","html-keyboard-response","222","366488","0.0-1.0-294.0-0.0","0","0","66645","","null","","","null","32","","","","","","","","","","","","","","","",""
"","time_out","","html-keyboard-response","223","368492","0.0-1.0-296.0-0.0","0","0","66645","","null","","","null","32","","","","","","","","","","","","","","","",""
"","ITI","","html-keyboard-response","224","369498","0.0-1.0-297.0","0","0","66645","","null","","","null","32","","","","","","","","","","","","","","","NaN",""
"","S1","","html-keyboard-response","225","369753","0.0-1.0-299.0","0","0","66645","","null","","","null","33","","","","","","","","","","","","","","","",""
"","ISI","","html-keyboard-response","226","371760","0.0-1.0-300.0","0","0","66645","","null","","","null","33","NaN","","","","","","","","","","","","","","",""
"","S2","","html-keyboard-response","227","372015","0.0-1.0-301.0","0","0","66645","","null","","","null","33","","NaN","","","","","","","","","","","","","",""
"","response","","html-keyboard-response","228","372914","0.0-1.0-302.0","0","0","66645","","894","","","68","33","","","1","33","training","adjacent","FE","6","5","Q.jpg","L.jpg","0","0","1","",""
"","feedback","","html-keyboard-response","229","373920","0.0-1.0-303.0-0.0","0","0","66645","","null","","","null","33","","","","","","","","","","","","","","","",""
"","ITI","","html-keyboard-response","230","374926","0.0-1.0-306.0","0","0","66645","","null","","","null","33","","","","","","","","","","","","","","","NaN",""
"","S1","","html-keyboard-response","231","375181","0.0-1.0-308.0","0","0","66645","","null","","","null","34","","","","","","","","","","","","","","","",""
"","ISI","","html-keyboard-response","232","377187","0.0-1.0-309.0","0","0","66645","","null","","","null","34","NaN","","","","","","","","","","","","","","",""
"","S2","","html-keyboard-response","233","377442","0.0-1.0-310.0","0","0","66645","","null","","","null","34","","NaN","","","","","","","","","","","","","",""
"","response","","html-keyboard-response","234","377994","0.0-1.0-311.0","0","0","66645","","547","","","75","34","","","1","34","training","adjacent","AB","1","2","P.jpg","R.jpg","1","1","1","",""
"","feedback","","html-keyboard-response","235","378998","0.0-1.0-312.0-0.0","0","0","66645","","null","","","null","34","","","","","","","","","","","","","","","",""
"","ITI","","html-keyboard-response","236","380005","0.0-1.0-315.0","0","0","66645","","null","","","null","34","","","","","","","","","","","","","","","NaN",""
"","S1","","html-keyboard-response","237","380261","0.0-1.0-317.0","0","0","66645","","null","","","null","35","","","","","","","","","","","","","","","",""
"","ISI","","html-keyboard-response","238","382266","0.0-1.0-318.0","0","0","66645","","null","","","null","35","NaN","","","","","","","","","","","","","","",""
"","S2","","html-keyboard-response","239","382522","0.0-1.0-319.0","0","0","66645","","null","","","null","35","","NaN","","","","","","","","","","","","","",""
"","response","","html-keyboard-response","240","383346","0.0-1.0-320.0","0","0","66645","","820","","","68","35","","","1","35","training","adjacent","EF","5","6","L.jpg","Q.jpg","0","1","0","",""
"","feedback","","html-keyboard-response","241","384352","0.0-1.0-321.0-0.0","0","0","66645","","null","","","null","35","","","","","","","","","","","","","","","",""
"","time_out","","html-keyboard-response","242","386358","0.0-1.0-323.0-0.0","0","0","66645","","null","","","null","35","","","","","","","","","","","","","","","",""
"","ITI","","html-keyboard-response","243","387363","0.0-1.0-324.0","0","0","66645","","null","","","null","35","","","","","","","","","","","","","","","NaN",""
"","S1","","html-keyboard-response","244","387618","0.0-1.0-326.0","0","0","66645","","null","","","null","36","","","","","","","","","","","","","","","",""
"","ISI","","html-keyboard-response","245","389623","0.0-1.0-327.0","0","0","66645","","null","","","null","36","NaN","","","","","","","","","","","","","","",""
"","S2","","html-keyboard-response","246","389878","0.0-1.0-328.0","0","0","66645","","null","","","null","36","","NaN","","","","","","","","","","","","","",""
"","response","","html-keyboard-response","247","390786","0.0-1.0-329.0","0","0","66645","","904","","","75","36","","","1","36","training","adjacent","BC","2","3","R.jpg","N.jpg","1","1","1","",""
"","feedback","","html-keyboard-response","248","391792","0.0-1.0-330.0-0.0","0","0","66645","","null","","","null","36","","","","","","","","","","","","","","","",""
"","ITI","","html-keyboard-response","249","392797","0.0-1.0-333.0","0","0","66645","","null","","","null","36","","","","","","","","","","","","","","","NaN",""
"","S1","","html-keyboard-response","250","393053","0.0-1.0-335.0","0","0","66645","","null","","","null","37","","","","","","","","","","","","","","","",""
"","ISI","","html-keyboard-response","251","395058","0.0-1.0-336.0","0","0","66645","","null","","","null","37","NaN","","","","","","","","","","","","","","",""
"","S2","","html-keyboard-response","252","395314","0.0-1.0-337.0","0","0","66645","","null","","","null","37","","NaN","","","","","","","","","","","","","",""
"","response","","html-keyboard-response","253","395946","0.0-1.0-338.0","0","0","66645","","627","","","68","37","","","1","37","training","adjacent","DE","4","5","M.jpg","L.jpg","0","1","0","",""
"","feedback","","html-keyboard-response","254","396951","0.0-1.0-339.0-0.0","0","0","66645","","null","","","null","37","","","","","","","","","","","","","","","",""
"","time_out","","html-keyboard-response","255","398956","0.0-1.0-341.0-0.0","0","0","66645","","null","","","null","37","","","","","","","","","","","","","","","",""
"","ITI","","html-keyboard-response","256","399961","0.0-1.0-342.0","0","0","66645","","null","","","null","37","","","","","","","","","","","","","","","NaN",""
"","S1","","html-keyboard-response","257","400218","0.0-1.0-344.0","0","0","66645","","null","","","null","38","","","","","","","","","","","","","","","",""
"","ISI","","html-keyboard-response","258","402223","0.0-1.0-345.0","0","0","66645","","null","","","null","38","NaN","","","","","","","","","","","","","","",""
"","S2","","html-keyboard-response","259","402479","0.0-1.0-346.0","0","0","66645","","null","","","null","38","","NaN","","","","","","","","","","","","","",""
"","response","","html-keyboard-response","260","403330","0.0-1.0-347.0","0","0","66645","","846","","","75","38","","","1","38","training","adjacent","BC","2","3","R.jpg","N.jpg","1","1","1","",""
"","feedback","","html-keyboard-response","261","404336","0.0-1.0-348.0-0.0","0","0","66645","","null","","","null","38","","","","","","","","","","","","","","","",""
"","ITI","","html-keyboard-response","262","405342","0.0-1.0-351.0","0","0","66645","","null","","","null","38","","","","","","","","","","","","","","","NaN",""
"","S1","","html-keyboard-response","263","405598","0.0-1.0-353.0","0","0","66645","","null","","","null","39","","","","","","","","","","","","","","","",""
"","ISI","","html-keyboard-response","264","407602","0.0-1.0-354.0","0","0","66645","","null","","","null","39","NaN","","","","","","","","","","","","","","",""
"","S2","","html-keyboard-response","265","407857","0.0-1.0-355.0","0","0","66645","","null","","","null","39","","NaN","","","","","","","","","","","","","",""
"","response","","html-keyboard-response","266","408522","0.0-1.0-356.0","0","0","66645","","660","","","68","39","","","1","39","training","adjacent","GF","7","6","O.jpg","Q.jpg","0","0","1","",""
"","feedback","","html-keyboard-response","267","409528","0.0-1.0-357.0-0.0","0","0","66645","","null","","","null","39","","","","","","","","","","","","","","","",""
"","ITI","","html-keyboard-response","268","410533","0.0-1.0-360.0","0","0","66645","","null","","","null","39","","","","","","","","","","","","","","","NaN",""
"","S1","","html-keyboard-response","269","410789","0.0-1.0-362.0","0","0","66645","","null","","","null","40","","","","","","","","","","","","","","","",""
"","ISI","","html-keyboard-response","270","412795","0.0-1.0-363.0","0","0","66645","","null","","","null","40","NaN","","","","","","","","","","","","","","",""
"","S2","","html-keyboard-response","271","413050","0.0-1.0-364.0","0","0","66645","","null","","","null","40","","NaN","","","","","","","","","","","","","",""
"","response","","html-keyboard-response","272","413946","0.0-1.0-365.0","0","0","66645","","891","","","75","40","","","1","40","training","adjacent","BC","2","3","R.jpg","N.jpg","1","1","1","",""
"","feedback","","html-keyboard-response","273","414951","0.0-1.0-366.0-0.0","0","0","66645","","null","","","null","40","","","","","","","","","","","","","","","",""
"","ITI","","html-keyboard-response","274","415957","0.0-1.0-369.0","0","0","66645","","null","","","null","40","","","","","","","","","","","","","","","NaN",""
"","S1","","html-keyboard-response","275","416212","0.0-1.0-371.0","0","0","66645","","null","","","null","41","","","","","","","","","","","","","","","",""
"","ISI","","html-keyboard-response","276","418218","0.0-1.0-372.0","0","0","66645","","null","","","null","41","NaN","","","","","","","","","","","","","","",""
"","S2","","html-keyboard-response","277","418473","0.0-1.0-373.0","0","0","66645","","null","","","null","41","","NaN","","","","","","","","","","","","","",""
"","response","","html-keyboard-response","278","419394","0.0-1.0-374.0","0","0","66645","","917","","","75","41","","","1","41","training","adjacent","DE","4","5","M.jpg","L.jpg","1","1","1","",""
"","feedback","","html-keyboard-response","279","420400","0.0-1.0-375.0-0.0","0","0","66645","","null","","","null","41","","","","","","","","","","","","","","","",""
"","ITI","","html-keyboard-response","280","421405","0.0-1.0-378.0","0","0","66645","","null","","","null","41","","","","","","","","","","","","","","","NaN",""
"","S1","","html-keyboard-response","281","421661","0.0-1.0-380.0","0","0","66645","","null","","","null","42","","","","","","","","","","","","","","","",""
"","ISI","","html-keyboard-response","282","423666","0.0-1.0-381.0","0","0","66645","","null","","","null","42","NaN","","","","","","","","","","","","","","",""
"","S2","","html-keyboard-response","283","423922","0.0-1.0-382.0","0","0","66645","","null","","","null","42","","NaN","","","","","","","","","","","","","",""
"","response","","html-keyboard-response","284","425074","0.0-1.0-383.0","0","0","66645","","1148","","","68","42","","","1","42","training","adjacent","CB","3","2","N.jpg","R.jpg","0","0","1","",""
"","feedback","","html-keyboard-response","285","426080","0.0-1.0-384.0-0.0","0","0","66645","","null","","","null","42","","","","","","","","","","","","","","","",""
"","ITI","","html-keyboard-response","286","427086","0.0-1.0-387.0","0","0","66645","","null","","","null","42","","","","","","","","","","","","","","","NaN",""
"","S1","","html-keyboard-response","287","427341","0.0-1.0-389.0","0","0","66645","","null","","","null","43","","","","","","","","","","","","","","","",""
"","ISI","","html-keyboard-response","288","429346","0.0-1.0-390.0","0","0","66645","","null","","","null","43","NaN","","","","","","","","","","","","","","",""
"","S2","","html-keyboard-response","289","429601","0.0-1.0-391.0","0","0","66645","","null","","","null","43","","NaN","","","","","","","","","","","","","",""
"","response","","html-keyboard-response","290","430202","0.0-1.0-392.0","0","0","66645","","596","","","75","43","","","1","43","training","adjacent","AB","1","2","P.jpg","R.jpg","1","1","1","",""
"","feedback","","html-keyboard-response","291","431207","0.0-1.0-393.0-0.0","0","0","66645","","null","","","null","43","","","","","","","","","","","","","","","",""
"","ITI","","html-keyboard-response","292","432213","0.0-1.0-396.0","0","0","66645","","null","","","null","43","","","","","","","","","","","","","","","NaN",""
"","S1","","html-keyboard-response","293","432468","0.0-1.0-398.0","0","0","66645","","null","","","null","44","","","","","","","","","","","","","","","",""
"","ISI","","html-keyboard-response","294","434474","0.0-1.0-399.0","0","0","66645","","null","","","null","44","NaN","","","","","","","","","","","","","","",""
"","S2","","html-keyboard-response","295","434729","0.0-1.0-400.0","0","0","66645","","null","","","null","44","","NaN","","","","","","","","","","","","","",""
"","response","","html-keyboard-response","296","435419","0.0-1.0-401.0","0","0","66645","","685","","","75","44","","","1","44","training","adjacent","DE","4","5","M.jpg","L.jpg","1","1","1","",""
"","feedback","","html-keyboard-response","297","436425","0.0-1.0-402.0-0.0","0","0","66645","","null","","","null","44","","","","","","","","","","","","","","","",""
"","ITI","","html-keyboard-response","298","437431","0.0-1.0-405.0","0","0","66645","","null","","","null","44","","","","","","","","","","","","","","","NaN",""
"","S1","","html-keyboard-response","299","437686","0.0-1.0-407.0","0","0","66645","","null","","","null","45","","","","","","","","","","","","","","","",""
"","ISI","","html-keyboard-response","300","439692","0.0-1.0-408.0","0","0","66645","","null","","","null","45","NaN","","","","","","","","","","","","","","",""
"","S2","","html-keyboard-response","301","439948","0.0-1.0-409.0","0","0","66645","","null","","","null","45","","NaN","","","","","","","","","","","","","",""
"","response","","html-keyboard-response","302","440546","0.0-1.0-410.0","0","0","66645","","594","","","68","45","","","1","45","training","adjacent","FG","6","7","Q.jpg","O.jpg","0","1","0","",""
"","feedback","","html-keyboard-response","303","441551","0.0-1.0-411.0-0.0","0","0","66645","","null","","","null","45","","","","","","","","","","","","","","","",""
"","time_out","","html-keyboard-response","304","443557","0.0-1.0-413.0-0.0","0","0","66645","","null","","","null","45","","","","","","","","","","","","","","","",""
"","ITI","","html-keyboard-response","305","444563","0.0-1.0-414.0","0","0","66645","","null","","","null","45","","","","","","","","","","","","","","","NaN",""
"","S1","","html-keyboard-response","306","444819","0.0-1.0-416.0","0","0","66645","","null","","","null","46","","","","","","","","","","","","","","","",""
"","ISI","","html-keyboard-response","307","446824","0.0-1.0-417.0","0","0","66645","","null","","","null","46","NaN","","","","","","","","","","","","","","",""
"","S2","","html-keyboard-response","308","447081","0.0-1.0-418.0","0","0","66645","","null","","","null","46","","NaN","","","","","","","","","","","","","",""
"","response","","html-keyboard-response","309","447586","0.0-1.0-419.0","0","0","66645","","500","","","75","46","","","1","46","training","adjacent","BC","2","3","R.jpg","N.jpg","1","1","1","",""
"","feedback","","html-keyboard-response","310","448592","0.0-1.0-420.0-0.0","0","0","66645","","null","","","null","46","","","","","","","","","","","","","","","",""
"","ITI","","html-keyboard-response","311","449598","0.0-1.0-423.0","0","0","66645","","null","","","null","46","","","","","","","","","","","","","","","NaN",""
"","S1","","html-keyboard-response","312","449854","0.0-1.0-425.0","0","0","66645","","null","","","null","47","","","","","","","","","","","","","","","",""
"","ISI","","html-keyboard-response","313","451858","0.0-1.0-426.0","0","0","66645","","null","","","null","47","NaN","","","","","","","","","","","","","","",""
"","S2","","html-keyboard-response","314","452114","0.0-1.0-427.0","0","0","66645","","null","","","null","47","","NaN","","","","","","","","","","","","","",""
"","response","","html-keyboard-response","315","452706","0.0-1.0-428.0","0","0","66645","","588","","","68","47","","","1","47","training","adjacent","CD","3","4","N.jpg","M.jpg","0","1","0","",""
"","feedback","","html-keyboard-response","316","453726","0.0-1.0-429.0-0.0","0","0","66645","","null","","","null","47","","","","","","","","","","","","","","","",""
"","time_out","","html-keyboard-response","317","455731","0.0-1.0-431.0-0.0","0","0","66645","","null","","","null","47","","","","","","","","","","","","","","","",""
"","ITI","","html-keyboard-response","318","456736","0.0-1.0-432.0","0","0","66645","","null","","","null","47","","","","","","","","","","","","","","","NaN",""
"","block_over","","html-keyboard-response","319","538227","0.0-1.0-433.0-0.0","0","0","66645","","81484","","","32","47","","","","","","","","","","","","","","","",""
"","S1","","html-keyboard-response","320","538482","0.0-1.0-434.0","0","0","66645","","null","","","null","48","","","","","","","","","","","","","","","",""
"","ISI","","html-keyboard-response","321","540487","0.0-1.0-435.0","0","0","66645","","null","","","null","48","NaN","","","","","","","","","","","","","","",""
"","S2","","html-keyboard-response","322","540742","0.0-1.0-436.0","0","0","66645","","null","","","null","48","","NaN","","","","","","","","","","","","","",""
"","response","","html-keyboard-response","323","541267","0.0-1.0-437.0","0","0","66645","","520","","","75","48","","","2","48","training","adjacent","FE","6","5","Q.jpg","L.jpg","1","0","0","",""
"","feedback","","html-keyboard-response","324","542272","0.0-1.0-438.0-0.0","0","0","66645","","null","","","null","48","","","","","","","","","","","","","","","",""
"","time_out","","html-keyboard-response","325","544277","0.0-1.0-440.0-0.0","0","0","66645","","null","","","null","48","","","","","","","","","","","","","","","",""
"","ITI","","html-keyboard-response","326","545282","0.0-1.0-441.0","0","0","66645","","null","","","null","48","","","","","","","","","","","","","","","NaN",""
"","S1","","html-keyboard-response","327","545538","0.0-1.0-443.0","0","0","66645","","null","","","null","49","","","","","","","","","","","","","","","",""
"","ISI","","html-keyboard-response","328","547544","0.0-1.0-444.0","0","0","66645","","null","","","null","49","NaN","","","","","","","","","","","","","","",""
"","S2","","html-keyboard-response","329","547799","0.0-1.0-445.0","0","0","66645","","null","","","null","49","","NaN","","","","","","","","","","","","","",""
"","response","","html-keyboard-response","330","548883","0.0-1.0-446.0","0","0","66645","","1079","","","75","49","","","2","49","training","adjacent","FG","6","7","Q.jpg","O.jpg","1","1","1","",""
"","feedback","","html-keyboard-response","331","549890","0.0-1.0-447.0-0.0","0","0","66645","","null","","","null","49","","","","","","","","","","","","","","","",""
"","ITI","","html-keyboard-response","332","550896","0.0-1.0-450.0","0","0","66645","","null","","","null","49","","","","","","","","","","","","","","","NaN",""
"","S1","","html-keyboard-response","333","551151","0.0-1.0-452.0","0","0","66645","","null","","","null","50","","","","","","","","","","","","","","","",""
"","ISI","","html-keyboard-response","334","553155","0.0-1.0-453.0","0","0","66645","","null","","","null","50","NaN","","","","","","","","","","","","","","",""
"","S2","","html-keyboard-response","335","553411","0.0-1.0-454.0","0","0","66645","","null","","","null","50","","NaN","","","","","","","","","","","","","",""
"","response","","html-keyboard-response","336","554250","0.0-1.0-455.0","0","0","66645","","835","","","75","50","","","2","50","training","adjacent","AB","1","2","P.jpg","R.jpg","1","1","1","",""
"","feedback","","html-keyboard-response","337","555263","0.0-1.0-456.0-0.0","0","0","66645","","null","","","null","50","","","","","","","","","","","","","","","",""
"","ITI","","html-keyboard-response","338","556269","0.0-1.0-459.0","0","0","66645","","null","","","null","50","","","","","","","","","","","","","","","NaN",""
"","S1","","html-keyboard-response","339","556526","0.0-1.0-461.0","0","0","66645","","null","","","null","51","","","","","","","","","","","","","","","",""
"","ISI","","html-keyboard-response","340","558531","0.0-1.0-462.0","0","0","66645","","null","","","null","51","NaN","","","","","","","","","","","","","","",""
"","S2","","html-keyboard-response","341","558786","0.0-1.0-463.0","0","0","66645","","null","","","null","51","","NaN","","","","","","","","","","","","","",""
"","response","","html-keyboard-response","342","559499","0.0-1.0-464.0","0","0","66645","","708","","","75","51","","","2","51","training","adjacent","BC","2","3","R.jpg","N.jpg","1","1","1","",""
"","feedback","","html-keyboard-response","343","560505","0.0-1.0-465.0-0.0","0","0","66645","","null","","","null","51","","","","","","","","","","","","","","","",""
"","ITI","","html-keyboard-response","344","561510","0.0-1.0-468.0","0","0","66645","","null","","","null","51","","","","","","","","","","","","","","","NaN",""
"","S1","","html-keyboard-response","345","561766","0.0-1.0-470.0","0","0","66645","","null","","","null","52","","","","","","","","","","","","","","","",""
"","ISI","","html-keyboard-response","346","563771","0.0-1.0-471.0","0","0","66645","","null","","","null","52","NaN","","","","","","","","","","","","","","",""
"","S2","","html-keyboard-response","347","564027","0.0-1.0-472.0","0","0","66645","","null","","","null","52","","NaN","","","","","","","","","","","","","",""
"","response","","html-keyboard-response","348","564810","0.0-1.0-473.0","0","0","66645","","779","","","75","52","","","2","52","training","adjacent","AB","1","2","P.jpg","R.jpg","1","1","1","",""
"","feedback","","html-keyboard-response","349","565816","0.0-1.0-474.0-0.0","0","0","66645","","null","","","null","52","","","","","","","","","","","","","","","",""
"","ITI","","html-keyboard-response","350","566823","0.0-1.0-477.0","0","0","66645","","null","","","null","52","","","","","","","","","","","","","","","NaN",""
"","S1","","html-keyboard-response","351","567079","0.0-1.0-479.0","0","0","66645","","null","","","null","53","","","","","","","","","","","","","","","",""
"","ISI","","html-keyboard-response","352","569084","0.0-1.0-480.0","0","0","66645","","null","","","null","53","NaN","","","","","","","","","","","","","","",""
"","S2","","html-keyboard-response","353","569340","0.0-1.0-481.0","0","0","66645","","null","","","null","53","","NaN","","","","","","","","","","","","","",""
"","response","","html-keyboard-response","354","570179","0.0-1.0-482.0","0","0","66645","","834","","","75","53","","","2","53","training","adjacent","CB","3","2","N.jpg","R.jpg","1","0","0","",""
"","feedback","","html-keyboard-response","355","571185","0.0-1.0-483.0-0.0","0","0","66645","","null","","","null","53","","","","","","","","","","","","","","","",""
"","time_out","","html-keyboard-response","356","573190","0.0-1.0-485.0-0.0","0","0","66645","","null","","","null","53","","","","","","","","","","","","","","","",""
"","ITI","","html-keyboard-response","357","574206","0.0-1.0-486.0","0","0","66645","","null","","","null","53","","","","","","","","","","","","","","","NaN",""
"","S1","","html-keyboard-response","358","574469","0.0-1.0-488.0","0","0","66645","","null","","","null","54","","","","","","","","","","","","","","","",""
"","ISI","","html-keyboard-response","359","576474","0.0-1.0-489.0","0","0","66645","","null","","","null","54","NaN","","","","","","","","","","","","","","",""
"","S2","","html-keyboard-response","360","576729","0.0-1.0-490.0","0","0","66645","","null","","","null","54","","NaN","","","","","","","","","","","","","",""
"","response","","html-keyboard-response","361","577123","0.0-1.0-491.0","0","0","66645","","389","","","75","54","","","2","54","training","adjacent","BC","2","3","R.jpg","N.jpg","1","1","1","",""
"","feedback","","html-keyboard-response","362","578129","0.0-1.0-492.0-0.0","0","0","66645","","null","","","null","54","","","","","","","","","","","","","","","",""
"","ITI","","html-keyboard-response","363","579136","0.0-1.0-495.0","0","0","66645","","null","","","null","54","","","","","","","","","","","","","","","NaN",""
"","S1","","html-keyboard-response","364","579392","0.0-1.0-497.0","0","0","66645","","null","","","null","55","","","","","","","","","","","","","","","",""
"","ISI","","html-keyboard-response","365","581397","0.0-1.0-498.0","0","0","66645","","null","","","null","55","NaN","","","","","","","","","","","","","","",""
"","S2","","html-keyboard-response","366","581653","0.0-1.0-499.0","0","0","66645","","null","","","null","55","","NaN","","","","","","","","","","","","","",""
"","response","","html-keyboard-response","367","582410","0.0-1.0-500.0","0","0","66645","","753","","","68","55","","","2","55","training","adjacent","DE","4","5","M.jpg","L.jpg","0","1","0","",""
"","feedback","","html-keyboard-response","368","583417","0.0-1.0-501.0-0.0","0","0","66645","","null","","","null","55","","","","","","","","","","","","","","","",""
"","time_out","","html-keyboard-response","369","585422","0.0-1.0-503.0-0.0","0","0","66645","","null","","","null","55","","","","","","","","","","","","","","","",""
"","ITI","","html-keyboard-response","370","586427","0.0-1.0-504.0","0","0","66645","","null","","","null","55","","","","","","","","","","","","","","","NaN",""
"","S1","","html-keyboard-response","371","586682","0.0-1.0-506.0","0","0","66645","","null","","","null","56","","","","","","","","","","","","","","","",""
"","ISI","","html-keyboard-response","372","588687","0.0-1.0-507.0","0","0","66645","","null","","","null","56","NaN","","","","","","","","","","","","","","",""
"","S2","","html-keyboard-response","373","588942","0.0-1.0-508.0","0","0","66645","","null","","","null","56","","NaN","","","","","","","","","","","","","",""
"","response","","html-keyboard-response","374","589810","0.0-1.0-509.0","0","0","66645","","863","","","75","56","","","2","56","training","adjacent","DC","4","3","M.jpg","N.jpg","1","0","0","",""
"","feedback","","html-keyboard-response","375","590817","0.0-1.0-510.0-0.0","0","0","66645","","null","","","null","56","","","","","","","","","","","","","","","",""
"","time_out","","html-keyboard-response","376","592821","0.0-1.0-512.0-0.0","0","0","66645","","null","","","null","56","","","","","","","","","","","","","","","",""
"","ITI","","html-keyboard-response","377","593826","0.0-1.0-513.0","0","0","66645","","null","","","null","56","","","","","","","","","","","","","","","NaN",""
"","S1","","html-keyboard-response","378","594082","0.0-1.0-515.0","0","0","66645","","null","","","null","57","","","","","","","","","","","","","","","",""
"","ISI","","html-keyboard-response","379","596087","0.0-1.0-516.0","0","0","66645","","null","","","null","57","NaN","","","","","","","","","","","","","","",""
"","S2","","html-keyboard-response","380","596343","0.0-1.0-517.0","0","0","66645","","null","","","null","57","","NaN","","","","","","","","","","","","","",""
"","response","","html-keyboard-response","381","597411","0.0-1.0-518.0","0","0","66645","","1063","","","68","57","","","2","57","training","adjacent","DE","4","5","M.jpg","L.jpg","0","1","0","",""
"","feedback","","html-keyboard-response","382","598416","0.0-1.0-519.0-0.0","0","0","66645","","null","","","null","57","","","","","","","","","","","","","","","",""
"","time_out","","html-keyboard-response","383","600422","0.0-1.0-521.0-0.0","0","0","66645","","null","","","null","57","","","","","","","","","","","","","","","",""
"","ITI","","html-keyboard-response","384","601428","0.0-1.0-522.0","0","0","66645","","null","","","null","57","","","","","","","","","","","","","","","NaN",""
"","S1","","html-keyboard-response","385","601683","0.0-1.0-524.0","0","0","66645","","null","","","null","58","","","","","","","","","","","","","","","",""
"","ISI","","html-keyboard-response","386","603689","0.0-1.0-525.0","0","0","66645","","null","","","null","58","NaN","","","","","","","","","","","","","","",""
"","S2","","html-keyboard-response","387","603945","0.0-1.0-526.0","0","0","66645","","null","","","null","58","","NaN","","","","","","","","","","","","","",""
"","response","","html-keyboard-response","388","604609","0.0-1.0-527.0","0","0","66645","","660","","","68","58","","","2","58","training","adjacent","BA","2","1","R.jpg","P.jpg","0","0","1","",""
"","feedback","","html-keyboard-response","389","605614","0.0-1.0-528.0-0.0","0","0","66645","","null","","","null","58","","","","","","","","","","","","","","","",""
"","ITI","","html-keyboard-response","390","606620","0.0-1.0-531.0","0","0","66645","","null","","","null","58","","","","","","","","","","","","","","","NaN",""
"","S1","","html-keyboard-response","391","606876","0.0-1.0-533.0","0","0","66645","","null","","","null","59","","","","","","","","","","","","","","","",""
"","ISI","","html-keyboard-response","392","608881","0.0-1.0-534.0","0","0","66645","","null","","","null","59","NaN","","","","","","","","","","","","","","",""
"","S2","","html-keyboard-response","393","609137","0.0-1.0-535.0","0","0","66645","","null","","","null","59","","NaN","","","","","","","","","","","","","",""
"","response","","html-keyboard-response","394","610394","0.0-1.0-536.0","0","0","66645","","1251","","","68","59","","","2","59","training","adjacent","GF","7","6","O.jpg","Q.jpg","0","0","1","",""
"","feedback","","html-keyboard-response","395","611399","0.0-1.0-537.0-0.0","0","0","66645","","null","","","null","59","","","","","","","","","","","","","","","",""
"","ITI","","html-keyboard-response","396","612405","0.0-1.0-540.0","0","0","66645","","null","","","null","59","","","","","","","","","","","","","","","NaN",""
"","S1","","html-keyboard-response","397","612661","0.0-1.0-542.0","0","0","66645","","null","","","null","60","","","","","","","","","","","","","","","",""
"","ISI","","html-keyboard-response","398","614666","0.0-1.0-543.0","0","0","66645","","null","","","null","60","NaN","","","","","","","","","","","","","","",""
"","S2","","html-keyboard-response","399","614922","0.0-1.0-544.0","0","0","66645","","null","","","null","60","","NaN","","","","","","","","","","","","","",""
"","response","","html-keyboard-response","400","615641","0.0-1.0-545.0","0","0","66645","","715","","","75","60","","","2","60","training","adjacent","ED","5","4","L.jpg","M.jpg","1","0","0","",""
"","feedback","","html-keyboard-response","401","616647","0.0-1.0-546.0-0.0","0","0","66645","","null","","","null","60","","","","","","","","","","","","","","","",""
"","time_out","","html-keyboard-response","402","618653","0.0-1.0-548.0-0.0","0","0","66645","","null","","","null","60","","","","","","","","","","","","","","","",""
"","ITI","","html-keyboard-response","403","619658","0.0-1.0-549.0","0","0","66645","","null","","","null","60","","","","","","","","","","","","","","","NaN",""
"","S1","","html-keyboard-response","404","619914","0.0-1.0-551.0","0","0","66645","","null","","","null","61","","","","","","","","","","","","","","","",""
"","ISI","","html-keyboard-response","405","621919","0.0-1.0-552.0","0","0","66645","","null","","","null","61","NaN","","","","","","","","","","","","","","",""
"","S2","","html-keyboard-response","406","622175","0.0-1.0-553.0","0","0","66645","","null","","","null","61","","NaN","","","","","","","","","","","","","",""
"","response","","html-keyboard-response","407","622786","0.0-1.0-554.0","0","0","66645","","606","","","75","61","","","2","61","training","adjacent","AB","1","2","P.jpg","R.jpg","1","1","1","",""
"","feedback","","html-keyboard-response","408","623791","0.0-1.0-555.0-0.0","0","0","66645","","null","","","null","61","","","","","","","","","","","","","","","",""
"","ITI","","html-keyboard-response","409","624798","0.0-1.0-558.0","0","0","66645","","null","","","null","61","","","","","","","","","","","","","","","NaN",""
"","S1","","html-keyboard-response","410","625053","0.0-1.0-560.0","0","0","66645","","null","","","null","62","","","","","","","","","","","","","","","",""
"","ISI","","html-keyboard-response","411","627058","0.0-1.0-561.0","0","0","66645","","null","","","null","62","NaN","","","","","","","","","","","","","","",""
"","S2","","html-keyboard-response","412","627314","0.0-1.0-562.0","0","0","66645","","null","","","null","62","","NaN","","","","","","","","","","","","","",""
"","response","","html-keyboard-response","413","628609","0.0-1.0-563.0","0","0","66645","","1291","","","68","62","","","2","62","training","adjacent","CD","3","4","N.jpg","M.jpg","0","1","0","",""
"","feedback","","html-keyboard-response","414","629615","0.0-1.0-564.0-0.0","0","0","66645","","null","","","null","62","","","","","","","","","","","","","","","",""
"","time_out","","html-keyboard-response","415","631621","0.0-1.0-566.0-0.0","0","0","66645","","null","","","null","62","","","","","","","","","","","","","","","",""
"","ITI","","html-keyboard-response","416","632626","0.0-1.0-567.0","0","0","66645","","null","","","null","62","","","","","","","","","","","","","","","NaN",""
"","S1","","html-keyboard-response","417","632881","0.0-1.0-569.0","0","0","66645","","null","","","null","63","","","","","","","","","","","","","","","",""
"","ISI","","html-keyboard-response","418","634886","0.0-1.0-570.0","0","0","66645","","null","","","null","63","NaN","","","","","","","","","","","","","","",""
"","S2","","html-keyboard-response","419","635143","0.0-1.0-571.0","0","0","66645","","null","","","null","63","","NaN","","","","","","","","","","","","","",""
"","response","","html-keyboard-response","420","635802","0.0-1.0-572.0","0","0","66645","","654","","","68","63","","","2","63","training","adjacent","FG","6","7","Q.jpg","O.jpg","0","1","0","",""
"","feedback","","html-keyboard-response","421","636808","0.0-1.0-573.0-0.0","0","0","66645","","null","","","null","63","","","","","","","","","","","","","","","",""
"","time_out","","html-keyboard-response","422","638813","0.0-1.0-575.0-0.0","0","0","66645","","null","","","null","63","","","","","","","","","","","","","","","",""
"","ITI","","html-keyboard-response","423","639818","0.0-1.0-576.0","0","0","66645","","null","","","null","63","","","","","","","","","","","","","","","NaN",""
"","S1","","html-keyboard-response","424","640073","0.0-1.0-578.0","0","0","66645","","null","","","null","64","","","","","","","","","","","","","","","",""
"","ISI","","html-keyboard-response","425","642079","0.0-1.0-579.0","0","0","66645","","null","","","null","64","NaN","","","","","","","","","","","","","","",""
"","S2","","html-keyboard-response","426","642334","0.0-1.0-580.0","0","0","66645","","null","","","null","64","","NaN","","","","","","","","","","","","","",""
"","response","","html-keyboard-response","427","642969","0.0-1.0-581.0","0","0","66645","","631","","","75","64","","","2","64","training","adjacent","FE","6","5","Q.jpg","L.jpg","1","0","0","",""
"","feedback","","html-keyboard-response","428","643976","0.0-1.0-582.0-0.0","0","0","66645","","null","","","null","64","","","","","","","","","","","","","","","",""
"","time_out","","html-keyboard-response","429","645981","0.0-1.0-584.0-0.0","0","0","66645","","null","","","null","64","","","","","","","","","","","","","","","",""
"","ITI","","html-keyboard-response","430","646987","0.0-1.0-585.0","0","0","66645","","null","","","null","64","","","","","","","","","","","","","","","NaN",""
"","S1","","html-keyboard-response","431","647243","0.0-1.0-587.0","0","0","66645","","null","","","null","65","","","","","","","","","","","","","","","",""
"","ISI","","html-keyboard-response","432","649248","0.0-1.0-588.0","0","0","66645","","null","","","null","65","NaN","","","","","","","","","","","","","","",""
"","S2","","html-keyboard-response","433","649504","0.0-1.0-589.0","0","0","66645","","null","","","null","65","","NaN","","","","","","","","","","","","","",""
"","response","","html-keyboard-response","434","650425","0.0-1.0-590.0","0","0","66645","","917","","","68","65","","","2","65","training","adjacent","CB","3","2","N.jpg","R.jpg","0","0","1","",""
"","feedback","","html-keyboard-response","435","651432","0.0-1.0-591.0-0.0","0","0","66645","","null","","","null","65","","","","","","","","","","","","","","","",""
"","ITI","","html-keyboard-response","436","652438","0.0-1.0-594.0","0","0","66645","","null","","","null","65","","","","","","","","","","","","","","","NaN",""
"","S1","","html-keyboard-response","437","652694","0.0-1.0-596.0","0","0","66645","","null","","","null","66","","","","","","","","","","","","","","","",""
"","ISI","","html-keyboard-response","438","654700","0.0-1.0-597.0","0","0","66645","","null","","","null","66","NaN","","","","","","","","","","","","","","",""
"","S2","","html-keyboard-response","439","654956","0.0-1.0-598.0","0","0","66645","","null","","","null","66","","NaN","","","","","","","","","","","","","",""
"","response","","html-keyboard-response","440","656289","0.0-1.0-599.0","0","0","66645","","1329","","","68","66","","","2","66","training","adjacent","FE","6","5","Q.jpg","L.jpg","0","0","1","",""
"","feedback","","html-keyboard-response","441","657296","0.0-1.0-600.0-0.0","0","0","66645","","null","","","null","66","","","","","","","","","","","","","","","",""
"","ITI","","html-keyboard-response","442","658302","0.0-1.0-603.0","0","0","66645","","null","","","null","66","","","","","","","","","","","","","","","NaN",""
"","S1","","html-keyboard-response","443","658558","0.0-1.0-605.0","0","0","66645","","null","","","null","67","","","","","","","","","","","","","","","",""
"","ISI","","html-keyboard-response","444","660563","0.0-1.0-606.0","0","0","66645","","null","","","null","67","NaN","","","","","","","","","","","","","","",""
"","S2","","html-keyboard-response","445","660819","0.0-1.0-607.0","0","0","66645","","null","","","null","67","","NaN","","","","","","","","","","","","","",""
"","response","","html-keyboard-response","446","661450","0.0-1.0-608.0","0","0","66645","","626","","","75","67","","","2","67","training","adjacent","CD","3","4","N.jpg","M.jpg","1","1","1","",""
"","feedback","","html-keyboard-response","447","662457","0.0-1.0-609.0-0.0","0","0","66645","","null","","","null","67","","","","","","","","","","","","","","","",""
"","ITI","","html-keyboard-response","448","663463","0.0-1.0-612.0","0","0","66645","","null","","","null","67","","","","","","","","","","","","","","","NaN",""
"","S1","","html-keyboard-response","449","663718","0.0-1.0-614.0","0","0","66645","","null","","","null","68","","","","","","","","","","","","","","","",""
"","ISI","","html-keyboard-response","450","665724","0.0-1.0-615.0","0","0","66645","","null","","","null","68","NaN","","","","","","","","","","","","","","",""
"","S2","","html-keyboard-response","451","665980","0.0-1.0-616.0","0","0","66645","","null","","","null","68","","NaN","","","","","","","","","","","","","",""
"","response","","html-keyboard-response","452","666554","0.0-1.0-617.0","0","0","66645","","569","","","68","68","","","2","68","training","adjacent","FE","6","5","Q.jpg","L.jpg","0","0","1","",""
"","feedback","","html-keyboard-response","453","667559","0.0-1.0-618.0-0.0","0","0","66645","","null","","","null","68","","","","","","","","","","","","","","","",""
"","ITI","","html-keyboard-response","454","668565","0.0-1.0-621.0","0","0","66645","","null","","","null","68","","","","","","","","","","","","","","","NaN",""
"","S1","","html-keyboard-response","455","668821","0.0-1.0-623.0","0","0","66645","","null","","","null","69","","","","","","","","","","","","","","","",""
"","ISI","","html-keyboard-response","456","670827","0.0-1.0-624.0","0","0","66645","","null","","","null","69","NaN","","","","","","","","","","","","","","",""
"","S2","","html-keyboard-response","457","671083","0.0-1.0-625.0","0","0","66645","","null","","","null","69","","NaN","","","","","","","","","","","","","",""
"","response","","html-keyboard-response","458","671514","0.0-1.0-626.0","0","0","66645","","426","","","75","69","","","2","69","training","adjacent","EF","5","6","L.jpg","Q.jpg","1","1","1","",""
"","feedback","","html-keyboard-response","459","672520","0.0-1.0-627.0-0.0","0","0","66645","","null","","","null","69","","","","","","","","","","","","","","","",""
"","ITI","","html-keyboard-response","460","673525","0.0-1.0-630.0","0","0","66645","","null","","","null","69","","","","","","","","","","","","","","","NaN",""
"","S1","","html-keyboard-response","461","673780","0.0-1.0-632.0","0","0","66645","","null","","","null","70","","","","","","","","","","","","","","","",""
"","ISI","","html-keyboard-response","462","675785","0.0-1.0-633.0","0","0","66645","","null","","","null","70","NaN","","","","","","","","","","","","","","",""
"","S2","","html-keyboard-response","463","676048","0.0-1.0-634.0","0","0","66645","","null","","","null","70","","NaN","","","","","","","","","","","","","",""
"","response","","html-keyboard-response","464","677066","0.0-1.0-635.0","0","0","66645","","1013","","","68","70","","","2","70","training","adjacent","DC","4","3","M.jpg","N.jpg","0","0","1","",""
"","feedback","","html-keyboard-response","465","678071","0.0-1.0-636.0-0.0","0","0","66645","","null","","","null","70","","","","","","","","","","","","","","","",""
"","ITI","","html-keyboard-response","466","679078","0.0-1.0-639.0","0","0","66645","","null","","","null","70","","","","","","","","","","","","","","","NaN",""
"","S1","","html-keyboard-response","467","679334","0.0-1.0-641.0","0","0","66645","","null","","","null","71","","","","","","","","","","","","","","","",""
"","ISI","","html-keyboard-response","468","681339","0.0-1.0-642.0","0","0","66645","","null","","","null","71","NaN","","","","","","","","","","","","","","",""
"","S2","","html-keyboard-response","469","681596","0.0-1.0-643.0","0","0","66645","","null","","","null","71","","NaN","","","","","","","","","","","","","",""
"","response","","html-keyboard-response","470","682130","0.0-1.0-644.0","0","0","66645","","529","","","68","71","","","2","71","training","adjacent","CD","3","4","N.jpg","M.jpg","0","1","0","",""
"","feedback","","html-keyboard-response","471","683135","0.0-1.0-645.0-0.0","0","0","66645","","null","","","null","71","","","","","","","","","","","","","","","",""
"","time_out","","html-keyboard-response","472","685141","0.0-1.0-647.0-0.0","0","0","66645","","null","","","null","71","","","","","","","","","","","","","","","",""
"","ITI","","html-keyboard-response","473","686147","0.0-1.0-648.0","0","0","66645","","null","","","null","71","","","","","","","","","","","","","","","NaN",""
"","S1","","html-keyboard-response","474","686402","0.0-1.0-650.0","0","0","66645","","null","","","null","72","","","","","","","","","","","","","","","",""
"","ISI","","html-keyboard-response","475","688408","0.0-1.0-651.0","0","0","66645","","null","","","null","72","NaN","","","","","","","","","","","","","","",""
"","S2","","html-keyboard-response","476","688663","0.0-1.0-652.0","0","0","66645","","null","","","null","72","","NaN","","","","","","","","","","","","","",""
"","response","","html-keyboard-response","477","689250","0.0-1.0-653.0","0","0","66645","","582","","","75","72","","","2","72","training","adjacent","DC","4","3","M.jpg","N.jpg","1","0","0","",""
"","feedback","","html-keyboard-response","478","690256","0.0-1.0-654.0-0.0","0","0","66645","","null","","","null","72","","","","","","","","","","","","","","","",""
"","time_out","","html-keyboard-response","479","692261","0.0-1.0-656.0-0.0","0","0","66645","","null","","","null","72","","","","","","","","","","","","","","","",""
"","ITI","","html-keyboard-response","480","693266","0.0-1.0-657.0","0","0","66645","","null","","","null","72","","","","","","","","","","","","","","","NaN",""
"","S1","","html-keyboard-response","481","693522","0.0-1.0-659.0","0","0","66645","","null","","","null","73","","","","","","","","","","","","","","","",""
"","ISI","","html-keyboard-response","482","695528","0.0-1.0-660.0","0","0","66645","","null","","","null","73","NaN","","","","","","","","","","","","","","",""
"","S2","","html-keyboard-response","483","695784","0.0-1.0-661.0","0","0","66645","","null","","","null","73","","NaN","","","","","","","","","","","","","",""
"","response","","html-keyboard-response","484","696578","0.0-1.0-662.0","0","0","66645","","789","","","75","73","","","2","73","training","adjacent","BC","2","3","R.jpg","N.jpg","1","1","1","",""
"","feedback","","html-keyboard-response","485","697585","0.0-1.0-663.0-0.0","0","0","66645","","null","","","null","73","","","","","","","","","","","","","","","",""
"","ITI","","html-keyboard-response","486","698590","0.0-1.0-666.0","0","0","66645","","null","","","null","73","","","","","","","","","","","","","","","NaN",""
"","S1","","html-keyboard-response","487","698846","0.0-1.0-668.0","0","0","66645","","null","","","null","74","","","","","","","","","","","","","","","",""
"","ISI","","html-keyboard-response","488","700850","0.0-1.0-669.0","0","0","66645","","null","","","null","74","NaN","","","","","","","","","","","","","","",""
"","S2","","html-keyboard-response","489","701106","0.0-1.0-670.0","0","0","66645","","null","","","null","74","","NaN","","","","","","","","","","","","","",""
"","response","","html-keyboard-response","490","701898","0.0-1.0-671.0","0","0","66645","","787","","","68","74","","","2","74","training","adjacent","EF","5","6","L.jpg","Q.jpg","0","1","0","",""
"","feedback","","html-keyboard-response","491","702903","0.0-1.0-672.0-0.0","0","0","66645","","null","","","null","74","","","","","","","","","","","","","","","",""
"","time_out","","html-keyboard-response","492","704908","0.0-1.0-674.0-0.0","0","0","66645","","null","","","null","74","","","","","","","","","","","","","","","",""
"","ITI","","html-keyboard-response","493","705914","0.0-1.0-675.0","0","0","66645","","null","","","null","74","","","","","","","","","","","","","","","NaN",""
"","S1","","html-keyboard-response","494","706169","0.0-1.0-677.0","0","0","66645","","null","","","null","75","","","","","","","","","","","","","","","",""
"","ISI","","html-keyboard-response","495","708174","0.0-1.0-678.0","0","0","66645","","null","","","null","75","NaN","","","","","","","","","","","","","","",""
"","S2","","html-keyboard-response","496","708429","0.0-1.0-679.0","0","0","66645","","null","","","null","75","","NaN","","","","","","","","","","","","","",""
"","response","","html-keyboard-response","497","709514","0.0-1.0-680.0","0","0","66645","","1081","","","75","75","","","2","75","training","adjacent","DC","4","3","M.jpg","N.jpg","1","0","0","",""
"","feedback","","html-keyboard-response","498","710520","0.0-1.0-681.0-0.0","0","0","66645","","null","","","null","75","","","","","","","","","","","","","","","",""
"","time_out","","html-keyboard-response","499","712525","0.0-1.0-683.0-0.0","0","0","66645","","null","","","null","75","","","","","","","","","","","","","","","",""
"","ITI","","html-keyboard-response","500","713530","0.0-1.0-684.0","0","0","66645","","null","","","null","75","","","","","","","","","","","","","","","NaN",""
"","S1","","html-keyboard-response","501","713785","0.0-1.0-686.0","0","0","66645","","null","","","null","76","","","","","","","","","","","","","","","",""
"","ISI","","html-keyboard-response","502","715790","0.0-1.0-687.0","0","0","66645","","null","","","null","76","NaN","","","","","","","","","","","","","","",""
"","S2","","html-keyboard-response","503","716045","0.0-1.0-688.0","0","0","66645","","null","","","null","76","","NaN","","","","","","","","","","","","","",""
"","response","","html-keyboard-response","504","716769","0.0-1.0-689.0","0","0","66645","","720","","","68","76","","","2","76","training","adjacent","BA","2","1","R.jpg","P.jpg","0","0","1","",""
"","feedback","","html-keyboard-response","505","717774","0.0-1.0-690.0-0.0","0","0","66645","","null","","","null","76","","","","","","","","","","","","","","","",""
"","ITI","","html-keyboard-response","506","718781","0.0-1.0-693.0","0","0","66645","","null","","","null","76","","","","","","","","","","","","","","","NaN",""
"","S1","","html-keyboard-response","507","719036","0.0-1.0-695.0","0","0","66645","","null","","","null","77","","","","","","","","","","","","","","","",""
"","ISI","","html-keyboard-response","508","721040","0.0-1.0-696.0","0","0","66645","","null","","","null","77","NaN","","","","","","","","","","","","","","",""
"","S2","","html-keyboard-response","509","721296","0.0-1.0-697.0","0","0","66645","","null","","","null","77","","NaN","","","","","","","","","","","","","",""
"","response","","html-keyboard-response","510","722242","0.0-1.0-698.0","0","0","66645","","942","","","75","77","","","2","77","training","adjacent","ED","5","4","L.jpg","M.jpg","1","0","0","",""
"","feedback","","html-keyboard-response","511","723248","0.0-1.0-699.0-0.0","0","0","66645","","null","","","null","77","","","","","","","","","","","","","","","",""
"","time_out","","html-keyboard-response","512","725254","0.0-1.0-701.0-0.0","0","0","66645","","null","","","null","77","","","","","","","","","","","","","","","",""
"","ITI","","html-keyboard-response","513","726259","0.0-1.0-702.0","0","0","66645","","null","","","null","77","","","","","","","","","","","","","","","NaN",""
"","S1","","html-keyboard-response","514","726514","0.0-1.0-704.0","0","0","66645","","null","","","null","78","","","","","","","","","","","","","","","",""
"","ISI","","html-keyboard-response","515","728519","0.0-1.0-705.0","0","0","66645","","null","","","null","78","NaN","","","","","","","","","","","","","","",""
"","S2","","html-keyboard-response","516","728776","0.0-1.0-706.0","0","0","66645","","null","","","null","78","","NaN","","","","","","","","","","","","","",""
"","response","","html-keyboard-response","517","729129","0.0-1.0-707.0","0","0","66645","","349","","","75","78","","","2","78","training","adjacent","DE","4","5","M.jpg","L.jpg","1","1","1","",""
"","feedback","","html-keyboard-response","518","730135","0.0-1.0-708.0-0.0","0","0","66645","","null","","","null","78","","","","","","","","","","","","","","","",""
"","ITI","","html-keyboard-response","519","731140","0.0-1.0-711.0","0","0","66645","","null","","","null","78","","","","","","","","","","","","","","","NaN",""
"","S1","","html-keyboard-response","520","731396","0.0-1.0-713.0","0","0","66645","","null","","","null","79","","","","","","","","","","","","","","","",""
"","ISI","","html-keyboard-response","521","733402","0.0-1.0-714.0","0","0","66645","","null","","","null","79","NaN","","","","","","","","","","","","","","",""
"","S2","","html-keyboard-response","522","733657","0.0-1.0-715.0","0","0","66645","","null","","","null","79","","NaN","","","","","","","","","","","","","",""
"","response","","html-keyboard-response","523","734338","0.0-1.0-716.0","0","0","66645","","676","","","68","79","","","2","79","training","adjacent","BA","2","1","R.jpg","P.jpg","0","0","1","",""
"","feedback","","html-keyboard-response","524","735343","0.0-1.0-717.0-0.0","0","0","66645","","null","","","null","79","","","","","","","","","","","","","","","",""
"","ITI","","html-keyboard-response","525","736349","0.0-1.0-720.0","0","0","66645","","null","","","null","79","","","","","","","","","","","","","","","NaN",""
"","S1","","html-keyboard-response","526","736604","0.0-1.0-722.0","0","0","66645","","null","","","null","80","","","","","","","","","","","","","","","",""
"","ISI","","html-keyboard-response","527","738608","0.0-1.0-723.0","0","0","66645","","null","","","null","80","NaN","","","","","","","","","","","","","","",""
"","S2","","html-keyboard-response","528","738864","0.0-1.0-724.0","0","0","66645","","null","","","null","80","","NaN","","","","","","","","","","","","","",""
"","response","","html-keyboard-response","529","739898","0.0-1.0-725.0","0","0","66645","","1030","","","68","80","","","2","80","training","adjacent","GF","7","6","O.jpg","Q.jpg","0","0","1","",""
"","feedback","","html-keyboard-response","530","740904","0.0-1.0-726.0-0.0","0","0","66645","","null","","","null","80","","","","","","","","","","","","","","","",""
"","ITI","","html-keyboard-response","531","741909","0.0-1.0-729.0","0","0","66645","","null","","","null","80","","","","","","","","","","","","","","","NaN",""
"","S1","","html-keyboard-response","532","742166","0.0-1.0-731.0","0","0","66645","","null","","","null","81","","","","","","","","","","","","","","","",""
"","ISI","","html-keyboard-response","533","744171","0.0-1.0-732.0","0","0","66645","","null","","","null","81","NaN","","","","","","","","","","","","","","",""
"","S2","","html-keyboard-response","534","744427","0.0-1.0-733.0","0","0","66645","","null","","","null","81","","NaN","","","","","","","","","","","","","",""
"","response","","html-keyboard-response","535","745186","0.0-1.0-734.0","0","0","66645","","755","","","75","81","","","2","81","training","adjacent","FG","6","7","Q.jpg","O.jpg","1","1","1","",""
"","feedback","","html-keyboard-response","536","746192","0.0-1.0-735.0-0.0","0","0","66645","","null","","","null","81","","","","","","","","","","","","","","","",""
"","ITI","","html-keyboard-response","537","747198","0.0-1.0-738.0","0","0","66645","","null","","","null","81","","","","","","","","","","","","","","","NaN",""
"","S1","","html-keyboard-response","538","747453","0.0-1.0-740.0","0","0","66645","","null","","","null","82","","","","","","","","","","","","","","","",""
"","ISI","","html-keyboard-response","539","749458","0.0-1.0-741.0","0","0","66645","","null","","","null","82","NaN","","","","","","","","","","","","","","",""
"","S2","","html-keyboard-response","540","749714","0.0-1.0-742.0","0","0","66645","","null","","","null","82","","NaN","","","","","","","","","","","","","",""
"","response","","html-keyboard-response","541","750450","0.0-1.0-743.0","0","0","66645","","731","","","68","82","","","2","82","training","adjacent","EF","5","6","L.jpg","Q.jpg","0","1","0","",""
"","feedback","","html-keyboard-response","542","751456","0.0-1.0-744.0-0.0","0","0","66645","","null","","","null","82","","","","","","","","","","","","","","","",""
"","time_out","","html-keyboard-response","543","753462","0.0-1.0-746.0-0.0","0","0","66645","","null","","","null","82","","","","","","","","","","","","","","","",""
"","ITI","","html-keyboard-response","544","754468","0.0-1.0-747.0","0","0","66645","","null","","","null","82","","","","","","","","","","","","","","","NaN",""
"","S1","","html-keyboard-response","545","754723","0.0-1.0-749.0","0","0","66645","","null","","","null","83","","","","","","","","","","","","","","","",""
"","ISI","","html-keyboard-response","546","756728","0.0-1.0-750.0","0","0","66645","","null","","","null","83","NaN","","","","","","","","","","","","","","",""
"","S2","","html-keyboard-response","547","756983","0.0-1.0-751.0","0","0","66645","","null","","","null","83","","NaN","","","","","","","","","","","","","",""
"","response","","html-keyboard-response","548","758098","0.0-1.0-752.0","0","0","66645","","1111","","","75","83","","","2","83","training","adjacent","GF","7","6","O.jpg","Q.jpg","1","0","0","",""
"","feedback","","html-keyboard-response","549","759105","0.0-1.0-753.0-0.0","0","0","66645","","null","","","null","83","","","","","","","","","","","","","","","",""
"","time_out","","html-keyboard-response","550","761110","0.0-1.0-755.0-0.0","0","0","66645","","null","","","null","83","","","","","","","","","","","","","","","",""
"","ITI","","html-keyboard-response","551","762115","0.0-1.0-756.0","0","0","66645","","null","","","null","83","","","","","","","","","","","","","","","NaN",""
"","S1","","html-keyboard-response","552","762371","0.0-1.0-758.0","0","0","66645","","null","","","null","84","","","","","","","","","","","","","","","",""
"","ISI","","html-keyboard-response","553","764376","0.0-1.0-759.0","0","0","66645","","null","","","null","84","NaN","","","","","","","","","","","","","","",""
"","S2","","html-keyboard-response","554","764632","0.0-1.0-760.0","0","0","66645","","null","","","null","84","","NaN","","","","","","","","","","","","","",""
"","response","","html-keyboard-response","555","765738","0.0-1.0-761.0","0","0","66645","","1101","","","68","84","","","2","84","training","adjacent","FG","6","7","Q.jpg","O.jpg","0","1","0","",""
"","feedback","","html-keyboard-response","556","766743","0.0-1.0-762.0-0.0","0","0","66645","","null","","","null","84","","","","","","","","","","","","","","","",""
"","time_out","","html-keyboard-response","557","768749","0.0-1.0-764.0-0.0","0","0","66645","","null","","","null","84","","","","","","","","","","","","","","","",""
"","ITI","","html-keyboard-response","558","769755","0.0-1.0-765.0","0","0","66645","","null","","","null","84","","","","","","","","","","","","","","","NaN",""
"","S1","","html-keyboard-response","559","770010","0.0-1.0-767.0","0","0","66645","","null","","","null","85","","","","","","","","","","","","","","","",""
"","ISI","","html-keyboard-response","560","772014","0.0-1.0-768.0","0","0","66645","","null","","","null","85","NaN","","","","","","","","","","","","","","",""
"","S2","","html-keyboard-response","561","772269","0.0-1.0-769.0","0","0","66645","","null","","","null","85","","NaN","","","","","","","","","","","","","",""
"","response","","html-keyboard-response","562","773234","0.0-1.0-770.0","0","0","66645","","961","","","68","85","","","2","85","training","adjacent","BA","2","1","R.jpg","P.jpg","0","0","1","",""
"","feedback","","html-keyboard-response","563","774240","0.0-1.0-771.0-0.0","0","0","66645","","null","","","null","85","","","","","","","","","","","","","","","",""
"","ITI","","html-keyboard-response","564","775257","0.0-1.0-774.0","0","0","66645","","null","","","null","85","","","","","","","","","","","","","","","NaN",""
"","S1","","html-keyboard-response","565","775513","0.0-1.0-776.0","0","0","66645","","null","","","null","86","","","","","","","","","","","","","","","",""
"","ISI","","html-keyboard-response","566","777518","0.0-1.0-777.0","0","0","66645","","null","","","null","86","NaN","","","","","","","","","","","","","","",""
"","S2","","html-keyboard-response","567","777774","0.0-1.0-778.0","0","0","66645","","null","","","null","86","","NaN","","","","","","","","","","","","","",""
"","response","","html-keyboard-response","568","779114","0.0-1.0-779.0","0","0","66645","","1335","","","75","86","","","2","86","training","adjacent","CD","3","4","N.jpg","M.jpg","1","1","1","",""
"","feedback","","html-keyboard-response","569","780120","0.0-1.0-780.0-0.0","0","0","66645","","null","","","null","86","","","","","","","","","","","","","","","",""
"","ITI","","html-keyboard-response","570","781125","0.0-1.0-783.0","0","0","66645","","null","","","null","86","","","","","","","","","","","","","","","NaN",""
"","S1","","html-keyboard-response","571","781382","0.0-1.0-785.0","0","0","66645","","null","","","null","87","","","","","","","","","","","","","","","",""
"","ISI","","html-keyboard-response","572","783387","0.0-1.0-786.0","0","0","66645","","null","","","null","87","NaN","","","","","","","","","","","","","","",""
"","S2","","html-keyboard-response","573","783643","0.0-1.0-787.0","0","0","66645","","null","","","null","87","","NaN","","","","","","","","","","","","","",""
"","response","","html-keyboard-response","574","784378","0.0-1.0-788.0","0","0","66645","","731","","","68","87","","","2","87","training","adjacent","CB","3","2","N.jpg","R.jpg","0","0","1","",""
"","feedback","","html-keyboard-response","575","785384","0.0-1.0-789.0-0.0","0","0","66645","","null","","","null","87","","","","","","","","","","","","","","","",""
"","ITI","","html-keyboard-response","576","786389","0.0-1.0-792.0","0","0","66645","","null","","","null","87","","","","","","","","","","","","","","","NaN",""
"","S1","","html-keyboard-response","577","786645","0.0-1.0-794.0","0","0","66645","","null","","","null","88","","","","","","","","","","","","","","","",""
"","ISI","","html-keyboard-response","578","788650","0.0-1.0-795.0","0","0","66645","","null","","","null","88","NaN","","","","","","","","","","","","","","",""
"","S2","","html-keyboard-response","579","788905","0.0-1.0-796.0","0","0","66645","","null","","","null","88","","NaN","","","","","","","","","","","","","",""
"","response","","html-keyboard-response","580","789545","0.0-1.0-797.0","0","0","66645","","636","","","75","88","","","2","88","training","adjacent","ED","5","4","L.jpg","M.jpg","1","0","0","",""
