"success","ttype","start_time","trial_type","trial_index","time_elapsed","internal_node_id","warning","missed_checkup","PID","view_history","rt","responses","repeat_instructions","key_press","index","keypress_isi","keypress_S2","block","trial_num","phase","group_type","pair_type","S1_stim","S2_stim","S1_img","S2_img","S1_chosen","S1_higher","accuracy","keypress_iti","total_bonus_tally"
"true","full_screen","d04142023hr0407","fullscreen","0","9873","0.0-0.0","0","0","91180","","","","","","","","","","","","","","","","","","","","","",""
"","instructions","","instructions","1","58440","0.0-1.0-0.0-0.0","0","0","91180","[{""page_index"":0,""viewing_time"":17647},{""page_index"":1,""viewing_time"":18432},{""page_index"":2,""viewing_time"":10066},{""page_index"":3,""viewing_time"":2420}]","48565","","","","","","","","","","","","","","","","","","","",""
"","comprehension_check","","survey-multi-choice","2","70803","0.0-1.0-0.0-1.0","0","0","91180","","12359","{""Q0"":""True"",""Q1"":""D"",""Q2"":""Only when the screen 'MAKE A CHOICE' is shown"",""Q3"":""Green mark"",""Q4"":""either D or K""}","1","","","","","","","","","","","","","","","","","",""
"","missed_instruction_checkup","","html-keyboard-response","3","73397","0.0-1.0-0.0-2.0-0.0","0","1","91180","","2590","","","32","","","","","","","","","","","","","","","","",""
"","instructions","","instructions","4","134560","0.0-1.0-0.1-0.1","0","0","91180","[{""page_index"":0,""viewing_time"":16375},{""page_index"":1,""viewing_time"":22742},{""page_index"":2,""viewing_time"":16622},{""page_index"":3,""viewing_time"":5422}]","61161","","","","","","","","","","","","","","","","","","","",""
"","comprehension_check","","survey-multi-choice","5","171731","0.0-1.0-0.1-1.1","0","0","91180","","37168","{""Q0"":""True"",""Q1"":""D"",""Q2"":""Once the second image appears and while the screen 'MAKE A CHOICE' is shown"",""Q3"":""Green mark"",""Q4"":""either D or K""}","0","","","","","","","","","","","","","","","","","",""
"","start_exp","","html-keyboard-response","6","193254","0.0-1.0-1.0","0","0","91180","","21519","","","32","","","","","","","","","","","","","","","","",""
"","S1","","html-keyboard-response","7","193510","0.0-1.0-2.0","0","0","91180","","null","","","null","0","","","","","","","","","","","","","","","",""
"","ISI","","html-keyboard-response","8","194514","0.0-1.0-3.0","0","0","91180","","772","","","68","0","d","","","","","","","","","","","","","","",""
"","S2","","html-keyboard-response","9","194769","0.0-1.0-4.0","0","0","91180","","null","","","null","0","","NaN","","","","","","","","","","","","","",""
"","response","","html-keyboard-response","10","195227","0.0-1.0-5.0-0.0","0","0","91180","","456","","","75","0","","","1","0","training","adjacent","EF","5","6","Q.jpg","M.jpg","0","1","0","",""
"","feedback","","html-keyboard-response","11","196233","0.0-1.0-6.0-0.0","0","0","91180","","null","","","null","0","","","","","","","","","","","","","","","",""
"","time_out","","html-keyboard-response","12","198236","0.0-1.0-8.0-0.0","0","0","91180","","null","","","null","0","","","","","","","","","","","","","","","",""
"","ITI","","html-keyboard-response","13","199240","0.0-1.0-9.0","0","0","91180","","null","","","null","0","","","","","","","","","","","","","","","NaN",""
"","S1","","html-keyboard-response","14","199494","0.0-1.0-11.0","0","0","91180","","null","","","null","1","","","","","","","","","","","","","","","",""
"","ISI","","html-keyboard-response","15","200498","0.0-1.0-12.0","0","0","91180","","null","","","null","1","NaN","","","","","","","","","","","","","","",""
"","S2","","html-keyboard-response","16","200753","0.0-1.0-13.0","0","0","91180","","null","","","null","1","","NaN","","","","","","","","","","","","","",""
"","response","","html-keyboard-response","17","201093","0.0-1.0-14.0-0.0","0","0","91180","","337","","","68","1","","","1","1","training","adjacent","FG","6","7","M.jpg","L.jpg","1","1","1","",""
"","feedback","","html-keyboard-response","18","202098","0.0-1.0-15.0-0.0","0","0","91180","","null","","","null","1","","","","","","","","","","","","","","","",""
"","ITI","","html-keyboard-response","19","203102","0.0-1.0-18.0","0","0","91180","","null","","","null","1","","","","","","","","","","","","","","","NaN",""
"","S1","","html-keyboard-response","20","203357","0.0-1.0-20.0","0","0","91180","","null","","","null","2","","","","","","","","","","","","","","","",""
"","ISI","","html-keyboard-response","21","204361","0.0-1.0-21.0","0","0","91180","","null","","","null","2","NaN","","","","","","","","","","","","","","",""
"","S2","","html-keyboard-response","22","204616","0.0-1.0-22.0","0","0","91180","","null","","","null","2","","NaN","","","","","","","","","","","","","",""
"","response","","html-keyboard-response","23","204947","0.0-1.0-23.0-0.0","0","0","91180","","329","","","75","2","","","1","2","training","adjacent","CB","3","2","R.jpg","N.jpg","0","0","1","",""
"","feedback","","html-keyboard-response","24","205966","0.0-1.0-24.0-0.0","0","0","91180","","null","","","null","2","","","","","","","","","","","","","","","",""
"","ITI","","html-keyboard-response","25","206969","0.0-1.0-27.0","0","0","91180","","null","","","null","2","","","","","","","","","","","","","","","NaN",""
"","S1","","html-keyboard-response","26","207223","0.0-1.0-29.0","0","0","91180","","null","","","null","3","","","","","","","","","","","","","","","",""
"","ISI","","html-keyboard-response","27","208239","0.0-1.0-30.0","0","0","91180","","null","","","null","3","NaN","","","","","","","","","","","","","","",""
"","S2","","html-keyboard-response","28","208491","0.0-1.0-31.0","0","0","91180","","null","","","null","3","","NaN","","","","","","","","","","","","","",""
"","response","","html-keyboard-response","29","209054","0.0-1.0-32.0-0.0","0","0","91180","","559","","","68","3","","","1","3","training","adjacent","BC","2","3","N.jpg","R.jpg","1","1","1","",""
"","feedback","","html-keyboard-response","30","210057","0.0-1.0-33.0-0.0","0","0","91180","","null","","","null","3","","","","","","","","","","","","","","","",""
"","ITI","","html-keyboard-response","31","211059","0.0-1.0-36.0","0","0","91180","","null","","","null","3","","","","","","","","","","","","","","","NaN",""
"","S1","","html-keyboard-response","32","211313","0.0-1.0-38.0","0","0","91180","","null","","","null","4","","","","","","","","","","","","","","","",""
"","ISI","","html-keyboard-response","33","212316","0.0-1.0-39.0","0","0","91180","","null","","","null","4","NaN","","","","","","","","","","","","","","",""
"","S2","","html-keyboard-response","34","212569","0.0-1.0-40.0","0","0","91180","","null","","","null","4","","NaN","","","","","","","","","","","","","",""
"","response","","html-keyboard-response","35","212885","0.0-1.0-41.0-0.0","0","0","91180","","313","","","75","4","","","1","4","training","adjacent","AB","1","2","P.jpg","N.jpg","0","1","0","",""
"","feedback","","html-keyboard-response","36","213889","0.0-1.0-42.0-0.0","0","0","91180","","null","","","null","4","","","","","","","","","","","","","","","",""
"","time_out","","html-keyboard-response","37","215891","0.0-1.0-44.0-0.0","0","0","91180","","null","","","null","4","","","","","","","","","","","","","","","",""
"","ITI","","html-keyboard-response","38","216895","0.0-1.0-45.0","0","0","91180","","null","","","null","4","","","","","","","","","","","","","","","NaN",""
"","S1","","html-keyboard-response","39","217147","0.0-1.0-47.0","0","0","91180","","null","","","null","5","","","","","","","","","","","","","","","",""
"","ISI","","html-keyboard-response","40","218151","0.0-1.0-48.0","0","0","91180","","null","","","null","5","NaN","","","","","","","","","","","","","","",""
"","S2","","html-keyboard-response","41","218406","0.0-1.0-49.0","0","0","91180","","null","","","null","5","","NaN","","","","","","","","","","","","","",""
"","response","","html-keyboard-response","42","219461","0.0-1.0-50.0-0.0","0","0","91180","","1052","","","68","5","","","1","5","training","adjacent","DC","4","3","O.jpg","R.jpg","1","0","0","",""
"","feedback","","html-keyboard-response","43","220466","0.0-1.0-51.0-0.0","0","0","91180","","null","","","null","5","","","","","","","","","","","","","","","",""
"","time_out","","html-keyboard-response","44","222470","0.0-1.0-53.0-0.0","0","0","91180","","null","","","null","5","","","","","","","","","","","","","","","",""
"","ITI","","html-keyboard-response","45","223473","0.0-1.0-54.0","0","0","91180","","null","","","null","5","","","","","","","","","","","","","","","NaN",""
"","S1","","html-keyboard-response","46","223729","0.0-1.0-56.0","0","0","91180","","null","","","null","6","","","","","","","","","","","","","","","",""
"","ISI","","html-keyboard-response","47","224739","0.0-1.0-57.0","0","0","91180","","null","","","null","6","NaN","","","","","","","","","","","","","","",""
"","S2","","html-keyboard-response","48","224994","0.0-1.0-58.0","0","0","91180","","null","","","null","6","","NaN","","","","","","","","","","","","","",""
"","response","","html-keyboard-response","49","225315","0.0-1.0-59.0-0.0","0","0","91180","","318","","","75","6","","","1","6","training","adjacent","DC","4","3","O.jpg","R.jpg","0","0","1","",""
"","feedback","","html-keyboard-response","50","226320","0.0-1.0-60.0-0.0","0","0","91180","","null","","","null","6","","","","","","","","","","","","","","","",""
"","ITI","","html-keyboard-response","51","227323","0.0-1.0-63.0","0","0","91180","","null","","","null","6","","","","","","","","","","","","","","","NaN",""
"","S1","","html-keyboard-response","52","227577","0.0-1.0-65.0","0","0","91180","","null","","","null","7","","","","","","","","","","","","","","","",""
"","ISI","","html-keyboard-response","53","228579","0.0-1.0-66.0","0","0","91180","","null","","","null","7","NaN","","","","","","","","","","","","","","",""
"","S2","","html-keyboard-response","54","228834","0.0-1.0-67.0","0","0","91180","","null","","","null","7","","NaN","","","","","","","","","","","","","",""
"","response","","html-keyboard-response","55","229011","0.0-1.0-68.0-0.0","0","0","91180","","175","","","75","7","","","1","7","training","adjacent","BC","2","3","N.jpg","R.jpg","0","1","0","",""
"","feedback","","html-keyboard-response","56","230014","0.0-1.0-69.0-0.0","0","0","91180","","null","","","null","7","","","","","","","","","","","","","","","",""
"","time_out","","html-keyboard-response","57","232016","0.0-1.0-71.0-0.0","0","0","91180","","null","","","null","7","","","","","","","","","","","","","","","",""
"","ITI","","html-keyboard-response","58","233019","0.0-1.0-72.0","0","0","91180","","null","","","null","7","","","","","","","","","","","","","","","NaN",""
"","S1","","html-keyboard-response","59","233273","0.0-1.0-74.0","0","0","91180","","null","","","null","8","","","","","","","","","","","","","","","",""
"","ISI","","html-keyboard-response","60","234276","0.0-1.0-75.0","0","0","91180","","null","","","null","8","NaN","","","","","","","","","","","","","","",""
"","S2","","html-keyboard-response","61","234531","0.0-1.0-76.0","0","0","91180","","null","","","null","8","","NaN","","","","","","","","","","","","","",""
"","response","","html-keyboard-response","62","235174","0.0-1.0-77.0-0.0","0","0","91180","","639","","","75","8","","","1","8","training","adjacent","AB","1","2","P.jpg","N.jpg","0","1","0","",""
"","feedback","","html-keyboard-response","63","236178","0.0-1.0-78.0-0.0","0","0","91180","","null","","","null","8","","","","","","","","","","","","","","","",""
"","time_out","","html-keyboard-response","64","238181","0.0-1.0-80.0-0.0","0","0","91180","","null","","","null","8","","","","","","","","","","","","","","","",""
"","ITI","","html-keyboard-response","65","239185","0.0-1.0-81.0","0","0","91180","","null","","","null","8","","","","","","","","","","","","","","","NaN",""
"","S1","","html-keyboard-response","66","239440","0.0-1.0-83.0","0","0","91180","","null","","","null","9","","","","","","","","","","","","","","","",""
"","ISI","","html-keyboard-response","67","240443","0.0-1.0-84.0","0","0","91180","","null","","","null","9","NaN","","","","","","","","","","","","","","",""
"","S2","","html-keyboard-response","68","240697","0.0-1.0-85.0","0","0","91180","","null","","","null","9","","NaN","","","","","","","","","","","","","",""
"","response","","html-keyboard-response","69","241380","0.0-1.0-86.0-0.0","0","0","91180","","680","","","68","9","","","1","9","training","adjacent","CD","3","4","R.jpg","O.jpg","1","1","1","",""
"","feedback","","html-keyboard-response","70","242385","0.0-1.0-87.0-0.0","0","0","91180","","null","","","null","9","","","","","","","","","","","","","","","",""
"","ITI","","html-keyboard-response","71","243388","0.0-1.0-90.0","0","0","91180","","null","","","null","9","","","","","","","","","","","","","","","NaN",""
"","S1","","html-keyboard-response","72","243642","0.0-1.0-92.0","0","0","91180","","null","","","null","10","","","","","","","","","","","","","","","",""
"","ISI","","html-keyboard-response","73","244646","0.0-1.0-93.0","0","0","91180","","null","","","null","10","NaN","","","","","","","","","","","","","","",""
"","S2","","html-keyboard-response","74","244898","0.0-1.0-94.0","0","0","91180","","null","","","null","10","","NaN","","","","","","","","","","","","","",""
"","response","","html-keyboard-response","75","245410","0.0-1.0-95.0-0.0","0","0","91180","","511","","","68","10","","","1","10","training","adjacent","BC","2","3","N.jpg","R.jpg","1","1","1","",""
"","feedback","","html-keyboard-response","76","246413","0.0-1.0-96.0-0.0","0","0","91180","","null","","","null","10","","","","","","","","","","","","","","","",""
"","ITI","","html-keyboard-response","77","247415","0.0-1.0-99.0","0","0","91180","","null","","","null","10","","","","","","","","","","","","","","","NaN",""
"","S1","","html-keyboard-response","78","247671","0.0-1.0-101.0","0","0","91180","","null","","","null","11","","","","","","","","","","","","","","","",""
"","ISI","","html-keyboard-response","79","248674","0.0-1.0-102.0","0","0","91180","","null","","","null","11","NaN","","","","","","","","","","","","","","",""
"","S2","","html-keyboard-response","80","248940","0.0-1.0-103.0","0","0","91180","","null","","","null","11","","NaN","","","","","","","","","","","","","",""
"","response","","html-keyboard-response","81","249725","0.0-1.0-104.0-0.0","0","0","91180","","781","","","68","11","","","1","11","training","adjacent","DE","4","5","O.jpg","Q.jpg","1","1","1","",""
"","feedback","","html-keyboard-response","82","250729","0.0-1.0-105.0-0.0","0","0","91180","","null","","","null","11","","","","","","","","","","","","","","","",""
"","ITI","","html-keyboard-response","83","251734","0.0-1.0-108.0","0","0","91180","","null","","","null","11","","","","","","","","","","","","","","","NaN",""
"","S1","","html-keyboard-response","84","251988","0.0-1.0-110.0","0","0","91180","","null","","","null","12","","","","","","","","","","","","","","","",""
"","ISI","","html-keyboard-response","85","252991","0.0-1.0-111.0","0","0","91180","","null","","","null","12","NaN","","","","","","","","","","","","","","",""
"","S2","","html-keyboard-response","86","253246","0.0-1.0-112.0","0","0","91180","","null","","","null","12","","NaN","","","","","","","","","","","","","",""
"","response","","html-keyboard-response","87","253540","0.0-1.0-113.0-0.0","0","0","91180","","291","","","75","12","","","1","12","training","adjacent","FG","6","7","M.jpg","L.jpg","0","1","0","",""
"","feedback","","html-keyboard-response","88","254543","0.0-1.0-114.0-0.0","0","0","91180","","null","","","null","12","","","","","","","","","","","","","","","",""
"","time_out","","html-keyboard-response","89","256546","0.0-1.0-116.0-0.0","0","0","91180","","null","","","null","12","","","","","","","","","","","","","","","",""
"","ITI","","html-keyboard-response","90","257554","0.0-1.0-117.0","0","0","91180","","null","","","null","12","","","","","","","","","","","","","","","NaN",""
"","S1","","html-keyboard-response","91","257808","0.0-1.0-119.0","0","0","91180","","null","","","null","13","","","","","","","","","","","","","","","",""
"","ISI","","html-keyboard-response","92","258810","0.0-1.0-120.0","0","0","91180","","123","","","68","13","d","","","","","","","","","","","","","","",""
"","S2","","html-keyboard-response","93","259064","0.0-1.0-121.0","0","0","91180","","null","","","null","13","","NaN","","","","","","","","","","","","","",""
"","response","","html-keyboard-response","94","259539","0.0-1.0-122.0-0.0","0","0","91180","","473","","","68","13","","","1","13","training","adjacent","DE","4","5","O.jpg","Q.jpg","1","1","1","",""
"","feedback","","html-keyboard-response","95","260544","0.0-1.0-123.0-0.0","0","0","91180","","null","","","null","13","","","","","","","","","","","","","","","",""
"","ITI","","html-keyboard-response","96","261549","0.0-1.0-126.0","0","0","91180","","null","","","null","13","","","","","","","","","","","","","","","NaN",""
"","S1","","html-keyboard-response","97","261802","0.0-1.0-128.0","0","0","91180","","null","","","null","14","","","","","","","","","","","","","","","",""
"","ISI","","html-keyboard-response","98","262804","0.0-1.0-129.0","0","0","91180","","null","","","null","14","NaN","","","","","","","","","","","","","","",""
"","S2","","html-keyboard-response","99","263057","0.0-1.0-130.0","0","0","91180","","null","","","null","14","","NaN","","","","","","","","","","","","","",""
"","response","","html-keyboard-response","100","263707","0.0-1.0-131.0-0.0","0","0","91180","","648","","","75","14","","","1","14","training","adjacent","GF","7","6","L.jpg","M.jpg","0","0","1","",""
"","feedback","","html-keyboard-response","101","264710","0.0-1.0-132.0-0.0","0","0","91180","","null","","","null","14","","","","","","","","","","","","","","","",""
"","ITI","","html-keyboard-response","102","265712","0.0-1.0-135.0","0","0","91180","","null","","","null","14","","","","","","","","","","","","","","","NaN",""
"","S1","","html-keyboard-response","103","265966","0.0-1.0-137.0","0","0","91180","","null","","","null","15","","","","","","","","","","","","","","","",""
"","ISI","","html-keyboard-response","104","266968","0.0-1.0-138.0","0","0","91180","","null","","","null","15","NaN","","","","","","","","","","","","","","",""
"","S2","","html-keyboard-response","105","267223","0.0-1.0-139.0","0","0","91180","","null","","","null","15","","NaN","","","","","","","","","","","","","",""
"","response","","html-keyboard-response","106","267619","0.0-1.0-140.0-0.0","0","0","91180","","393","","","68","15","","","1","15","training","adjacent","GF","7","6","L.jpg","M.jpg","1","0","0","",""
"","feedback","","html-keyboard-response","107","268623","0.0-1.0-141.0-0.0","0","0","91180","","null","","","null","15","","","","","","","","","","","","","","","",""
"","time_out","","html-keyboard-response","108","270625","0.0-1.0-143.0-0.0","0","0","91180","","null","","","null","15","","","","","","","","","","","","","","","",""
"","ITI","","html-keyboard-response","109","271630","0.0-1.0-144.0","0","0","91180","","null","","","null","15","","","","","","","","","","","","","","","NaN",""
"","S1","","html-keyboard-response","110","271882","0.0-1.0-146.0","0","0","91180","","null","","","null","16","","","","","","","","","","","","","","","",""
"","ISI","","html-keyboard-response","111","272887","0.0-1.0-147.0","0","0","91180","","null","","","null","16","NaN","","","","","","","","","","","","","","",""
"","S2","","html-keyboard-response","112","273140","0.0-1.0-148.0","0","0","91180","","null","","","null","16","","NaN","","","","","","","","","","","","","",""
"","response","","html-keyboard-response","113","273373","0.0-1.0-149.0-0.0","0","0","91180","","229","","","75","16","","","1","16","training","adjacent","AB","1","2","P.jpg","N.jpg","0","1","0","",""
"","feedback","","html-keyboard-response","114","274377","0.0-1.0-150.0-0.0","0","0","91180","","null","","","null","16","","","","","","","","","","","","","","","",""
"","time_out","","html-keyboard-response","115","276382","0.0-1.0-152.0-0.0","0","0","91180","","null","","","null","16","","","","","","","","","","","","","","","",""
"","ITI","","html-keyboard-response","116","277385","0.0-1.0-153.0","0","0","91180","","null","","","null","16","","","","","","","","","","","","","","","NaN",""
"","S1","","html-keyboard-response","117","277638","0.0-1.0-155.0","0","0","91180","","null","","","null","17","","","","","","","","","","","","","","","",""
"","ISI","","html-keyboard-response","118","278642","0.0-1.0-156.0","0","0","91180","","null","","","null","17","NaN","","","","","","","","","","","","","","",""
"","S2","","html-keyboard-response","119","278902","0.0-1.0-157.0","0","0","91180","","null","","","null","17","","NaN","","","","","","","","","","","","","",""
"","response","","html-keyboard-response","120","279474","0.0-1.0-158.0-0.0","0","0","91180","","570","","","68","17","","","1","17","training","adjacent","CB","3","2","R.jpg","N.jpg","1","0","0","",""
"","feedback","","html-keyboard-response","121","280477","0.0-1.0-159.0-0.0","0","0","91180","","null","","","null","17","","","","","","","","","","","","","","","",""
"","time_out","","html-keyboard-response","122","282481","0.0-1.0-161.0-0.0","0","0","91180","","null","","","null","17","","","","","","","","","","","","","","","",""
"","ITI","","html-keyboard-response","123","283485","0.0-1.0-162.0","0","0","91180","","null","","","null","17","","","","","","","","","","","","","","","NaN",""
"","S1","","html-keyboard-response","124","283738","0.0-1.0-164.0","0","0","91180","","null","","","null","18","","","","","","","","","","","","","","","",""
"","ISI","","html-keyboard-response","125","284742","0.0-1.0-165.0","0","0","91180","","385","","","75","18","k","","","","","","","","","","","","","","",""
"","S2","","html-keyboard-response","126","285006","0.0-1.0-166.0","0","0","91180","","null","","","null","18","","NaN","","","","","","","","","","","","","",""
"","response","","html-keyboard-response","127","285086","0.0-1.0-167.0-0.0","0","0","91180","","77","","","75","18","","","1","18","training","adjacent","ED","5","4","Q.jpg","O.jpg","0","0","1","",""
"","feedback","","html-keyboard-response","128","286090","0.0-1.0-168.0-0.0","0","0","91180","","null","","","null","18","","","","","","","","","","","","","","","",""
"","ITI","","html-keyboard-response","129","287095","0.0-1.0-171.0","0","0","91180","","null","","","null","18","","","","","","","","","","","","","","","NaN",""
"","S1","","html-keyboard-response","130","287349","0.0-1.0-173.0","0","0","91180","","null","","","null","19","","","","","","","","","","","","","","","",""
"","ISI","","html-keyboard-response","131","288354","0.0-1.0-174.0","0","0","91180","","null","","","null","19","NaN","","","","","","","","","","","","","","",""
"","S2","","html-keyboard-response","132","288608","0.0-1.0-175.0","0","0","91180","","null","","","null","19","","NaN","","","","","","","","","","","","","",""
"","response","","html-keyboard-response","133","289205","0.0-1.0-176.0-0.0","0","0","91180","","593","","","75","19","","","1","19","training","adjacent","AB","1","2","P.jpg","N.jpg","0","1","0","",""
"","feedback","","html-keyboard-response","134","290209","0.0-1.0-177.0-0.0","0","0","91180","","null","","","null","19","","","","","","","","","","","","","","","",""
"","time_out","","html-keyboard-response","135","292213","0.0-1.0-179.0-0.0","0","0","91180","","null","","","null","19","","","","","","","","","","","","","","","",""
"","ITI","","html-keyboard-response","136","293219","0.0-1.0-180.0","0","0","91180","","null","","","null","19","","","","","","","","","","","","","","","NaN",""
"","S1","","html-keyboard-response","137","293472","0.0-1.0-182.0","0","0","91180","","null","","","null","20","","","","","","","","","","","","","","","",""
"","ISI","","html-keyboard-response","138","294476","0.0-1.0-183.0","0","0","91180","","null","","","null","20","NaN","","","","","","","","","","","","","","",""
"","S2","","html-keyboard-response","139","294729","0.0-1.0-184.0","0","0","91180","","null","","","null","20","","NaN","","","","","","","","","","","","","",""
"","response","","html-keyboard-response","140","295053","0.0-1.0-185.0-0.0","0","0","91180","","320","","","68","20","","","1","20","training","adjacent","EF","5","6","Q.jpg","M.jpg","1","1","1","",""
"","feedback","","html-keyboard-response","141","296056","0.0-1.0-186.0-0.0","0","0","91180","","null","","","null","20","","","","","","","","","","","","","","","",""
"","ITI","","html-keyboard-response","142","297060","0.0-1.0-189.0","0","0","91180","","null","","","null","20","","","","","","","","","","","","","","","NaN",""
"","S1","","html-keyboard-response","143","297315","0.0-1.0-191.0","0","0","91180","","null","","","null","21","","","","","","","","","","","","","","","",""
"","ISI","","html-keyboard-response","144","298319","0.0-1.0-192.0","0","0","91180","","null","","","null","21","NaN","","","","","","","","","","","","","","",""
"","S2","","html-keyboard-response","145","298572","0.0-1.0-193.0","0","0","91180","","null","","","null","21","","NaN","","","","","","","","","","","","","",""
"","response","","html-keyboard-response","146","299138","0.0-1.0-194.0-0.0","0","0","91180","","565","","","68","21","","","1","21","training","adjacent","FE","6","5","M.jpg","Q.jpg","1","0","0","",""
"","feedback","","html-keyboard-response","147","300141","0.0-1.0-195.0-0.0","0","0","91180","","null","","","null","21","","","","","","","","","","","","","","","",""
"","time_out","","html-keyboard-response","148","302145","0.0-1.0-197.0-0.0","0","0","91180","","null","","","null","21","","","","","","","","","","","","","","","",""
"","ITI","","html-keyboard-response","149","303149","0.0-1.0-198.0","0","0","91180","","null","","","null","21","","","","","","","","","","","","","","","NaN",""
"","S1","","html-keyboard-response","150","303404","0.0-1.0-200.0","0","0","91180","","null","","","null","22","","","","","","","","","","","","","","","",""
"","ISI","","html-keyboard-response","151","304408","0.0-1.0-201.0","0","0","91180","","null","","","null","22","NaN","","","","","","","","","","","","","","",""
"","S2","","html-keyboard-response","152","304662","0.0-1.0-202.0","0","0","91180","","null","","","null","22","","NaN","","","","","","","","","","","","","",""
"","response","","html-keyboard-response","153","305557","0.0-1.0-203.0-0.0","0","0","91180","","892","","","75","22","","","1","22","training","adjacent","BA","2","1","N.jpg","P.jpg","0","0","1","",""
"","feedback","","html-keyboard-response","154","306562","0.0-1.0-204.0-0.0","0","0","91180","","null","","","null","22","","","","","","","","","","","","","","","",""
"","ITI","","html-keyboard-response","155","307567","0.0-1.0-207.0","0","0","91180","","null","","","null","22","","","","","","","","","","","","","","","NaN",""
"","S1","","html-keyboard-response","156","307821","0.0-1.0-209.0","0","0","91180","","null","","","null","23","","","","","","","","","","","","","","","",""
"","ISI","","html-keyboard-response","157","308826","0.0-1.0-210.0","0","0","91180","","null","","","null","23","NaN","","","","","","","","","","","","","","",""
"","S2","","html-keyboard-response","158","309081","0.0-1.0-211.0","0","0","91180","","null","","","null","23","","NaN","","","","","","","","","","","","","",""
"","response","","html-keyboard-response","159","309572","0.0-1.0-212.0-0.0","0","0","91180","","488","","","75","23","","","1","23","training","adjacent","CD","3","4","R.jpg","O.jpg","0","1","0","",""
"","feedback","","html-keyboard-response","160","310577","0.0-1.0-213.0-0.0","0","0","91180","","null","","","null","23","","","","","","","","","","","","","","","",""
"","time_out","","html-keyboard-response","161","312581","0.0-1.0-215.0-0.0","0","0","91180","","null","","","null","23","","","","","","","","","","","","","","","",""
"","ITI","","html-keyboard-response","162","313586","0.0-1.0-216.0","0","0","91180","","null","","","null","23","","","","","","","","","","","","","","","NaN",""
"","S1","","html-keyboard-response","163","313840","0.0-1.0-218.0","0","0","91180","","null","","","null","24","","","","","","","","","","","","","","","",""
"","ISI","","html-keyboard-response","164","314844","0.0-1.0-219.0","0","0","91180","","417","","","68","24","d","","","","","","","","","","","","","","",""
"","S2","","html-keyboard-response","165","315096","0.0-1.0-220.0","0","0","91180","","null","","","null","24","","NaN","","","","","","","","","","","","","",""
"","response","","html-keyboard-response","166","315138","0.0-1.0-221.0-0.0","0","0","91180","","41","","","68","24","","","1","24","training","adjacent","FG","6","7","M.jpg","L.jpg","1","1","1","",""
"","feedback","","html-keyboard-response","167","316140","0.0-1.0-222.0-0.0","0","0","91180","","null","","","null","24","","","","","","","","","","","","","","","",""
"","ITI","","html-keyboard-response","168","317142","0.0-1.0-225.0","0","0","91180","","null","","","null","24","","","","","","","","","","","","","","","NaN",""
"","S1","","html-keyboard-response","169","317394","0.0-1.0-227.0","0","0","91180","","null","","","null","25","","","","","","","","","","","","","","","",""
"","ISI","","html-keyboard-response","170","318397","0.0-1.0-228.0","0","0","91180","","null","","","null","25","NaN","","","","","","","","","","","","","","",""
"","S2","","html-keyboard-response","171","318650","0.0-1.0-229.0","0","0","91180","","null","","","null","25","","NaN","","","","","","","","","","","","","",""
"","response","","html-keyboard-response","172","319858","0.0-1.0-230.0-0.0","0","0","91180","","1207","","","75","25","","","1","25","training","adjacent","BA","2","1","N.jpg","P.jpg","0","0","1","",""
"","feedback","","html-keyboard-response","173","320861","0.0-1.0-231.0-0.0","0","0","91180","","null","","","null","25","","","","","","","","","","","","","","","",""
"","ITI","","html-keyboard-response","174","321864","0.0-1.0-234.0","0","0","91180","","null","","","null","25","","","","","","","","","","","","","","","NaN",""
"","S1","","html-keyboard-response","175","322117","0.0-1.0-236.0","0","0","91180","","null","","","null","26","","","","","","","","","","","","","","","",""
"","ISI","","html-keyboard-response","176","323120","0.0-1.0-237.0","0","0","91180","","null","","","null","26","NaN","","","","","","","","","","","","","","",""
"","S2","","html-keyboard-response","177","323373","0.0-1.0-238.0","0","0","91180","","null","","","null","26","","NaN","","","","","","","","","","","","","",""
"","response","","html-keyboard-response","178","323882","0.0-1.0-239.0-0.0","0","0","91180","","508","","","68","26","","","1","26","training","adjacent","ED","5","4","Q.jpg","O.jpg","1","0","0","",""
"","feedback","","html-keyboard-response","179","324885","0.0-1.0-240.0-0.0","0","0","91180","","null","","","null","26","","","","","","","","","","","","","","","",""
"","time_out","","html-keyboard-response","180","326888","0.0-1.0-242.0-0.0","0","0","91180","","null","","","null","26","","","","","","","","","","","","","","","",""
"","ITI","","html-keyboard-response","181","327892","0.0-1.0-243.0","0","0","91180","","null","","","null","26","","","","","","","","","","","","","","","NaN",""
"","S1","","html-keyboard-response","182","328146","0.0-1.0-245.0","0","0","91180","","null","","","null","27","","","","","","","","","","","","","","","",""
"","ISI","","html-keyboard-response","183","329151","0.0-1.0-246.0","0","0","91180","","null","","","null","27","NaN","","","","","","","","","","","","","","",""
"","S2","","html-keyboard-response","184","329406","0.0-1.0-247.0","0","0","91180","","null","","","null","27","","NaN","","","","","","","","","","","","","",""
"","response","","html-keyboard-response","185","329453","0.0-1.0-248.0-0.0","0","0","91180","","44","","","75","27","","","1","27","training","adjacent","GF","7","6","L.jpg","M.jpg","0","0","1","",""
"","feedback","","html-keyboard-response","186","330459","0.0-1.0-249.0-0.0","0","0","91180","","null","","","null","27","","","","","","","","","","","","","","","",""
"","ITI","","html-keyboard-response","187","331464","0.0-1.0-252.0","0","0","91180","","null","","","null","27","","","","","","","","","","","","","","","NaN",""
"","S1","","html-keyboard-response","188","331719","0.0-1.0-254.0","0","0","91180","","null","","","null","28","","","","","","","","","","","","","","","",""
"","ISI","","html-keyboard-response","189","332722","0.0-1.0-255.0","0","0","91180","","null","","","null","28","NaN","","","","","","","","","","","","","","",""
"","S2","","html-keyboard-response","190","332977","0.0-1.0-256.0","0","0","91180","","null","","","null","28","","NaN","","","","","","","","","","","","","",""
"","response","","html-keyboard-response","191","333586","0.0-1.0-257.0-0.0","0","0","91180","","607","","","68","28","","","1","28","training","adjacent","ED","5","4","Q.jpg","O.jpg","1","0","0","",""
"","feedback","","html-keyboard-response","192","334590","0.0-1.0-258.0-0.0","0","0","91180","","null","","","null","28","","","","","","","","","","","","","","","",""
"","time_out","","html-keyboard-response","193","336594","0.0-1.0-260.0-0.0","0","0","91180","","null","","","null","28","","","","","","","","","","","","","","","",""
"","ITI","","html-keyboard-response","194","337598","0.0-1.0-261.0","0","0","91180","","null","","","null","28","","","","","","","","","","","","","","","NaN",""
"","S1","","html-keyboard-response","195","337853","0.0-1.0-263.0","0","0","91180","","null","","","null","29","","","","","","","","","","","","","","","",""
"","ISI","","html-keyboard-response","196","338856","0.0-1.0-264.0","0","0","91180","","null","","","null","29","NaN","","","","","","","","","","","","","","",""
"","S2","","html-keyboard-response","197","339112","0.0-1.0-265.0","0","0","91180","","null","","","null","29","","NaN","","","","","","","","","","","","","",""
"","response","","html-keyboard-response","198","339197","0.0-1.0-266.0-0.0","0","0","91180","","82","","","75","29","","","1","29","training","adjacent","GF","7","6","L.jpg","M.jpg","0","0","1","",""
"","feedback","","html-keyboard-response","199","340210","0.0-1.0-267.0-0.0","0","0","91180","","null","","","null","29","","","","","","","","","","","","","","","",""
"","ITI","","html-keyboard-response","200","341213","0.0-1.0-270.0","0","0","91180","","null","","","null","29","","","","","","","","","","","","","","","NaN",""
"","S1","","html-keyboard-response","201","341471","0.0-1.0-272.0","0","0","91180","","null","","","null","30","","","","","","","","","","","","","","","",""
"","ISI","","html-keyboard-response","202","342474","0.0-1.0-273.0","0","0","91180","","null","","","null","30","NaN","","","","","","","","","","","","","","",""
"","S2","","html-keyboard-response","203","342731","0.0-1.0-274.0","0","0","91180","","null","","","null","30","","NaN","","","","","","","","","","","","","",""
"","response","","html-keyboard-response","204","343237","0.0-1.0-275.0-0.0","0","0","91180","","503","","","75","30","","","1","30","training","adjacent","EF","5","6","Q.jpg","M.jpg","0","1","0","",""
"","feedback","","html-keyboard-response","205","344242","0.0-1.0-276.0-0.0","0","0","91180","","null","","","null","30","","","","","","","","","","","","","","","",""
"","time_out","","html-keyboard-response","206","346247","0.0-1.0-278.0-0.0","0","0","91180","","null","","","null","30","","","","","","","","","","","","","","","",""
"","ITI","","html-keyboard-response","207","347251","0.0-1.0-279.0","0","0","91180","","null","","","null","30","","","","","","","","","","","","","","","NaN",""
"","S1","","html-keyboard-response","208","347506","0.0-1.0-281.0","0","0","91180","","null","","","null","31","","","","","","","","","","","","","","","",""
"","ISI","","html-keyboard-response","209","348514","0.0-1.0-282.0","0","0","91180","","null","","","null","31","NaN","","","","","","","","","","","","","","",""
"","S2","","html-keyboard-response","210","348770","0.0-1.0-283.0","0","0","91180","","null","","","null","31","","NaN","","","","","","","","","","","","","",""
"","response","","html-keyboard-response","211","348845","0.0-1.0-284.0-0.0","0","0","91180","","72","","","68","31","","","1","31","training","adjacent","DE","4","5","O.jpg","Q.jpg","1","1","1","",""
"","feedback","","html-keyboard-response","212","349850","0.0-1.0-285.0-0.0","0","0","91180","","null","","","null","31","","","","","","","","","","","","","","","",""
"","ITI","","html-keyboard-response","213","350855","0.0-1.0-288.0","0","0","91180","","null","","","null","31","","","","","","","","","","","","","","","NaN",""
"","S1","","html-keyboard-response","214","351110","0.0-1.0-290.0","0","0","91180","","null","","","null","32","","","","","","","","","","","","","","","",""
"","ISI","","html-keyboard-response","215","352114","0.0-1.0-291.0","0","0","91180","","null","","","null","32","NaN","","","","","","","","","","","","","","",""
"","S2","","html-keyboard-response","216","352370","0.0-1.0-292.0","0","0","91180","","null","","","null","32","","NaN","","","","","","","","","","","","","",""
"","response","","html-keyboard-response","217","352621","0.0-1.0-293.0-0.0","0","0","91180","","247","","","75","32","","","1","32","training","adjacent","DC","4","3","O.jpg","R.jpg","0","0","1","",""
"","feedback","","html-keyboard-response","218","353625","0.0-1.0-294.0-0.0","0","0","91180","","null","","","null","32","","","","","","","","","","","","","","","",""
"","ITI","","html-keyboard-response","219","354630","0.0-1.0-297.0","0","0","91180","","null","","","null","32","","","","","","","","","","","","","","","NaN",""
"","S1","","html-keyboard-response","220","354885","0.0-1.0-299.0","0","0","91180","","null","","","null","33","","","","","","","","","","","","","","","",""
"","ISI","","html-keyboard-response","221","355896","0.0-1.0-300.0","0","0","91180","","null","","","null","33","NaN","","","","","","","","","","","","","","",""
"","S2","","html-keyboard-response","222","356151","0.0-1.0-301.0","0","0","91180","","null","","","null","33","","NaN","","","","","","","","","","","","","",""
"","response","","html-keyboard-response","223","356246","0.0-1.0-302.0-0.0","0","0","91180","","91","","","68","33","","","1","33","training","adjacent","BC","2","3","N.jpg","R.jpg","1","1","1","",""
"","feedback","","html-keyboard-response","224","357251","0.0-1.0-303.0-0.0","0","0","91180","","null","","","null","33","","","","","","","","","","","","","","","",""
"","ITI","","html-keyboard-response","225","358255","0.0-1.0-306.0","0","0","91180","","null","","","null","33","","","","","","","","","","","","","","","NaN",""
"","S1","","html-keyboard-response","226","358511","0.0-1.0-308.0","0","0","91180","","null","","","null","34","","","","","","","","","","","","","","","",""
"","ISI","","html-keyboard-response","227","359515","0.0-1.0-309.0","0","0","91180","","null","","","null","34","NaN","","","","","","","","","","","","","","",""
"","S2","","html-keyboard-response","228","359770","0.0-1.0-310.0","0","0","91180","","null","","","null","34","","NaN","","","","","","","","","","","","","",""
"","response","","html-keyboard-response","229","359974","0.0-1.0-311.0-0.0","0","0","91180","","200","","","68","34","","","1","34","training","adjacent","FE","6","5","M.jpg","Q.jpg","1","0","0","",""
"","feedback","","html-keyboard-response","230","360979","0.0-1.0-312.0-0.0","0","0","91180","","null","","","null","34","","","","","","","","","","","","","","","",""
"","time_out","","html-keyboard-response","231","362984","0.0-1.0-314.0-0.0","0","0","91180","","null","","","null","34","","","","","","","","","","","","","","","",""
"","ITI","","html-keyboard-response","232","363988","0.0-1.0-315.0","0","0","91180","","null","","","null","34","","","","","","","","","","","","","","","NaN",""
"","S1","","html-keyboard-response","233","364243","0.0-1.0-317.0","0","0","91180","","null","","","null","35","","","","","","","","","","","","","","","",""
"","ISI","","html-keyboard-response","234","365247","0.0-1.0-318.0","0","0","91180","","null","","","null","35","NaN","","","","","","","","","","","","","","",""
"","S2","","html-keyboard-response","235","365502","0.0-1.0-319.0","0","0","91180","","null","","","null","35","","NaN","","","","","","","","","","","","","",""
"","response","","html-keyboard-response","236","365934","0.0-1.0-320.0-0.0","0","0","91180","","428","","","68","35","","","1","35","training","adjacent","BA","2","1","N.jpg","P.jpg","1","0","0","",""
"","feedback","","html-keyboard-response","237","366939","0.0-1.0-321.0-0.0","0","0","91180","","null","","","null","35","","","","","","","","","","","","","","","",""
"","time_out","","html-keyboard-response","238","368942","0.0-1.0-323.0-0.0","0","0","91180","","null","","","null","35","","","","","","","","","","","","","","","",""
"","ITI","","html-keyboard-response","239","369947","0.0-1.0-324.0","0","0","91180","","null","","","null","35","","","","","","","","","","","","","","","NaN",""
"","S1","","html-keyboard-response","240","370202","0.0-1.0-326.0","0","0","91180","","null","","","null","36","","","","","","","","","","","","","","","",""
"","ISI","","html-keyboard-response","241","371204","0.0-1.0-327.0","0","0","91180","","null","","","null","36","NaN","","","","","","","","","","","","","","",""
"","S2","","html-keyboard-response","242","371459","0.0-1.0-328.0","0","0","91180","","null","","","null","36","","NaN","","","","","","","","","","","","","",""
"","response","","html-keyboard-response","243","371669","0.0-1.0-329.0-0.0","0","0","91180","","207","","","68","36","","","1","36","training","adjacent","FE","6","5","M.jpg","Q.jpg","1","0","0","",""
"","feedback","","html-keyboard-response","244","372674","0.0-1.0-330.0-0.0","0","0","91180","","null","","","null","36","","","","","","","","","","","","","","","",""
"","time_out","","html-keyboard-response","245","374678","0.0-1.0-332.0-0.0","0","0","91180","","null","","","null","36","","","","","","","","","","","","","","","",""
"","ITI","","html-keyboard-response","246","375683","0.0-1.0-333.0","0","0","91180","","null","","","null","36","","","","","","","","","","","","","","","NaN",""
"","S1","","html-keyboard-response","247","375938","0.0-1.0-335.0","0","0","91180","","null","","","null","37","","","","","","","","","","","","","","","",""
"","ISI","","html-keyboard-response","248","376942","0.0-1.0-336.0","0","0","91180","","null","","","null","37","NaN","","","","","","","","","","","","","","",""
"","S2","","html-keyboard-response","249","377209","0.0-1.0-337.0","0","0","91180","","null","","","null","37","","NaN","","","","","","","","","","","","","",""
"","response","","html-keyboard-response","250","377269","0.0-1.0-338.0-0.0","0","0","91180","","57","","","75","37","","","1","37","training","adjacent","DE","4","5","O.jpg","Q.jpg","0","1","0","",""
"","feedback","","html-keyboard-response","251","378275","0.0-1.0-339.0-0.0","0","0","91180","","null","","","null","37","","","","","","","","","","","","","","","",""
"","time_out","","html-keyboard-response","252","380279","0.0-1.0-341.0-0.0","0","0","91180","","null","","","null","37","","","","","","","","","","","","","","","",""
"","ITI","","html-keyboard-response","253","381283","0.0-1.0-342.0","0","0","91180","","null","","","null","37","","","","","","","","","","","","","","","NaN",""
"","S1","","html-keyboard-response","254","381539","0.0-1.0-344.0","0","0","91180","","null","","","null","38","","","","","","","","","","","","","","","",""
"","ISI","","html-keyboard-response","255","382543","0.0-1.0-345.0","0","0","91180","","223","","","68","38","d","","","","","","","","","","","","","","",""
"","S2","","html-keyboard-response","256","382797","0.0-1.0-346.0","0","0","91180","","null","","","null","38","","NaN","","","","","","","","","","","","","",""
"","response","","html-keyboard-response","257","382845","0.0-1.0-347.0-0.0","0","0","91180","","45","","","68","38","","","1","38","training","adjacent","CD","3","4","R.jpg","O.jpg","1","1","1","",""
"","feedback","","html-keyboard-response","258","383851","0.0-1.0-348.0-0.0","0","0","91180","","null","","","null","38","","","","","","","","","","","","","","","",""
"","ITI","","html-keyboard-response","259","384856","0.0-1.0-351.0","0","0","91180","","null","","","null","38","","","","","","","","","","","","","","","NaN",""
"","S1","","html-keyboard-response","260","385111","0.0-1.0-353.0","0","0","91180","","null","","","null","39","","","","","","","","","","","","","","","",""
"","ISI","","html-keyboard-response","261","386115","0.0-1.0-354.0","0","0","91180","","null","","","null","39","NaN","","","","","","","","","","","","","","",""
"","S2","","html-keyboard-response","262","386371","0.0-1.0-355.0","0","0","91180","","null","","","null","39","","NaN","","","","","","","","","","","","","",""
"","response","","html-keyboard-response","263","387181","0.0-1.0-356.0-0.0","0","0","91180","","807","","","75","39","","","1","39","training","adjacent","BA","2","1","N.jpg","P.jpg","0","0","1","",""
"","feedback","","html-keyboard-response","264","388186","0.0-1.0-357.0-0.0","0","0","91180","","null","","","null","39","","","","","","","","","","","","","","","",""
"","ITI","","html-keyboard-response","265","389191","0.0-1.0-360.0","0","0","91180","","null","","","null","39","","","","","","","","","","","","","","","NaN",""
"","S1","","html-keyboard-response","266","389445","0.0-1.0-362.0","0","0","91180","","null","","","null","40","","","","","","","","","","","","","","","",""
"","ISI","","html-keyboard-response","267","390449","0.0-1.0-363.0","0","0","91180","","null","","","null","40","NaN","","","","","","","","","","","","","","",""
"","S2","","html-keyboard-response","268","390703","0.0-1.0-364.0","0","0","91180","","null","","","null","40","","NaN","","","","","","","","","","","","","",""
"","response","","html-keyboard-response","269","391173","0.0-1.0-365.0-0.0","0","0","91180","","467","","","68","40","","","1","40","training","adjacent","FG","6","7","M.jpg","L.jpg","1","1","1","",""
"","feedback","","html-keyboard-response","270","392179","0.0-1.0-366.0-0.0","0","0","91180","","null","","","null","40","","","","","","","","","","","","","","","",""
"","ITI","","html-keyboard-response","271","393185","0.0-1.0-369.0","0","0","91180","","null","","","null","40","","","","","","","","","","","","","","","NaN",""
"","S1","","html-keyboard-response","272","393440","0.0-1.0-371.0","0","0","91180","","null","","","null","41","","","","","","","","","","","","","","","",""
"","ISI","","html-keyboard-response","273","394445","0.0-1.0-372.0","0","0","91180","","null","","","null","41","NaN","","","","","","","","","","","","","","",""
"","S2","","html-keyboard-response","274","394700","0.0-1.0-373.0","0","0","91180","","null","","","null","41","","NaN","","","","","","","","","","","","","",""
"","response","","html-keyboard-response","275","395358","0.0-1.0-374.0-0.0","0","0","91180","","654","","","75","41","","","1","41","training","adjacent","FE","6","5","M.jpg","Q.jpg","0","0","1","",""
"","feedback","","html-keyboard-response","276","396362","0.0-1.0-375.0-0.0","0","0","91180","","null","","","null","41","","","","","","","","","","","","","","","",""
"","ITI","","html-keyboard-response","277","397366","0.0-1.0-378.0","0","0","91180","","null","","","null","41","","","","","","","","","","","","","","","NaN",""
"","S1","","html-keyboard-response","278","397621","0.0-1.0-380.0","0","0","91180","","null","","","null","42","","","","","","","","","","","","","","","",""
"","ISI","","html-keyboard-response","279","398626","0.0-1.0-381.0","0","0","91180","","null","","","null","42","NaN","","","","","","","","","","","","","","",""
"","S2","","html-keyboard-response","280","398880","0.0-1.0-382.0","0","0","91180","","null","","","null","42","","NaN","","","","","","","","","","","","","",""
"","response","","html-keyboard-response","281","399702","0.0-1.0-383.0-0.0","0","0","91180","","818","","","68","42","","","1","42","training","adjacent","CB","3","2","R.jpg","N.jpg","1","0","0","",""
"","feedback","","html-keyboard-response","282","400708","0.0-1.0-384.0-0.0","0","0","91180","","null","","","null","42","","","","","","","","","","","","","","","",""
"","time_out","","html-keyboard-response","283","402712","0.0-1.0-386.0-0.0","0","0","91180","","null","","","null","42","","","","","","","","","","","","","","","",""
"","ITI","","html-keyboard-response","284","403715","0.0-1.0-387.0","0","0","91180","","null","","","null","42","","","","","","","","","","","","","","","NaN",""
"","S1","","html-keyboard-response","285","403970","0.0-1.0-389.0","0","0","91180","","null","","","null","43","","","","","","","","","","","","","","","",""
"","ISI","","html-keyboard-response","286","404974","0.0-1.0-390.0","0","0","91180","","null","","","null","43","NaN","","","","","","","","","","","","","","",""
"","S2","","html-keyboard-response","287","405229","0.0-1.0-391.0","0","0","91180","","null","","","null","43","","NaN","","","","","","","","","","","","","",""
"","response","","html-keyboard-response","288","405735","0.0-1.0-392.0-0.0","0","0","91180","","503","","","68","43","","","1","43","training","adjacent","CB","3","2","R.jpg","N.jpg","1","0","0","",""
"","feedback","","html-keyboard-response","289","406741","0.0-1.0-393.0-0.0","0","0","91180","","null","","","null","43","","","","","","","","","","","","","","","",""
"","time_out","","html-keyboard-response","290","408745","0.0-1.0-395.0-0.0","0","0","91180","","null","","","null","43","","","","","","","","","","","","","","","",""
"","ITI","","html-keyboard-response","291","409750","0.0-1.0-396.0","0","0","91180","","null","","","null","43","","","","","","","","","","","","","","","NaN",""
"","S1","","html-keyboard-response","292","410005","0.0-1.0-398.0","0","0","91180","","null","","","null","44","","","","","","","","","","","","","","","",""
"","ISI","","html-keyboard-response","293","411009","0.0-1.0-399.0","0","0","91180","","null","","","null","44","NaN","","","","","","","","","","","","","","",""
"","S2","","html-keyboard-response","294","411265","0.0-1.0-400.0","0","0","91180","","null","","","null","44","","NaN","","","","","","","","","","","","","",""
"","response","","html-keyboard-response","295","411630","0.0-1.0-401.0-0.0","0","0","91180","","361","","","75","44","","","1","44","training","adjacent","EF","5","6","Q.jpg","M.jpg","0","1","0","",""
"","feedback","","html-keyboard-response","296","412635","0.0-1.0-402.0-0.0","0","0","91180","","null","","","null","44","","","","","","","","","","","","","","","",""
"","time_out","","html-keyboard-response","297","414639","0.0-1.0-404.0-0.0","0","0","91180","","null","","","null","44","","","","","","","","","","","","","","","",""
"","ITI","","html-keyboard-response","298","415644","0.0-1.0-405.0","0","0","91180","","null","","","null","44","","","","","","","","","","","","","","","NaN",""
"","S1","","html-keyboard-response","299","415898","0.0-1.0-407.0","0","0","91180","","null","","","null","45","","","","","","","","","","","","","","","",""
"","ISI","","html-keyboard-response","300","416902","0.0-1.0-408.0","0","0","91180","","null","","","null","45","NaN","","","","","","","","","","","","","","",""
"","S2","","html-keyboard-response","301","417157","0.0-1.0-409.0","0","0","91180","","null","","","null","45","","NaN","","","","","","","","","","","","","",""
"","response","","html-keyboard-response","302","417590","0.0-1.0-410.0-0.0","0","0","91180","","430","","","68","45","","","1","45","training","adjacent","DC","4","3","O.jpg","R.jpg","1","0","0","",""
"","feedback","","html-keyboard-response","303","418594","0.0-1.0-411.0-0.0","0","0","91180","","null","","","null","45","","","","","","","","","","","","","","","",""
"","time_out","","html-keyboard-response","304","420599","0.0-1.0-413.0-0.0","0","0","91180","","null","","","null","45","","","","","","","","","","","","","","","",""
"","ITI","","html-keyboard-response","305","421601","0.0-1.0-414.0","0","0","91180","","null","","","null","45","","","","","","","","","","","","","","","NaN",""
"","S1","","html-keyboard-response","306","421855","0.0-1.0-416.0","0","0","91180","","null","","","null","46","","","","","","","","","","","","","","","",""
"","ISI","","html-keyboard-response","307","422859","0.0-1.0-417.0","0","0","91180","","null","","","null","46","NaN","","","","","","","","","","","","","","",""
"","S2","","html-keyboard-response","308","423114","0.0-1.0-418.0","0","0","91180","","null","","","null","46","","NaN","","","","","","","","","","","","","",""
"","response","","html-keyboard-response","309","423334","0.0-1.0-419.0-0.0","0","0","91180","","216","","","68","46","","","1","46","training","adjacent","ED","5","4","Q.jpg","O.jpg","1","0","0","",""
"","feedback","","html-keyboard-response","310","424340","0.0-1.0-420.0-0.0","0","0","91180","","null","","","null","46","","","","","","","","","","","","","","","",""
"","time_out","","html-keyboard-response","311","426343","0.0-1.0-422.0-0.0","0","0","91180","","null","","","null","46","","","","","","","","","","","","","","","",""
"","ITI","","html-keyboard-response","312","427348","0.0-1.0-423.0","0","0","91180","","null","","","null","46","","","","","","","","","","","","","","","NaN",""
"","S1","","html-keyboard-response","313","427603","0.0-1.0-425.0","0","0","91180","","null","","","null","47","","","","","","","","","","","","","","","",""
"","ISI","","html-keyboard-response","314","428607","0.0-1.0-426.0","0","0","91180","","null","","","null","47","NaN","","","","","","","","","","","","","","",""
"","S2","","html-keyboard-response","315","428862","0.0-1.0-427.0","0","0","91180","","null","","","null","47","","NaN","","","","","","","","","","","","","",""
"","response","","html-keyboard-response","316","429182","0.0-1.0-428.0-0.0","0","0","91180","","316","","","75","47","","","1","47","training","adjacent","CD","3","4","R.jpg","O.jpg","0","1","0","",""
"","feedback","","html-keyboard-response","317","430185","0.0-1.0-429.0-0.0","0","0","91180","","null","","","null","47","","","","","","","","","","","","","","","",""
"","time_out","","html-keyboard-response","318","432191","0.0-1.0-431.0-0.0","0","0","91180","","null","","","null","47","","","","","","","","","","","","","","","",""
"","ITI","","html-keyboard-response","319","433195","0.0-1.0-432.0","0","0","91180","","null","","","null","47","","","","","","","","","","","","","","","NaN",""
"","block_over","","html-keyboard-response","320","445438","0.0-1.0-433.0-0.0","0","0","91180","","12239","","","32","47","","","","","","","","","","","","","","","",""
"","S1","","html-keyboard-response","321","445699","0.0-1.0-434.0","0","0","91180","","null","","","null","48","","","","","","","","","","","","","","","",""
"","ISI","","html-keyboard-response","322","446703","0.0-1.0-435.0","0","0","91180","","null","","","null","48","NaN","","","","","","","","","","","","","","",""
"","S2","","html-keyboard-response","323","446961","0.0-1.0-436.0","0","0","91180","","null","","","null","48","","NaN","","","","","","","","","","","","","",""
"","response","","html-keyboard-response","324","447854","0.0-1.0-437.0-0.0","0","0","91180","","888","","","68","48","","","2","48","training","adjacent","BC","2","3","N.jpg","R.jpg","1","1","1","",""
"","feedback","","html-keyboard-response","325","448859","0.0-1.0-438.0-0.0","0","0","91180","","null","","","null","48","","","","","","","","","","","","","","","",""
"","ITI","","html-keyboard-response","326","449863","0.0-1.0-441.0","0","0","91180","","null","","","null","48","","","","","","","","","","","","","","","NaN",""
"","S1","","html-keyboard-response","327","450118","0.0-1.0-443.0","0","0","91180","","null","","","null","49","","","","","","","","","","","","","","","",""
"","ISI","","html-keyboard-response","328","451122","0.0-1.0-444.0","0","0","91180","","null","","","null","49","NaN","","","","","","","","","","","","","","",""
"","S2","","html-keyboard-response","329","451387","0.0-1.0-445.0","0","0","91180","","null","","","null","49","","NaN","","","","","","","","","","","","","",""
"","response","","html-keyboard-response","330","451869","0.0-1.0-446.0-0.0","0","0","91180","","479","","","75","49","","","2","49","training","adjacent","BA","2","1","N.jpg","P.jpg","0","0","1","",""
"","feedback","","html-keyboard-response","331","452874","0.0-1.0-447.0-0.0","0","0","91180","","null","","","null","49","","","","","","","","","","","","","","","",""
"","ITI","","html-keyboard-response","332","453879","0.0-1.0-450.0","0","0","91180","","null","","","null","49","","","","","","","","","","","","","","","NaN",""
"","S1","","html-keyboard-response","333","454134","0.0-1.0-452.0","0","0","91180","","null","","","null","50","","","","","","","","","","","","","","","",""
"","ISI","","html-keyboard-response","334","455139","0.0-1.0-453.0","0","0","91180","","null","","","null","50","NaN","","","","","","","","","","","","","","",""
"","S2","","html-keyboard-response","335","455394","0.0-1.0-454.0","0","0","91180","","null","","","null","50","","NaN","","","","","","","","","","","","","",""
"","response","","html-keyboard-response","336","455758","0.0-1.0-455.0-0.0","0","0","91180","","360","","","68","50","","","2","50","training","adjacent","DC","4","3","O.jpg","R.jpg","1","0","0","",""
"","feedback","","html-keyboard-response","337","456763","0.0-1.0-456.0-0.0","0","0","91180","","null","","","null","50","","","","","","","","","","","","","","","",""
"","time_out","","html-keyboard-response","338","458768","0.0-1.0-458.0-0.0","0","0","91180","","null","","","null","50","","","","","","","","","","","","","","","",""
"","ITI","","html-keyboard-response","339","459771","0.0-1.0-459.0","0","0","91180","","null","","","null","50","","","","","","","","","","","","","","","NaN",""
"","S1","","html-keyboard-response","340","460026","0.0-1.0-461.0","0","0","91180","","null","","","null","51","","","","","","","","","","","","","","","",""
"","ISI","","html-keyboard-response","341","461043","0.0-1.0-462.0","0","0","91180","","null","","","null","51","NaN","","","","","","","","","","","","","","",""
"","S2","","html-keyboard-response","342","461299","0.0-1.0-463.0","0","0","91180","","null","","","null","51","","NaN","","","","","","","","","","","","","",""
"","response","","html-keyboard-response","343","462069","0.0-1.0-464.0-0.0","0","0","91180","","766","","","68","51","","","2","51","training","adjacent","AB","1","2","P.jpg","N.jpg","1","1","1","",""
"","feedback","","html-keyboard-response","344","463074","0.0-1.0-465.0-0.0","0","0","91180","","null","","","null","51","","","","","","","","","","","","","","","",""
"","ITI","","html-keyboard-response","345","464078","0.0-1.0-468.0","0","0","91180","","null","","","null","51","","","","","","","","","","","","","","","NaN",""
"","S1","","html-keyboard-response","346","464331","0.0-1.0-470.0","0","0","91180","","null","","","null","52","","","","","","","","","","","","","","","",""
"","ISI","","html-keyboard-response","347","465333","0.0-1.0-471.0","0","0","91180","","null","","","null","52","NaN","","","","","","","","","","","","","","",""
"","S2","","html-keyboard-response","348","465587","0.0-1.0-472.0","0","0","91180","","null","","","null","52","","NaN","","","","","","","","","","","","","",""
"","response","","html-keyboard-response","349","465981","0.0-1.0-473.0-0.0","0","0","91180","","391","","","75","52","","","2","52","training","adjacent","CD","3","4","R.jpg","O.jpg","0","1","0","",""
"","feedback","","html-keyboard-response","350","466986","0.0-1.0-474.0-0.0","0","0","91180","","null","","","null","52","","","","","","","","","","","","","","","",""
"","time_out","","html-keyboard-response","351","468990","0.0-1.0-476.0-0.0","0","0","91180","","null","","","null","52","","","","","","","","","","","","","","","",""
"","ITI","","html-keyboard-response","352","469995","0.0-1.0-477.0","0","0","91180","","null","","","null","52","","","","","","","","","","","","","","","NaN",""
"","S1","","html-keyboard-response","353","470249","0.0-1.0-479.0","0","0","91180","","null","","","null","53","","","","","","","","","","","","","","","",""
"","ISI","","html-keyboard-response","354","471253","0.0-1.0-480.0","0","0","91180","","null","","","null","53","NaN","","","","","","","","","","","","","","",""
"","S2","","html-keyboard-response","355","471507","0.0-1.0-481.0","0","0","91180","","null","","","null","53","","NaN","","","","","","","","","","","","","",""
"","response","","html-keyboard-response","356","471629","0.0-1.0-482.0-0.0","0","0","91180","","118","","","68","53","","","2","53","training","adjacent","DC","4","3","O.jpg","R.jpg","1","0","0","",""
"","feedback","","html-keyboard-response","357","472634","0.0-1.0-483.0-0.0","0","0","91180","","null","","","null","53","","","","","","","","","","","","","","","",""
"","time_out","","html-keyboard-response","358","474639","0.0-1.0-485.0-0.0","0","0","91180","","null","","","null","53","","","","","","","","","","","","","","","",""
"","ITI","","html-keyboard-response","359","475643","0.0-1.0-486.0","0","0","91180","","null","","","null","53","","","","","","","","","","","","","","","NaN",""
"","S1","","html-keyboard-response","360","475901","0.0-1.0-488.0","0","0","91180","","null","","","null","54","","","","","","","","","","","","","","","",""
"","ISI","","html-keyboard-response","361","476905","0.0-1.0-489.0","0","0","91180","","null","","","null","54","NaN","","","","","","","","","","","","","","",""
"","S2","","html-keyboard-response","362","477160","0.0-1.0-490.0","0","0","91180","","null","","","null","54","","NaN","","","","","","","","","","","","","",""
"","response","","html-keyboard-response","363","477694","0.0-1.0-491.0-0.0","0","0","91180","","530","","","68","54","","","2","54","training","adjacent","BA","2","1","N.jpg","P.jpg","1","0","0","",""
"","feedback","","html-keyboard-response","364","478699","0.0-1.0-492.0-0.0","0","0","91180","","null","","","null","54","","","","","","","","","","","","","","","",""
"","time_out","","html-keyboard-response","365","480703","0.0-1.0-494.0-0.0","0","0","91180","","null","","","null","54","","","","","","","","","","","","","","","",""
"","ITI","","html-keyboard-response","366","481707","0.0-1.0-495.0","0","0","91180","","null","","","null","54","","","","","","","","","","","","","","","NaN",""
"","S1","","html-keyboard-response","367","481963","0.0-1.0-497.0","0","0","91180","","null","","","null","55","","","","","","","","","","","","","","","",""
"","ISI","","html-keyboard-response","368","482967","0.0-1.0-498.0","0","0","91180","","null","","","null","55","NaN","","","","","","","","","","","","","","",""
"","S2","","html-keyboard-response","369","483221","0.0-1.0-499.0","0","0","91180","","null","","","null","55","","NaN","","","","","","","","","","","","","",""
"","response","","html-keyboard-response","370","483325","0.0-1.0-500.0-0.0","0","0","91180","","100","","","68","55","","","2","55","training","adjacent","FG","6","7","M.jpg","L.jpg","1","1","1","",""
"","feedback","","html-keyboard-response","371","484331","0.0-1.0-501.0-0.0","0","0","91180","","null","","","null","55","","","","","","","","","","","","","","","",""
"","ITI","","html-keyboard-response","372","485336","0.0-1.0-504.0","0","0","91180","","null","","","null","55","","","","","","","","","","","","","","","NaN",""
"","S1","","html-keyboard-response","373","485591","0.0-1.0-506.0","0","0","91180","","null","","","null","56","","","","","","","","","","","","","","","",""
"","ISI","","html-keyboard-response","374","486595","0.0-1.0-507.0","0","0","91180","","null","","","null","56","NaN","","","","","","","","","","","","","","",""
"","S2","","html-keyboard-response","375","486850","0.0-1.0-508.0","0","0","91180","","null","","","null","56","","NaN","","","","","","","","","","","","","",""
"","response","","html-keyboard-response","376","487045","0.0-1.0-509.0-0.0","0","0","91180","","191","","","75","56","","","2","56","training","adjacent","EF","5","6","Q.jpg","M.jpg","0","1","0","",""
"","feedback","","html-keyboard-response","377","488050","0.0-1.0-510.0-0.0","0","0","91180","","null","","","null","56","","","","","","","","","","","","","","","",""
"","time_out","","html-keyboard-response","378","490054","0.0-1.0-512.0-0.0","0","0","91180","","null","","","null","56","","","","","","","","","","","","","","","",""
"","ITI","","html-keyboard-response","379","491059","0.0-1.0-513.0","0","0","91180","","null","","","null","56","","","","","","","","","","","","","","","NaN",""
"","S1","","html-keyboard-response","380","491314","0.0-1.0-515.0","0","0","91180","","null","","","null","57","","","","","","","","","","","","","","","",""
"","ISI","","html-keyboard-response","381","492318","0.0-1.0-516.0","0","0","91180","","848","","","68","57","d","","","","","","","","","","","","","","",""
"","S2","","html-keyboard-response","382","492574","0.0-1.0-517.0","0","0","91180","","null","","","null","57","","NaN","","","","","","","","","","","","","",""
"","response","","html-keyboard-response","383","492941","0.0-1.0-518.0-0.0","0","0","91180","","363","","","68","57","","","2","57","training","adjacent","AB","1","2","P.jpg","N.jpg","1","1","1","",""
"","feedback","","html-keyboard-response","384","493946","0.0-1.0-519.0-0.0","0","0","91180","","null","","","null","57","","","","","","","","","","","","","","","",""
"","ITI","","html-keyboard-response","385","494952","0.0-1.0-522.0","0","0","91180","","null","","","null","57","","","","","","","","","","","","","","","NaN",""
"","S1","","html-keyboard-response","386","495208","0.0-1.0-524.0","0","0","91180","","null","","","null","58","","","","","","","","","","","","","","","",""
"","ISI","","html-keyboard-response","387","496213","0.0-1.0-525.0","0","0","91180","","null","","","null","58","NaN","","","","","","","","","","","","","","",""
"","S2","","html-keyboard-response","388","496468","0.0-1.0-526.0","0","0","91180","","null","","","null","58","","NaN","","","","","","","","","","","","","",""
"","response","","html-keyboard-response","389","496853","0.0-1.0-527.0-0.0","0","0","91180","","381","","","68","58","","","2","58","training","adjacent","BC","2","3","N.jpg","R.jpg","1","1","1","",""
"","feedback","","html-keyboard-response","390","497857","0.0-1.0-528.0-0.0","0","0","91180","","null","","","null","58","","","","","","","","","","","","","","","",""
"","ITI","","html-keyboard-response","391","498860","0.0-1.0-531.0","0","0","91180","","null","","","null","58","","","","","","","","","","","","","","","NaN",""
"","S1","","html-keyboard-response","392","499114","0.0-1.0-533.0","0","0","91180","","null","","","null","59","","","","","","","","","","","","","","","",""
"","ISI","","html-keyboard-response","393","500118","0.0-1.0-534.0","0","0","91180","","null","","","null","59","NaN","","","","","","","","","","","","","","",""
"","S2","","html-keyboard-response","394","500373","0.0-1.0-535.0","0","0","91180","","null","","","null","59","","NaN","","","","","","","","","","","","","",""
"","response","","html-keyboard-response","395","500829","0.0-1.0-536.0-0.0","0","0","91180","","452","","","75","59","","","2","59","training","adjacent","EF","5","6","Q.jpg","M.jpg","0","1","0","",""
"","feedback","","html-keyboard-response","396","501834","0.0-1.0-537.0-0.0","0","0","91180","","null","","","null","59","","","","","","","","","","","","","","","",""
"","time_out","","html-keyboard-response","397","503839","0.0-1.0-539.0-0.0","0","0","91180","","null","","","null","59","","","","","","","","","","","","","","","",""
"","ITI","","html-keyboard-response","398","504844","0.0-1.0-540.0","0","0","91180","","null","","","null","59","","","","","","","","","","","","","","","NaN",""
"","S1","","html-keyboard-response","399","505098","0.0-1.0-542.0","0","0","91180","","null","","","null","60","","","","","","","","","","","","","","","",""
"","ISI","","html-keyboard-response","400","506102","0.0-1.0-543.0","0","0","91180","","376","","","68","60","d","","","","","","","","","","","","","","",""
"","S2","","html-keyboard-response","401","506357","0.0-1.0-544.0","0","0","91180","","null","","","null","60","","NaN","","","","","","","","","","","","","",""
"","response","","html-keyboard-response","402","506541","0.0-1.0-545.0-0.0","0","0","91180","","180","","","68","60","","","2","60","training","adjacent","CD","3","4","R.jpg","O.jpg","1","1","1","",""
"","feedback","","html-keyboard-response","403","507547","0.0-1.0-546.0-0.0","0","0","91180","","null","","","null","60","","","","","","","","","","","","","","","",""
"","ITI","","html-keyboard-response","404","508553","0.0-1.0-549.0","0","0","91180","","null","","","null","60","","","","","","","","","","","","","","","NaN",""
"","S1","","html-keyboard-response","405","508812","0.0-1.0-551.0","0","0","91180","","null","","","null","61","","","","","","","","","","","","","","","",""
"","ISI","","html-keyboard-response","406","509816","0.0-1.0-552.0","0","0","91180","","null","","","null","61","NaN","","","","","","","","","","","","","","",""
"","S2","","html-keyboard-response","407","510071","0.0-1.0-553.0","0","0","91180","","null","","","null","61","","NaN","","","","","","","","","","","","","",""
"","response","","html-keyboard-response","408","511629","0.0-1.0-554.0-0.0","0","0","91180","","1554","","","75","61","","","2","61","training","adjacent","EF","5","6","Q.jpg","M.jpg","0","1","0","",""
"","feedback","","html-keyboard-response","409","512635","0.0-1.0-555.0-0.0","0","0","91180","","null","","","null","61","","","","","","","","","","","","","","","",""
"","time_out","","html-keyboard-response","410","514639","0.0-1.0-557.0-0.0","0","0","91180","","null","","","null","61","","","","","","","","","","","","","","","",""
"","ITI","","html-keyboard-response","411","515643","0.0-1.0-558.0","0","0","91180","","null","","","null","61","","","","","","","","","","","","","","","NaN",""
"","S1","","html-keyboard-response","412","515897","0.0-1.0-560.0","0","0","91180","","null","","","null","62","","","","","","","","","","","","","","","",""
"","ISI","","html-keyboard-response","413","516901","0.0-1.0-561.0","0","0","91180","","null","","","null","62","NaN","","","","","","","","","","","","","","",""
"","S2","","html-keyboard-response","414","517156","0.0-1.0-562.0","0","0","91180","","null","","","null","62","","NaN","","","","","","","","","","","","","",""
"","response","","html-keyboard-response","415","518557","0.0-1.0-563.0-0.0","0","0","91180","","1398","","","68","62","","","2","62","training","adjacent","AB","1","2","P.jpg","N.jpg","1","1","1","",""
"","feedback","","html-keyboard-response","416","519563","0.0-1.0-564.0-0.0","0","0","91180","","null","","","null","62","","","","","","","","","","","","","","","",""
"","ITI","","html-keyboard-response","417","520567","0.0-1.0-567.0","0","0","91180","","null","","","null","62","","","","","","","","","","","","","","","NaN",""
"","S1","","html-keyboard-response","418","520822","0.0-1.0-569.0","0","0","91180","","null","","","null","63","","","","","","","","","","","","","","","",""
"","ISI","","html-keyboard-response","419","521826","0.0-1.0-570.0","0","0","91180","","null","","","null","63","NaN","","","","","","","","","","","","","","",""
"","S2","","html-keyboard-response","420","522081","0.0-1.0-571.0","0","0","91180","","null","","","null","63","","NaN","","","","","","","","","","","","","",""
"","response","","html-keyboard-response","421","522421","0.0-1.0-572.0-0.0","0","0","91180","","337","","","75","63","","","2","63","training","adjacent","AB","1","2","P.jpg","N.jpg","0","1","0","",""
"","feedback","","html-keyboard-response","422","523426","0.0-1.0-573.0-0.0","0","0","91180","","null","","","null","63","","","","","","","","","","","","","","","",""
"","time_out","","html-keyboard-response","423","525430","0.0-1.0-575.0-0.0","0","0","91180","","null","","","null","63","","","","","","","","","","","","","","","",""
"","ITI","","html-keyboard-response","424","526434","0.0-1.0-576.0","0","0","91180","","null","","","null","63","","","","","","","","","","","","","","","NaN",""
"","S1","","html-keyboard-response","425","526689","0.0-1.0-578.0","0","0","91180","","null","","","null","64","","","","","","","","","","","","","","","",""
"","ISI","","html-keyboard-response","426","527693","0.0-1.0-579.0","0","0","91180","","null","","","null","64","NaN","","","","","","","","","","","","","","",""
"","S2","","html-keyboard-response","427","527949","0.0-1.0-580.0","0","0","91180","","null","","","null","64","","NaN","","","","","","","","","","","","","",""
"","response","","html-keyboard-response","428","528061","0.0-1.0-581.0-0.0","0","0","91180","","107","","","75","64","","","2","64","training","adjacent","DE","4","5","O.jpg","Q.jpg","0","1","0","",""
"","feedback","","html-keyboard-response","429","529066","0.0-1.0-582.0-0.0","0","0","91180","","null","","","null","64","","","","","","","","","","","","","","","",""
"","time_out","","html-keyboard-response","430","531071","0.0-1.0-584.0-0.0","0","0","91180","","null","","","null","64","","","","","","","","","","","","","","","",""
"","ITI","","html-keyboard-response","431","532076","0.0-1.0-585.0","0","0","91180","","null","","","null","64","","","","","","","","","","","","","","","NaN",""
"","S1","","html-keyboard-response","432","532330","0.0-1.0-587.0","0","0","91180","","null","","","null","65","","","","","","","","","","","","","","","",""
"","ISI","","html-keyboard-response","433","533335","0.0-1.0-588.0","0","0","91180","","null","","","null","65","NaN","","","","","","","","","","","","","","",""
"","S2","","html-keyboard-response","434","533590","0.0-1.0-589.0","0","0","91180","","null","","","null","65","","NaN","","","","","","","","","","","","","",""
"","response","","html-keyboard-response","435","534005","0.0-1.0-590.0-0.0","0","0","91180","","412","","","68","65","","","2","65","training","adjacent","CD","3","4","R.jpg","O.jpg","1","1","1","",""
"","feedback","","html-keyboard-response","436","535011","0.0-1.0-591.0-0.0","0","0","91180","","null","","","null","65","","","","","","","","","","","","","","","",""
"","ITI","","html-keyboard-response","437","536016","0.0-1.0-594.0","0","0","91180","","null","","","null","65","","","","","","","","","","","","","","","NaN",""
"","S1","","html-keyboard-response","438","536271","0.0-1.0-596.0","0","0","91180","","null","","","null","66","","","","","","","","","","","","","","","",""
"","ISI","","html-keyboard-response","439","537275","0.0-1.0-597.0","0","0","91180","","null","","","null","66","NaN","","","","","","","","","","","","","","",""
"","S2","","html-keyboard-response","440","537529","0.0-1.0-598.0","0","0","91180","","null","","","null","66","","NaN","","","","","","","","","","","","","",""
"","response","","html-keyboard-response","441","537701","0.0-1.0-599.0-0.0","0","0","91180","","168","","","68","66","","","2","66","training","adjacent","BC","2","3","N.jpg","R.jpg","1","1","1","",""
"","feedback","","html-keyboard-response","442","538707","0.0-1.0-600.0-0.0","0","0","91180","","null","","","null","66","","","","","","","","","","","","","","","",""
"","ITI","","html-keyboard-response","443","539710","0.0-1.0-603.0","0","0","91180","","null","","","null","66","","","","","","","","","","","","","","","NaN",""
"","S1","","html-keyboard-response","444","539964","0.0-1.0-605.0","0","0","91180","","null","","","null","67","","","","","","","","","","","","","","","",""
"","ISI","","html-keyboard-response","445","540968","0.0-1.0-606.0","0","0","91180","","null","","","null","67","NaN","","","","","","","","","","","","","","",""
"","S2","","html-keyboard-response","446","541223","0.0-1.0-607.0","0","0","91180","","null","","","null","67","","NaN","","","","","","","","","","","","","",""
"","response","","html-keyboard-response","447","541686","0.0-1.0-608.0-0.0","0","0","91180","","459","","","68","67","","","2","67","training","adjacent","FE","6","5","M.jpg","Q.jpg","1","0","0","",""
"","feedback","","html-keyboard-response","448","542691","0.0-1.0-609.0-0.0","0","0","91180","","null","","","null","67","","","","","","","","","","","","","","","",""
"","time_out","","html-keyboard-response","449","544696","0.0-1.0-611.0-0.0","0","0","91180","","null","","","null","67","","","","","","","","","","","","","","","",""
"","ITI","","html-keyboard-response","450","545701","0.0-1.0-612.0","0","0","91180","","null","","","null","67","","","","","","","","","","","","","","","NaN",""
"","S1","","html-keyboard-response","451","545956","0.0-1.0-614.0","0","0","91180","","null","","","null","68","","","","","","","","","","","","","","","",""
"","ISI","","html-keyboard-response","452","546972","0.0-1.0-615.0","0","0","91180","","null","","","null","68","NaN","","","","","","","","","","","","","","",""
"","S2","","html-keyboard-response","453","547227","0.0-1.0-616.0","0","0","91180","","null","","","null","68","","NaN","","","","","","","","","","","","","",""
"","response","","html-keyboard-response","454","548125","0.0-1.0-617.0-0.0","0","0","91180","","895","","","75","68","","","2","68","training","adjacent","GF","7","6","L.jpg","M.jpg","0","0","1","",""
"","feedback","","html-keyboard-response","455","549131","0.0-1.0-618.0-0.0","0","0","91180","","null","","","null","68","","","","","","","","","","","","","","","",""
"","ITI","","html-keyboard-response","456","550135","0.0-1.0-621.0","0","0","91180","","null","","","null","68","","","","","","","","","","","","","","","NaN",""
"","S1","","html-keyboard-response","457","550390","0.0-1.0-623.0","0","0","91180","","null","","","null","69","","","","","","","","","","","","","","","",""
"","ISI","","html-keyboard-response","458","551395","0.0-1.0-624.0","0","0","91180","","null","","","null","69","NaN","","","","","","","","","","","","","","",""
"","S2","","html-keyboard-response","459","551650","0.0-1.0-625.0","0","0","91180","","null","","","null","69","","NaN","","","","","","","","","","","","","",""
"","response","","html-keyboard-response","460","552325","0.0-1.0-626.0-0.0","0","0","91180","","672","","","68","69","","","2","69","training","adjacent","CB","3","2","R.jpg","N.jpg","1","0","0","",""
"","feedback","","html-keyboard-response","461","553330","0.0-1.0-627.0-0.0","0","0","91180","","null","","","null","69","","","","","","","","","","","","","","","",""
"","time_out","","html-keyboard-response","462","555335","0.0-1.0-629.0-0.0","0","0","91180","","null","","","null","69","","","","","","","","","","","","","","","",""
"","ITI","","html-keyboard-response","463","556340","0.0-1.0-630.0","0","0","91180","","null","","","null","69","","","","","","","","","","","","","","","NaN",""
"","S1","","html-keyboard-response","464","556594","0.0-1.0-632.0","0","0","91180","","null","","","null","70","","","","","","","","","","","","","","","",""
"","ISI","","html-keyboard-response","465","557599","0.0-1.0-633.0","0","0","91180","","null","","","null","70","NaN","","","","","","","","","","","","","","",""
"","S2","","html-keyboard-response","466","557854","0.0-1.0-634.0","0","0","91180","","null","","","null","70","","NaN","","","","","","","","","","","","","",""
"","response","","html-keyboard-response","467","558149","0.0-1.0-635.0-0.0","0","0","91180","","292","","","75","70","","","2","70","training","adjacent","ED","5","4","Q.jpg","O.jpg","0","0","1","",""
"","feedback","","html-keyboard-response","468","559154","0.0-1.0-636.0-0.0","0","0","91180","","null","","","null","70","","","","","","","","","","","","","","","",""
"","ITI","","html-keyboard-response","469","560159","0.0-1.0-639.0","0","0","91180","","null","","","null","70","","","","","","","","","","","","","","","NaN",""
"","S1","","html-keyboard-response","470","560413","0.0-1.0-641.0","0","0","91180","","null","","","null","71","","","","","","","","","","","","","","","",""
"","ISI","","html-keyboard-response","471","561417","0.0-1.0-642.0","0","0","91180","","null","","","null","71","NaN","","","","","","","","","","","","","","",""
"","S2","","html-keyboard-response","472","561673","0.0-1.0-643.0","0","0","91180","","null","","","null","71","","NaN","","","","","","","","","","","","","",""
"","response","","html-keyboard-response","473","563428","0.0-1.0-644.0-0.0","0","0","91180","","null","","","null","71","","","2","71","training","adjacent","DE","4","5","O.jpg","Q.jpg","NaN","1","0","",""
"","too_slow_prompt","","html-keyboard-response","474","564433","0.0-1.0-646.0-0.0","1","0","91180","","null","","","null","","","","","","","","","","","","","","","","",""
"","time_out","","html-keyboard-response","475","566437","0.0-1.0-647.0-0.0","0","0","91180","","null","","","null","71","","","","","","","","","","","","","","","",""
"","ITI","","html-keyboard-response","476","567441","0.0-1.0-648.0","0","0","91180","","null","","","null","71","","","","","","","","","","","","","","","NaN",""
"","S1","","html-keyboard-response","477","567697","0.0-1.0-650.0","0","0","91180","","null","","","null","72","","","","","","","","","","","","","","","",""
"","ISI","","html-keyboard-response","478","568713","0.0-1.0-651.0","0","0","91180","","null","","","null","72","NaN","","","","","","","","","","","","","","",""
"","S2","","html-keyboard-response","479","568918","0.0-1.0-652.0","0","0","91180","","200","","","75","72","","k","2","72","training","adjacent","DE","4","5","O.jpg","Q.jpg","0","1","0","",""
"","feedback","","html-keyboard-response","480","569923","0.0-1.0-654.0-0.0","0","0","91180","","null","","","null","72","","","","","","","","","","","","","","","",""
"","time_out","","html-keyboard-response","481","571929","0.0-1.0-656.0-0.0","0","0","91180","","null","","","null","72","","","","","","","","","","","","","","","",""
"","ITI","","html-keyboard-response","482","572934","0.0-1.0-657.0","0","0","91180","","null","","","null","72","","","","","","","","","","","","","","","NaN",""
"","S1","","html-keyboard-response","483","573189","0.0-1.0-659.0","0","0","91180","","null","","","null","73","","","","","","","","","","","","","","","",""
"","ISI","","html-keyboard-response","484","574194","0.0-1.0-660.0","0","0","91180","","null","","","null","73","NaN","","","","","","","","","","","","","","",""
"","S2","","html-keyboard-response","485","574449","0.0-1.0-661.0","0","0","91180","","null","","","null","73","","NaN","","","","","","","","","","","","","",""
"","response","","html-keyboard-response","486","574829","0.0-1.0-662.0-0.0","0","0","91180","","377","","","68","73","","","2","73","training","adjacent","EF","5","6","Q.jpg","M.jpg","1","1","1","",""
"","feedback","","html-keyboard-response","487","575835","0.0-1.0-663.0-0.0","0","0","91180","","null","","","null","73","","","","","","","","","","","","","","","",""
"","ITI","","html-keyboard-response","488","576840","0.0-1.0-666.0","0","0","91180","","null","","","null","73","","","","","","","","","","","","","","","NaN",""
"","S1","","html-keyboard-response","489","577095","0.0-1.0-668.0","0","0","91180","","null","","","null","74","","","","","","","","","","","","","","","",""
"","ISI","","html-keyboard-response","490","578098","0.0-1.0-669.0","0","0","91180","","null","","","null","74","NaN","","","","","","","","","","","","","","",""
"","S2","","html-keyboard-response","491","578353","0.0-1.0-670.0","0","0","91180","","null","","","null","74","","NaN","","","","","","","","","","","","","",""
"","response","","html-keyboard-response","492","578782","0.0-1.0-671.0-0.0","0","0","91180","","425","","","68","74","","","2","74","training","adjacent","BA","2","1","N.jpg","P.jpg","1","0","0","",""
"","feedback","","html-keyboard-response","493","579787","0.0-1.0-672.0-0.0","0","0","91180","","null","","","null","74","","","","","","","","","","","","","","","",""
"","time_out","","html-keyboard-response","494","581791","0.0-1.0-674.0-0.0","0","0","91180","","null","","","null","74","","","","","","","","","","","","","","","",""
"","ITI","","html-keyboard-response","495","582796","0.0-1.0-675.0","0","0","91180","","null","","","null","74","","","","","","","","","","","","","","","NaN",""
"","S1","","html-keyboard-response","496","583051","0.0-1.0-677.0","0","0","91180","","null","","","null","75","","","","","","","","","","","","","","","",""
"","ISI","","html-keyboard-response","497","584056","0.0-1.0-678.0","0","0","91180","","null","","","null","75","NaN","","","","","","","","","","","","","","",""
"","S2","","html-keyboard-response","498","584277","0.0-1.0-679.0","0","0","91180","","217","","","75","75","","k","2","75","training","adjacent","ED","5","4","Q.jpg","O.jpg","0","0","1","",""
"","feedback","","html-keyboard-response","499","585283","0.0-1.0-681.0-0.0","0","0","91180","","null","","","null","75","","","","","","","","","","","","","","","",""
"","ITI","","html-keyboard-response","500","586287","0.0-1.0-684.0","0","0","91180","","null","","","null","75","","","","","","","","","","","","","","","NaN",""
"","S1","","html-keyboard-response","501","586541","0.0-1.0-686.0","0","0","91180","","null","","","null","76","","","","","","","","","","","","","","","",""
"","ISI","","html-keyboard-response","502","587546","0.0-1.0-687.0","0","0","91180","","null","","","null","76","NaN","","","","","","","","","","","","","","",""
"","S2","","html-keyboard-response","503","587801","0.0-1.0-688.0","0","0","91180","","null","","","null","76","","NaN","","","","","","","","","","","","","",""
"","response","","html-keyboard-response","504","588062","0.0-1.0-689.0-0.0","0","0","91180","","257","","","68","76","","","2","76","training","adjacent","CB","3","2","R.jpg","N.jpg","1","0","0","",""
"","feedback","","html-keyboard-response","505","589067","0.0-1.0-690.0-0.0","0","0","91180","","null","","","null","76","","","","","","","","","","","","","","","",""
"","time_out","","html-keyboard-response","506","591073","0.0-1.0-692.0-0.0","0","0","91180","","null","","","null","76","","","","","","","","","","","","","","","",""
"","ITI","","html-keyboard-response","507","592076","0.0-1.0-693.0","0","0","91180","","null","","","null","76","","","","","","","","","","","","","","","NaN",""
"","S1","","html-keyboard-response","508","592331","0.0-1.0-695.0","0","0","91180","","null","","","null","77","","","","","","","","","","","","","","","",""
"","ISI","","html-keyboard-response","509","593334","0.0-1.0-696.0","0","0","91180","","null","","","null","77","NaN","","","","","","","","","","","","","","",""
"","S2","","html-keyboard-response","510","593590","0.0-1.0-697.0","0","0","91180","","null","","","null","77","","NaN","","","","","","","","","","","","","",""
"","response","","html-keyboard-response","511","593797","0.0-1.0-698.0-0.0","0","0","91180","","204","","","68","77","","","2","77","training","adjacent","FE","6","5","M.jpg","Q.jpg","1","0","0","",""
"","feedback","","html-keyboard-response","512","594810","0.0-1.0-699.0-0.0","0","0","91180","","null","","","null","77","","","","","","","","","","","","","","","",""
"","time_out","","html-keyboard-response","513","596815","0.0-1.0-701.0-0.0","0","0","91180","","null","","","null","77","","","","","","","","","","","","","","","",""
"","ITI","","html-keyboard-response","514","597820","0.0-1.0-702.0","0","0","91180","","null","","","null","77","","","","","","","","","","","","","","","NaN",""
"","S1","","html-keyboard-response","515","598075","0.0-1.0-704.0","0","0","91180","","null","","","null","78","","","","","","","","","","","","","","","",""
"","ISI","","html-keyboard-response","516","599079","0.0-1.0-705.0","0","0","91180","","143","","","75","78","k","","","","","","","","","","","","","","",""
"","S2","","html-keyboard-response","517","599335","0.0-1.0-706.0","0","0","91180","","null","","","null","78","","NaN","","","","","","","","","","","","","",""
"","response","","html-keyboard-response","518","599389","0.0-1.0-707.0-0.0","0","0","91180","","51","","","68","78","","","2","78","training","adjacent","FE","6","5","M.jpg","Q.jpg","1","0","0","",""
"","feedback","","html-keyboard-response","519","600395","0.0-1.0-708.0-0.0","0","0","91180","","null","","","null","78","","","","","","","","","","","","","","","",""
"","time_out","","html-keyboard-response","520","602400","0.0-1.0-710.0-0.0","0","0","91180","","null","","","null","78","","","","","","","","","","","","","","","",""
"","ITI","","html-keyboard-response","521","603405","0.0-1.0-711.0","0","0","91180","","null","","","null","78","","","","","","","","","","","","","","","NaN",""
"","S1","","html-keyboard-response","522","603660","0.0-1.0-713.0","0","0","91180","","null","","","null","79","","","","","","","","","","","","","","","",""
"","ISI","","html-keyboard-response","523","604664","0.0-1.0-714.0","0","0","91180","","null","","","null","79","NaN","","","","","","","","","","","","","","",""
"","S2","","html-keyboard-response","524","604918","0.0-1.0-715.0","0","0","91180","","250","","","75","79","","k","2","79","training","adjacent","GF","7","6","L.jpg","M.jpg","0","0","1","",""
"","feedback","","html-keyboard-response","525","605923","0.0-1.0-717.0-0.0","0","0","91180","","null","","","null","79","","","","","","","","","","","","","","","",""
"","ITI","","html-keyboard-response","526","606928","0.0-1.0-720.0","0","0","91180","","null","","","null","79","","","","","","","","","","","","","","","NaN",""
"","S1","","html-keyboard-response","527","607181","0.0-1.0-722.0","0","0","91180","","null","","","null","80","","","","","","","","","","","","","","","",""
"","ISI","","html-keyboard-response","528","608186","0.0-1.0-723.0","0","0","91180","","null","","","null","80","NaN","","","","","","","","","","","","","","",""
"","S2","","html-keyboard-response","529","608441","0.0-1.0-724.0","0","0","91180","","null","","","null","80","","NaN","","","","","","","","","","","","","",""
"","response","","html-keyboard-response","530","608806","0.0-1.0-725.0-0.0","0","0","91180","","361","","","68","80","","","2","80","training","adjacent","CB","3","2","R.jpg","N.jpg","1","0","0","",""
"","feedback","","html-keyboard-response","531","609812","0.0-1.0-726.0-0.0","0","0","91180","","null","","","null","80","","","","","","","","","","","","","","","",""
"","time_out","","html-keyboard-response","532","611816","0.0-1.0-728.0-0.0","0","0","91180","","null","","","null","80","","","","","","","","","","","","","","","",""
"","ITI","","html-keyboard-response","533","612821","0.0-1.0-729.0","0","0","91180","","null","","","null","80","","","","","","","","","","","","","","","NaN",""
"","S1","","html-keyboard-response","534","613076","0.0-1.0-731.0","0","0","91180","","null","","","null","81","","","","","","","","","","","","","","","",""
"","ISI","","html-keyboard-response","535","614093","0.0-1.0-732.0","0","0","91180","","null","","","null","81","NaN","","","","","","","","","","","","","","",""
"","S2","","html-keyboard-response","536","614347","0.0-1.0-733.0","0","0","91180","","null","","","null","81","","NaN","","","","","","","","","","","","","",""
"","response","","html-keyboard-response","537","614493","0.0-1.0-734.0-0.0","0","0","91180","","143","","","68","81","","","2","81","training","adjacent","CB","3","2","R.jpg","N.jpg","1","0","0","",""
"","feedback","","html-keyboard-response","538","615499","0.0-1.0-735.0-0.0","0","0","91180","","null","","","null","81","","","","","","","","","","","","","","","",""
"","time_out","","html-keyboard-response","539","617504","0.0-1.0-737.0-0.0","0","0","91180","","null","","","null","81","","","","","","","","","","","","","","","",""
"","ITI","","html-keyboard-response","540","618509","0.0-1.0-738.0","0","0","91180","","null","","","null","81","","","","","","","","","","","","","","","NaN",""
"","S1","","html-keyboard-response","541","618763","0.0-1.0-740.0","0","0","91180","","null","","","null","82","","","","","","","","","","","","","","","",""
"","ISI","","html-keyboard-response","542","619767","0.0-1.0-741.0","0","0","91180","","null","","","null","82","NaN","","","","","","","","","","","","","","",""
"","S2","","html-keyboard-response","543","620022","0.0-1.0-742.0","0","0","91180","","null","","","null","82","","NaN","","","","","","","","","","","","","",""
"","response","","html-keyboard-response","544","620102","0.0-1.0-743.0-0.0","0","0","91180","","76","","","68","82","","","2","82","training","adjacent","BC","2","3","N.jpg","R.jpg","1","1","1","",""
"","feedback","","html-keyboard-response","545","621106","0.0-1.0-744.0-0.0","0","0","91180","","null","","","null","82","","","","","","","","","","","","","","","",""
"","ITI","","html-keyboard-response","546","622114","0.0-1.0-747.0","0","0","91180","","null","","","null","82","","","","","","","","","","","","","","","NaN",""
"","S1","","html-keyboard-response","547","622369","0.0-1.0-749.0","0","0","91180","","null","","","null","83","","","","","","","","","","","","","","","",""
"","ISI","","html-keyboard-response","548","623373","0.0-1.0-750.0","0","0","91180","","null","","","null","83","NaN","","","","","","","","","","","","","","",""
"","S2","","html-keyboard-response","549","623629","0.0-1.0-751.0","0","0","91180","","null","","","null","83","","NaN","","","","","","","","","","","","","",""
"","response","","html-keyboard-response","550","623806","0.0-1.0-752.0-0.0","0","0","91180","","173","","","75","83","","","2","83","training","adjacent","CD","3","4","R.jpg","O.jpg","0","1","0","",""
"","feedback","","html-keyboard-response","551","624812","0.0-1.0-753.0-0.0","0","0","91180","","null","","","null","83","","","","","","","","","","","","","","","",""
"","time_out","","html-keyboard-response","552","626817","0.0-1.0-755.0-0.0","0","0","91180","","null","","","null","83","","","","","","","","","","","","","","","",""
"","ITI","","html-keyboard-response","553","627820","0.0-1.0-756.0","0","0","91180","","null","","","null","83","","","","","","","","","","","","","","","NaN",""
"","S1","","html-keyboard-response","554","628074","0.0-1.0-758.0","0","0","91180","","null","","","null","84","","","","","","","","","","","","","","","",""
"","ISI","","html-keyboard-response","555","629077","0.0-1.0-759.0","0","0","91180","","null","","","null","84","NaN","","","","","","","","","","","","","","",""
"","S2","","html-keyboard-response","556","629329","0.0-1.0-760.0","0","0","91180","","null","","","null","84","","NaN","","","","","","","","","","","","","",""
"","response","","html-keyboard-response","557","629446","0.0-1.0-761.0-0.0","0","0","91180","","113","","","68","84","","","2","84","training","adjacent","ED","5","4","Q.jpg","O.jpg","1","0","0","",""
"","feedback","","html-keyboard-response","558","630451","0.0-1.0-762.0-0.0","0","0","91180","","null","","","null","84","","","","","","","","","","","","","","","",""
"","time_out","","html-keyboard-response","559","632456","0.0-1.0-764.0-0.0","0","0","91180","","null","","","null","84","","","","","","","","","","","","","","","",""
"","ITI","","html-keyboard-response","560","633460","0.0-1.0-765.0","0","0","91180","","null","","","null","84","","","","","","","","","","","","","","","NaN",""
"","S1","","html-keyboard-response","561","633714","0.0-1.0-767.0","0","0","91180","","null","","","null","85","","","","","","","","","","","","","","","",""
"","ISI","","html-keyboard-response","562","634719","0.0-1.0-768.0","0","0","91180","","88","","","75","85","k","","","","","","","","","","","","","","",""
"","S2","","html-keyboard-response","563","634974","0.0-1.0-769.0","0","0","91180","","null","","","null","85","","NaN","","","","","","","","","","","","","",""
"","response","","html-keyboard-response","564","635038","0.0-1.0-770.0-0.0","0","0","91180","","59","","","75","85","","","2","85","training","adjacent","BA","2","1","N.jpg","P.jpg","0","0","1","",""
"","feedback","","html-keyboard-response","565","636043","0.0-1.0-771.0-0.0","0","0","91180","","null","","","null","85","","","","","","","","","","","","","","","",""
"","ITI","","html-keyboard-response","566","637048","0.0-1.0-774.0","0","0","91180","","null","","","null","85","","","","","","","","","","","","","","","NaN",""
"","S1","","html-keyboard-response","567","637302","0.0-1.0-776.0","0","0","91180","","null","","","null","86","","","","","","","","","","","","","","","",""
"","ISI","","html-keyboard-response","568","638306","0.0-1.0-777.0","0","0","91180","","null","","","null","86","NaN","","","","","","","","","","","","","","",""
"","S2","","html-keyboard-response","569","638560","0.0-1.0-778.0","0","0","91180","","null","","","null","86","","NaN","","","","","","","","","","","","","",""
"","response","","html-keyboard-response","570","638877","0.0-1.0-779.0-0.0","0","0","91180","","313","","","68","86","","","2","86","training","adjacent","FG","6","7","M.jpg","L.jpg","1","1","1","",""
"","feedback","","html-keyboard-response","571","639883","0.0-1.0-780.0-0.0","0","0","91180","","null","","","null","86","","","","","","","","","","","","","","","",""
"","ITI","","html-keyboard-response","572","640887","0.0-1.0-783.0","0","0","91180","","null","","","null","86","","","","","","","","","","","","","","","NaN",""
"","S1","","html-keyboard-response","573","641141","0.0-1.0-785.0","0","0","91180","","null","","","null","87","","","","","","","","","","","","","","","",""
"","ISI","","html-keyboard-response","574","642145","0.0-1.0-786.0","0","0","91180","","null","","","null","87","NaN","","","","","","","","","","","","","","",""
"","S2","","html-keyboard-response","575","642400","0.0-1.0-787.0","0","0","91180","","null","","","null","87","","NaN","","","","","","","","","","","","","",""
"","response","","html-keyboard-response","576","642654","0.0-1.0-788.0-0.0","0","0","91180","","250","","","75","87","","","2","87","training","adjacent","GF","7","6","L.jpg","M.jpg","0","0","1","",""
"","feedback","","html-keyboard-response","577","643661","0.0-1.0-789.0-0.0","0","0","91180","","null","","","null","87","","","","","","","","","","","","","","","",""
"","ITI","","html-keyboard-response","578","644667","0.0-1.0-792.0","0","0","91180","","null","","","null","87","","","","","","","","","","","","","","","NaN",""
"","S1","","html-keyboard-response","579","644921","0.0-1.0-794.0","0","0","91180","","null","","","null","88","","","","","","","","","","","","","","","",""
"","ISI","","html-keyboard-response","580","645925","0.0-1.0-795.0","0","0","91180","","null","","","null","88","NaN","","","","","","","","","","","","","","",""
"","S2","","html-keyboard-response","581","646180","0.0-1.0-796.0","0","0","91180","","null","","","null","88","","NaN","","","","","","","","","","","","","",""
