"success","ttype","start_time","trial_type","trial_index","time_elapsed","internal_node_id","warning","missed_checkup","PID","view_history","rt","responses","repeat_instructions","key_press","index","keypress_isi","keypress_S2","block","trial_num","phase","group_type","pair_type","S1_stim","S2_stim","S1_img","S2_img","S1_chosen","S1_higher","accuracy","keypress_iti","total_bonus_tally"
"true","full_screen","d03082023hr1546","fullscreen","0","9235","0.0-0.0","0","0","28927","","","","","","","","","","","","","","","","","","","","","",""
"","instructions","","instructions","1","31162","0.0-1.0-0.0-0.0","0","0","28927","[{""page_index"":0,""viewing_time"":6028},{""page_index"":1,""viewing_time"":12627},{""page_index"":2,""viewing_time"":222},{""page_index"":3,""viewing_time"":3045}]","21922","","","","","","","","","","","","","","","","","","","",""
"","comprehension_check","","survey-multi-choice","2","59185","0.0-1.0-0.0-1.0","0","0","28927","","28011","{""Q0"":""True"",""Q1"":""K"",""Q2"":""Only when the screen 'MAKE A CHOICE' is shown"",""Q3"":""Red cross"",""Q4"":""either D or K""}","1","","","","","","","","","","","","","","","","","",""
"","missed_instruction_checkup","","html-keyboard-response","3","61473","0.0-1.0-0.0-2.0-0.0","0","1","28927","","2281","","","32","","","","","","","","","","","","","","","","",""
"","instructions","","instructions","4","102135","0.0-1.0-0.1-0.1","0","0","28927","[{""page_index"":0,""viewing_time"":2178},{""page_index"":1,""viewing_time"":21765},{""page_index"":2,""viewing_time"":15139},{""page_index"":3,""viewing_time"":1576}]","40658","","","","","","","","","","","","","","","","","","","",""
"","comprehension_check","","survey-multi-choice","5","114546","0.0-1.0-0.1-1.1","0","0","28927","","12401","{""Q0"":""True"",""Q1"":""K"",""Q2"":""Only when the screen 'MAKE A CHOICE' is shown"",""Q3"":""Green mark"",""Q4"":""either D or K""}","1","","","","","","","","","","","","","","","","","",""
"","missed_instruction_checkup","","html-keyboard-response","6","116249","0.0-1.0-0.1-2.1-0.1","0","1","28927","","1697","","","32","","","","","","","","","","","","","","","","",""
"","instructions","","instructions","7","135742","0.0-1.0-0.2-0.2","0","0","28927","[{""page_index"":0,""viewing_time"":3998},{""page_index"":1,""viewing_time"":12080},{""page_index"":2,""viewing_time"":2169},{""page_index"":3,""viewing_time"":1242}]","19489","","","","","","","","","","","","","","","","","","","",""
"","comprehension_check","","survey-multi-choice","8","148397","0.0-1.0-0.2-1.2","0","0","28927","","12645","{""Q0"":""True"",""Q1"":""K"",""Q2"":""Once the second image appears and while the screen 'MAKE A CHOICE' is shown"",""Q3"":""Green mark"",""Q4"":""either D or K""}","0","","","","","","","","","","","","","","","","","",""
"","start_exp","","html-keyboard-response","9","150840","0.0-1.0-1.0","0","0","28927","","2439","","","32","","","","","","","","","","","","","","","","",""
"","S1","","html-keyboard-response","10","151098","0.0-1.0-2.0","0","0","28927","","null","","","null","0","","","","","","","","","","","","","","","",""
"","ISI","","html-keyboard-response","11","151254","0.0-1.0-3.0","0","0","28927","","null","","","null","0","NaN","","","","","","","","","","","","","","",""
"","S2","","html-keyboard-response","12","151509","0.0-1.0-4.0","0","0","28927","","null","","","null","0","","NaN","","","","","","","","","","","","","",""
"","response","","html-keyboard-response","13","152711","0.0-1.0-5.0-0.0","0","0","28927","","1198","","","75","0","","","1","0","training","adjacent","AB","1","2","O.jpg","Q.jpg","1","1","1","",""
"","feedback","","html-keyboard-response","14","153717","0.0-1.0-6.0-0.0","0","0","28927","","null","","","null","0","","","","","","","","","","","","","","","",""
"","ITI","","html-keyboard-response","15","154724","0.0-1.0-9.0","0","0","28927","","null","","","null","0","","","","","","","","","","","","","","","NaN",""
"","S1","","html-keyboard-response","16","154986","0.0-1.0-11.0","0","0","28927","","null","","","null","1","","","","","","","","","","","","","","","",""
"","ISI","","html-keyboard-response","17","155141","0.0-1.0-12.0","0","0","28927","","null","","","null","1","NaN","","","","","","","","","","","","","","",""
"","S2","","html-keyboard-response","18","155395","0.0-1.0-13.0","0","0","28927","","null","","","null","1","","NaN","","","","","","","","","","","","","",""
"","response","","html-keyboard-response","19","156448","0.0-1.0-14.0-0.0","0","0","28927","","1049","","","68","1","","","1","1","training","adjacent","CD","3","4","L.jpg","R.jpg","0","1","0","",""
"","feedback","","html-keyboard-response","20","157456","0.0-1.0-15.0-0.0","0","0","28927","","null","","","null","1","","","","","","","","","","","","","","","",""
"","time_out","","html-keyboard-response","21","159466","0.0-1.0-17.0-0.0","0","0","28927","","null","","","null","1","","","","","","","","","","","","","","","",""
"","ITI","","html-keyboard-response","22","160473","0.0-1.0-18.0","0","0","28927","","null","","","null","1","","","","","","","","","","","","","","","NaN",""
"","S1","","html-keyboard-response","23","160736","0.0-1.0-20.0","0","0","28927","","null","","","null","2","","","","","","","","","","","","","","","",""
"","ISI","","html-keyboard-response","24","160899","0.0-1.0-21.0","0","0","28927","","null","","","null","2","NaN","","","","","","","","","","","","","","",""
"","S2","","html-keyboard-response","25","161158","0.0-1.0-22.0","0","0","28927","","null","","","null","2","","NaN","","","","","","","","","","","","","",""
"","response","","html-keyboard-response","26","161583","0.0-1.0-23.0-0.0","0","0","28927","","422","","","68","2","","","1","2","training","adjacent","BC","2","3","Q.jpg","L.jpg","0","1","0","",""
"","feedback","","html-keyboard-response","27","162594","0.0-1.0-24.0-0.0","0","0","28927","","null","","","null","2","","","","","","","","","","","","","","","",""
"","time_out","","html-keyboard-response","28","164605","0.0-1.0-26.0-0.0","0","0","28927","","null","","","null","2","","","","","","","","","","","","","","","",""
"","ITI","","html-keyboard-response","29","165613","0.0-1.0-27.0","0","0","28927","","null","","","null","2","","","","","","","","","","","","","","","NaN",""
"","S1","","html-keyboard-response","30","165872","0.0-1.0-29.0","0","0","28927","","null","","","null","3","","","","","","","","","","","","","","","",""
"","ISI","","html-keyboard-response","31","166029","0.0-1.0-30.0","0","0","28927","","null","","","null","3","NaN","","","","","","","","","","","","","","",""
"","S2","","html-keyboard-response","32","166292","0.0-1.0-31.0","0","0","28927","","null","","","null","3","","NaN","","","","","","","","","","","","","",""
"","response","","html-keyboard-response","33","166804","0.0-1.0-32.0-0.0","0","0","28927","","509","","","68","3","","","1","3","training","adjacent","AB","1","2","O.jpg","Q.jpg","0","1","0","",""
"","feedback","","html-keyboard-response","34","167810","0.0-1.0-33.0-0.0","0","0","28927","","null","","","null","3","","","","","","","","","","","","","","","",""
"","time_out","","html-keyboard-response","35","169818","0.0-1.0-35.0-0.0","0","0","28927","","null","","","null","3","","","","","","","","","","","","","","","",""
"","ITI","","html-keyboard-response","36","170824","0.0-1.0-36.0","0","0","28927","","null","","","null","3","","","","","","","","","","","","","","","NaN",""
"","S1","","html-keyboard-response","37","171080","0.0-1.0-38.0","0","0","28927","","null","","","null","4","","","","","","","","","","","","","","","",""
"","ISI","","html-keyboard-response","38","171242","0.0-1.0-39.0","0","0","28927","","null","","","null","4","NaN","","","","","","","","","","","","","","",""
"","S2","","html-keyboard-response","39","171499","0.0-1.0-40.0","0","0","28927","","null","","","null","4","","NaN","","","","","","","","","","","","","",""
"","response","","html-keyboard-response","40","171570","0.0-1.0-41.0-0.0","0","0","28927","","68","","","75","4","","","1","4","training","adjacent","ED","5","4","P.jpg","R.jpg","1","0","0","",""
"","feedback","","html-keyboard-response","41","172576","0.0-1.0-42.0-0.0","0","0","28927","","null","","","null","4","","","","","","","","","","","","","","","",""
"","time_out","","html-keyboard-response","42","174583","0.0-1.0-44.0-0.0","0","0","28927","","null","","","null","4","","","","","","","","","","","","","","","",""
"","ITI","","html-keyboard-response","43","175594","0.0-1.0-45.0","0","0","28927","","null","","","null","4","","","","","","","","","","","","","","","NaN",""
"","S1","","html-keyboard-response","44","175858","0.0-1.0-47.0","0","0","28927","","null","","","null","5","","","","","","","","","","","","","","","",""
"","ISI","","html-keyboard-response","45","176012","0.0-1.0-48.0","0","0","28927","","null","","","null","5","NaN","","","","","","","","","","","","","","",""
"","S2","","html-keyboard-response","46","176270","0.0-1.0-49.0","0","0","28927","","null","","","null","5","","NaN","","","","","","","","","","","","","",""
"","response","","html-keyboard-response","47","176540","0.0-1.0-50.0-0.0","0","0","28927","","266","","","75","5","","","1","5","training","adjacent","EF","5","6","P.jpg","M.jpg","1","1","1","",""
"","feedback","","html-keyboard-response","48","177552","0.0-1.0-51.0-0.0","0","0","28927","","null","","","null","5","","","","","","","","","","","","","","","",""
"","ITI","","html-keyboard-response","49","178557","0.0-1.0-54.0","0","0","28927","","null","","","null","5","","","","","","","","","","","","","","","NaN",""
"","S1","","html-keyboard-response","50","178816","0.0-1.0-56.0","0","0","28927","","null","","","null","6","","","","","","","","","","","","","","","",""
"","ISI","","html-keyboard-response","51","178980","0.0-1.0-57.0","0","0","28927","","null","","","null","6","NaN","","","","","","","","","","","","","","",""
"","S2","","html-keyboard-response","52","179234","0.0-1.0-58.0","0","0","28927","","null","","","null","6","","NaN","","","","","","","","","","","","","",""
"","response","","html-keyboard-response","53","179494","0.0-1.0-59.0-0.0","0","0","28927","","256","","","68","6","","","1","6","training","adjacent","DE","4","5","R.jpg","P.jpg","0","1","0","",""
"","feedback","","html-keyboard-response","54","180502","0.0-1.0-60.0-0.0","0","0","28927","","null","","","null","6","","","","","","","","","","","","","","","",""
"","time_out","","html-keyboard-response","55","182513","0.0-1.0-62.0-0.0","0","0","28927","","null","","","null","6","","","","","","","","","","","","","","","",""
"","ITI","","html-keyboard-response","56","183522","0.0-1.0-63.0","0","0","28927","","null","","","null","6","","","","","","","","","","","","","","","NaN",""
"","S1","","html-keyboard-response","57","183780","0.0-1.0-65.0","0","0","28927","","null","","","null","7","","","","","","","","","","","","","","","",""
"","ISI","","html-keyboard-response","58","183940","0.0-1.0-66.0","0","0","28927","","null","","","null","7","NaN","","","","","","","","","","","","","","",""
"","S2","","html-keyboard-response","59","184195","0.0-1.0-67.0","0","0","28927","","null","","","null","7","","NaN","","","","","","","","","","","","","",""
"","response","","html-keyboard-response","60","184459","0.0-1.0-68.0-0.0","0","0","28927","","261","","","68","7","","","1","7","training","adjacent","FG","6","7","M.jpg","N.jpg","0","1","0","",""
"","feedback","","html-keyboard-response","61","185476","0.0-1.0-69.0-0.0","0","0","28927","","null","","","null","7","","","","","","","","","","","","","","","",""
"","time_out","","html-keyboard-response","62","187484","0.0-1.0-71.0-0.0","0","0","28927","","null","","","null","7","","","","","","","","","","","","","","","",""
"","ITI","","html-keyboard-response","63","188491","0.0-1.0-72.0","0","0","28927","","null","","","null","7","","","","","","","","","","","","","","","NaN",""
"","S1","","html-keyboard-response","64","188750","0.0-1.0-74.0","0","0","28927","","null","","","null","8","","","","","","","","","","","","","","","",""
"","ISI","","html-keyboard-response","65","188904","0.0-1.0-75.0","0","0","28927","","null","","","null","8","NaN","","","","","","","","","","","","","","",""
"","S2","","html-keyboard-response","66","189160","0.0-1.0-76.0","0","0","28927","","null","","","null","8","","NaN","","","","","","","","","","","","","",""
"","response","","html-keyboard-response","67","189386","0.0-1.0-77.0-0.0","0","0","28927","","222","","","75","8","","","1","8","training","adjacent","GF","7","6","N.jpg","M.jpg","1","0","0","",""
"","feedback","","html-keyboard-response","68","190399","0.0-1.0-78.0-0.0","0","0","28927","","null","","","null","8","","","","","","","","","","","","","","","",""
"","time_out","","html-keyboard-response","69","192406","0.0-1.0-80.0-0.0","0","0","28927","","null","","","null","8","","","","","","","","","","","","","","","",""
"","ITI","","html-keyboard-response","70","193417","0.0-1.0-81.0","0","0","28927","","null","","","null","8","","","","","","","","","","","","","","","NaN",""
"","S1","","html-keyboard-response","71","193679","0.0-1.0-83.0","0","0","28927","","null","","","null","9","","","","","","","","","","","","","","","",""
"","ISI","","html-keyboard-response","72","193844","0.0-1.0-84.0","0","0","28927","","null","","","null","9","NaN","","","","","","","","","","","","","","",""
"","S2","","html-keyboard-response","73","194103","0.0-1.0-85.0","0","0","28927","","null","","","null","9","","NaN","","","","","","","","","","","","","",""
"","response","","html-keyboard-response","74","194180","0.0-1.0-86.0-0.0","0","0","28927","","75","","","75","9","","","1","9","training","adjacent","EF","5","6","P.jpg","M.jpg","1","1","1","",""
"","feedback","","html-keyboard-response","75","195192","0.0-1.0-87.0-0.0","0","0","28927","","null","","","null","9","","","","","","","","","","","","","","","",""
"","ITI","","html-keyboard-response","76","196213","0.0-1.0-90.0","0","0","28927","","null","","","null","9","","","","","","","","","","","","","","","NaN",""
"","S1","","html-keyboard-response","77","196472","0.0-1.0-92.0","0","0","28927","","null","","","null","10","","","","","","","","","","","","","","","",""
"","ISI","","html-keyboard-response","78","196640","0.0-1.0-93.0","0","0","28927","","null","","","null","10","NaN","","","","","","","","","","","","","","",""
"","S2","","html-keyboard-response","79","196910","0.0-1.0-94.0","0","0","28927","","null","","","null","10","","NaN","","","","","","","","","","","","","",""
"","response","","html-keyboard-response","80","197162","0.0-1.0-95.0-0.0","0","0","28927","","249","","","75","10","","","1","10","training","adjacent","CD","3","4","L.jpg","R.jpg","1","1","1","",""
"","feedback","","html-keyboard-response","81","198174","0.0-1.0-96.0-0.0","0","0","28927","","null","","","null","10","","","","","","","","","","","","","","","",""
"","ITI","","html-keyboard-response","82","199179","0.0-1.0-99.0","0","0","28927","","null","","","null","10","","","","","","","","","","","","","","","NaN",""
"","S1","","html-keyboard-response","83","199440","0.0-1.0-101.0","0","0","28927","","null","","","null","11","","","","","","","","","","","","","","","",""
"","ISI","","html-keyboard-response","84","199596","0.0-1.0-102.0","0","0","28927","","null","","","null","11","NaN","","","","","","","","","","","","","","",""
"","S2","","html-keyboard-response","85","199851","0.0-1.0-103.0","0","0","28927","","null","","","null","11","","NaN","","","","","","","","","","","","","",""
"","response","","html-keyboard-response","86","200037","0.0-1.0-104.0-0.0","0","0","28927","","183","","","68","11","","","1","11","training","adjacent","DC","4","3","R.jpg","L.jpg","0","0","1","",""
"","feedback","","html-keyboard-response","87","201049","0.0-1.0-105.0-0.0","0","0","28927","","null","","","null","11","","","","","","","","","","","","","","","",""
"","ITI","","html-keyboard-response","88","202057","0.0-1.0-108.0","0","0","28927","","null","","","null","11","","","","","","","","","","","","","","","NaN",""
"","S1","","html-keyboard-response","89","202319","0.0-1.0-110.0","0","0","28927","","null","","","null","12","","","","","","","","","","","","","","","",""
"","ISI","","html-keyboard-response","90","202481","0.0-1.0-111.0","0","0","28927","","null","","","null","12","NaN","","","","","","","","","","","","","","",""
"","S2","","html-keyboard-response","91","202736","0.0-1.0-112.0","0","0","28927","","null","","","null","12","","NaN","","","","","","","","","","","","","",""
"","response","","html-keyboard-response","92","202956","0.0-1.0-113.0-0.0","0","0","28927","","217","","","68","12","","","1","12","training","adjacent","EF","5","6","P.jpg","M.jpg","0","1","0","",""
"","feedback","","html-keyboard-response","93","203975","0.0-1.0-114.0-0.0","0","0","28927","","null","","","null","12","","","","","","","","","","","","","","","",""
"","time_out","","html-keyboard-response","94","205987","0.0-1.0-116.0-0.0","0","0","28927","","null","","","null","12","","","","","","","","","","","","","","","",""
"","ITI","","html-keyboard-response","95","206997","0.0-1.0-117.0","0","0","28927","","null","","","null","12","","","","","","","","","","","","","","","NaN",""
"","S1","","html-keyboard-response","96","207254","0.0-1.0-119.0","0","0","28927","","null","","","null","13","","","","","","","","","","","","","","","",""
"","ISI","","html-keyboard-response","97","207409","0.0-1.0-120.0","0","0","28927","","null","","","null","13","NaN","","","","","","","","","","","","","","",""
"","S2","","html-keyboard-response","98","207673","0.0-1.0-121.0","0","0","28927","","null","","","null","13","","NaN","","","","","","","","","","","","","",""
"","response","","html-keyboard-response","99","207887","0.0-1.0-122.0-0.0","0","0","28927","","210","","","75","13","","","1","13","training","adjacent","BA","2","1","Q.jpg","O.jpg","1","0","0","",""
"","feedback","","html-keyboard-response","100","208893","0.0-1.0-123.0-0.0","0","0","28927","","null","","","null","13","","","","","","","","","","","","","","","",""
"","time_out","","html-keyboard-response","101","210900","0.0-1.0-125.0-0.0","0","0","28927","","null","","","null","13","","","","","","","","","","","","","","","",""
"","ITI","","html-keyboard-response","102","211919","0.0-1.0-126.0","0","0","28927","","null","","","null","13","","","","","","","","","","","","","","","NaN",""
"","S1","","html-keyboard-response","103","212176","0.0-1.0-128.0","0","0","28927","","null","","","null","14","","","","","","","","","","","","","","","",""
"","ISI","","html-keyboard-response","104","212337","0.0-1.0-129.0","0","0","28927","","null","","","null","14","NaN","","","","","","","","","","","","","","",""
"","S2","","html-keyboard-response","105","212597","0.0-1.0-130.0","0","0","28927","","null","","","null","14","","NaN","","","","","","","","","","","","","",""
"","response","","html-keyboard-response","106","212699","0.0-1.0-131.0-0.0","0","0","28927","","98","","","75","14","","","1","14","training","adjacent","FE","6","5","M.jpg","P.jpg","1","0","0","",""
"","feedback","","html-keyboard-response","107","213709","0.0-1.0-132.0-0.0","0","0","28927","","null","","","null","14","","","","","","","","","","","","","","","",""
"","time_out","","html-keyboard-response","108","215713","0.0-1.0-134.0-0.0","0","0","28927","","null","","","null","14","","","","","","","","","","","","","","","",""
"","ITI","","html-keyboard-response","109","216718","0.0-1.0-135.0","0","0","28927","","null","","","null","14","","","","","","","","","","","","","","","NaN",""
"","S1","","html-keyboard-response","110","216979","0.0-1.0-137.0","0","0","28927","","null","","","null","15","","","","","","","","","","","","","","","",""
"","ISI","","html-keyboard-response","111","217143","0.0-1.0-138.0","0","0","28927","","null","","","null","15","NaN","","","","","","","","","","","","","","",""
"","S2","","html-keyboard-response","112","217399","0.0-1.0-139.0","0","0","28927","","null","","","null","15","","NaN","","","","","","","","","","","","","",""
"","response","","html-keyboard-response","113","217422","0.0-1.0-140.0-0.0","0","0","28927","","20","","","75","15","","","1","15","training","adjacent","BC","2","3","Q.jpg","L.jpg","1","1","1","",""
"","feedback","","html-keyboard-response","114","218428","0.0-1.0-141.0-0.0","0","0","28927","","null","","","null","15","","","","","","","","","","","","","","","",""
"","ITI","","html-keyboard-response","115","219437","0.0-1.0-144.0","0","0","28927","","null","","","null","15","","","","","","","","","","","","","","","NaN",""
"","S1","","html-keyboard-response","116","219694","0.0-1.0-146.0","0","0","28927","","null","","","null","16","","","","","","","","","","","","","","","",""
"","ISI","","html-keyboard-response","117","219863","0.0-1.0-147.0","0","0","28927","","null","","","null","16","NaN","","","","","","","","","","","","","","",""
"","S2","","html-keyboard-response","118","220120","0.0-1.0-148.0","0","0","28927","","null","","","null","16","","NaN","","","","","","","","","","","","","",""
"","response","","html-keyboard-response","119","220355","0.0-1.0-149.0-0.0","0","0","28927","","231","","","68","16","","","1","16","training","adjacent","GF","7","6","N.jpg","M.jpg","0","0","1","",""
"","feedback","","html-keyboard-response","120","221360","0.0-1.0-150.0-0.0","0","0","28927","","null","","","null","16","","","","","","","","","","","","","","","",""
"","ITI","","html-keyboard-response","121","222370","0.0-1.0-153.0","0","0","28927","","null","","","null","16","","","","","","","","","","","","","","","NaN",""
"","S1","","html-keyboard-response","122","222629","0.0-1.0-155.0","0","0","28927","","null","","","null","17","","","","","","","","","","","","","","","",""
"","ISI","","html-keyboard-response","123","222790","0.0-1.0-156.0","0","0","28927","","null","","","null","17","NaN","","","","","","","","","","","","","","",""
"","S2","","html-keyboard-response","124","223049","0.0-1.0-157.0","0","0","28927","","null","","","null","17","","NaN","","","","","","","","","","","","","",""
"","response","","html-keyboard-response","125","223334","0.0-1.0-158.0-0.0","0","0","28927","","281","","","68","17","","","1","17","training","adjacent","CB","3","2","L.jpg","Q.jpg","0","0","1","",""
"","feedback","","html-keyboard-response","126","224343","0.0-1.0-159.0-0.0","0","0","28927","","null","","","null","17","","","","","","","","","","","","","","","",""
"","ITI","","html-keyboard-response","127","225349","0.0-1.0-162.0","0","0","28927","","null","","","null","17","","","","","","","","","","","","","","","NaN",""
"","S1","","html-keyboard-response","128","225614","0.0-1.0-164.0","0","0","28927","","null","","","null","18","","","","","","","","","","","","","","","",""
"","ISI","","html-keyboard-response","129","225773","0.0-1.0-165.0","0","0","28927","","null","","","null","18","NaN","","","","","","","","","","","","","","",""
"","S2","","html-keyboard-response","130","226044","0.0-1.0-166.0","0","0","28927","","null","","","null","18","","NaN","","","","","","","","","","","","","",""
"","response","","html-keyboard-response","131","226346","0.0-1.0-167.0-0.0","0","0","28927","","298","","","75","18","","","1","18","training","adjacent","ED","5","4","P.jpg","R.jpg","1","0","0","",""
"","feedback","","html-keyboard-response","132","227353","0.0-1.0-168.0-0.0","0","0","28927","","null","","","null","18","","","","","","","","","","","","","","","",""
"","time_out","","html-keyboard-response","133","229364","0.0-1.0-170.0-0.0","0","0","28927","","null","","","null","18","","","","","","","","","","","","","","","",""
"","ITI","","html-keyboard-response","134","230368","0.0-1.0-171.0","0","0","28927","","null","","","null","18","","","","","","","","","","","","","","","NaN",""
"","S1","","html-keyboard-response","135","230626","0.0-1.0-173.0","0","0","28927","","null","","","null","19","","","","","","","","","","","","","","","",""
"","ISI","","html-keyboard-response","136","230789","0.0-1.0-174.0","0","0","28927","","null","","","null","19","NaN","","","","","","","","","","","","","","",""
"","S2","","html-keyboard-response","137","231050","0.0-1.0-175.0","0","0","28927","","null","","","null","19","","NaN","","","","","","","","","","","","","",""
"","response","","html-keyboard-response","138","231096","0.0-1.0-176.0-0.0","0","0","28927","","41","","","75","19","","","1","19","training","adjacent","GF","7","6","N.jpg","M.jpg","1","0","0","",""
"","feedback","","html-keyboard-response","139","232101","0.0-1.0-177.0-0.0","0","0","28927","","null","","","null","19","","","","","","","","","","","","","","","",""
"","time_out","","html-keyboard-response","140","234114","0.0-1.0-179.0-0.0","0","0","28927","","null","","","null","19","","","","","","","","","","","","","","","",""
"","ITI","","html-keyboard-response","141","235119","0.0-1.0-180.0","0","0","28927","","null","","","null","19","","","","","","","","","","","","","","","NaN",""
"","S1","","html-keyboard-response","142","235387","0.0-1.0-182.0","0","0","28927","","null","","","null","20","","","","","","","","","","","","","","","",""
"","ISI","","html-keyboard-response","143","235551","0.0-1.0-183.0","0","0","28927","","null","","","null","20","NaN","","","","","","","","","","","","","","",""
"","S2","","html-keyboard-response","144","235815","0.0-1.0-184.0","0","0","28927","","null","","","null","20","","NaN","","","","","","","","","","","","","",""
"","response","","html-keyboard-response","145","235871","0.0-1.0-185.0-0.0","0","0","28927","","53","","","68","20","","","1","20","training","adjacent","AB","1","2","O.jpg","Q.jpg","0","1","0","",""
"","feedback","","html-keyboard-response","146","236880","0.0-1.0-186.0-0.0","0","0","28927","","null","","","null","20","","","","","","","","","","","","","","","",""
"","time_out","","html-keyboard-response","147","238885","0.0-1.0-188.0-0.0","0","0","28927","","null","","","null","20","","","","","","","","","","","","","","","",""
"","ITI","","html-keyboard-response","148","239900","0.0-1.0-189.0","0","0","28927","","null","","","null","20","","","","","","","","","","","","","","","NaN",""
"","S1","","html-keyboard-response","149","240159","0.0-1.0-191.0","0","0","28927","","null","","","null","21","","","","","","","","","","","","","","","",""
"","ISI","","html-keyboard-response","150","240321","0.0-1.0-192.0","0","0","28927","","null","","","null","21","NaN","","","","","","","","","","","","","","",""
"","S2","","html-keyboard-response","151","240585","0.0-1.0-193.0","0","0","28927","","null","","","null","21","","NaN","","","","","","","","","","","","","",""
"","response","","html-keyboard-response","152","240599","0.0-1.0-194.0-0.0","0","0","28927","","11","","","68","21","","","1","21","training","adjacent","DE","4","5","R.jpg","P.jpg","0","1","0","",""
"","feedback","","html-keyboard-response","153","241614","0.0-1.0-195.0-0.0","0","0","28927","","null","","","null","21","","","","","","","","","","","","","","","",""
"","time_out","","html-keyboard-response","154","243620","0.0-1.0-197.0-0.0","0","0","28927","","null","","","null","21","","","","","","","","","","","","","","","",""
"","ITI","","html-keyboard-response","155","244627","0.0-1.0-198.0","0","0","28927","","null","","","null","21","","","","","","","","","","","","","","","NaN",""
"","S1","","html-keyboard-response","156","244891","0.0-1.0-200.0","0","0","28927","","null","","","null","22","","","","","","","","","","","","","","","",""
"","ISI","","html-keyboard-response","157","245045","0.0-1.0-201.0","0","0","28927","","null","","","null","22","NaN","","","","","","","","","","","","","","",""
"","S2","","html-keyboard-response","158","245301","0.0-1.0-202.0","0","0","28927","","253","","","75","22","","k","1","22","training","adjacent","EF","5","6","P.jpg","M.jpg","1","1","1","",""
"","feedback","","html-keyboard-response","159","246312","0.0-1.0-204.0-0.0","0","0","28927","","null","","","null","22","","","","","","","","","","","","","","","",""
"","ITI","","html-keyboard-response","160","247319","0.0-1.0-207.0","0","0","28927","","null","","","null","22","","","","","","","","","","","","","","","NaN",""
"","S1","","html-keyboard-response","161","247582","0.0-1.0-209.0","0","0","28927","","null","","","null","23","","","","","","","","","","","","","","","",""
"","ISI","","html-keyboard-response","162","247739","0.0-1.0-210.0","0","0","28927","","null","","","null","23","NaN","","","","","","","","","","","","","","",""
"","S2","","html-keyboard-response","163","248011","0.0-1.0-211.0","0","0","28927","","null","","","null","23","","NaN","","","","","","","","","","","","","",""
"","response","","html-keyboard-response","164","248163","0.0-1.0-212.0-0.0","0","0","28927","","148","","","75","23","","","1","23","training","adjacent","FE","6","5","M.jpg","P.jpg","1","0","0","",""
"","feedback","","html-keyboard-response","165","249174","0.0-1.0-213.0-0.0","0","0","28927","","null","","","null","23","","","","","","","","","","","","","","","",""
"","time_out","","html-keyboard-response","166","251184","0.0-1.0-215.0-0.0","0","0","28927","","null","","","null","23","","","","","","","","","","","","","","","",""
"","ITI","","html-keyboard-response","167","252193","0.0-1.0-216.0","0","0","28927","","null","","","null","23","","","","","","","","","","","","","","","NaN",""
"","S1","","html-keyboard-response","168","252450","0.0-1.0-218.0","0","0","28927","","null","","","null","24","","","","","","","","","","","","","","","",""
"","ISI","","html-keyboard-response","169","252604","0.0-1.0-219.0","0","0","28927","","null","","","null","24","NaN","","","","","","","","","","","","","","",""
"","S2","","html-keyboard-response","170","252862","0.0-1.0-220.0","0","0","28927","","null","","","null","24","","NaN","","","","","","","","","","","","","",""
"","response","","html-keyboard-response","171","252908","0.0-1.0-221.0-0.0","0","0","28927","","43","","","75","24","","","1","24","training","adjacent","FE","6","5","M.jpg","P.jpg","1","0","0","",""
"","feedback","","html-keyboard-response","172","253918","0.0-1.0-222.0-0.0","0","0","28927","","null","","","null","24","","","","","","","","","","","","","","","",""
"","time_out","","html-keyboard-response","173","255926","0.0-1.0-224.0-0.0","0","0","28927","","null","","","null","24","","","","","","","","","","","","","","","",""
"","ITI","","html-keyboard-response","174","256939","0.0-1.0-225.0","0","0","28927","","null","","","null","24","","","","","","","","","","","","","","","NaN",""
"","S1","","html-keyboard-response","175","257210","0.0-1.0-227.0","0","0","28927","","null","","","null","25","","","","","","","","","","","","","","","",""
"","ISI","","html-keyboard-response","176","257364","0.0-1.0-228.0","0","0","28927","","null","","","null","25","NaN","","","","","","","","","","","","","","",""
"","S2","","html-keyboard-response","177","257624","0.0-1.0-229.0","0","0","28927","","null","","","null","25","","NaN","","","","","","","","","","","","","",""
"","response","","html-keyboard-response","178","257634","0.0-1.0-230.0-0.0","0","0","28927","","6","","","75","25","","","1","25","training","adjacent","DC","4","3","R.jpg","L.jpg","1","0","0","",""
"","feedback","","html-keyboard-response","179","258645","0.0-1.0-231.0-0.0","0","0","28927","","null","","","null","25","","","","","","","","","","","","","","","",""
"","time_out","","html-keyboard-response","180","260652","0.0-1.0-233.0-0.0","0","0","28927","","null","","","null","25","","","","","","","","","","","","","","","",""
"","ITI","","html-keyboard-response","181","261664","0.0-1.0-234.0","0","0","28927","","null","","","null","25","","","","","","","","","","","","","","","NaN",""
"","S1","","html-keyboard-response","182","261926","0.0-1.0-236.0","0","0","28927","","null","","","null","26","","","","","","","","","","","","","","","",""
"","ISI","","html-keyboard-response","183","262084","0.0-1.0-237.0","0","0","28927","","null","","","null","26","NaN","","","","","","","","","","","","","","",""
"","S2","","html-keyboard-response","184","262328","0.0-1.0-238.0","0","0","28927","","241","","","68","26","","d","1","26","training","adjacent","ED","5","4","P.jpg","R.jpg","0","0","1","",""
"","feedback","","html-keyboard-response","185","263343","0.0-1.0-240.0-0.0","0","0","28927","","null","","","null","26","","","","","","","","","","","","","","","",""
"","ITI","","html-keyboard-response","186","264359","0.0-1.0-243.0","0","0","28927","","null","","","null","26","","","","","","","","","","","","","","","NaN",""
"","S1","","html-keyboard-response","187","264613","0.0-1.0-245.0","0","0","28927","","null","","","null","27","","","","","","","","","","","","","","","",""
"","ISI","","html-keyboard-response","188","264777","0.0-1.0-246.0","0","0","28927","","null","","","null","27","NaN","","","","","","","","","","","","","","",""
"","S2","","html-keyboard-response","189","265040","0.0-1.0-247.0","0","0","28927","","null","","","null","27","","NaN","","","","","","","","","","","","","",""
"","response","","html-keyboard-response","190","265078","0.0-1.0-248.0-0.0","0","0","28927","","34","","","75","27","","","1","27","training","adjacent","DC","4","3","R.jpg","L.jpg","1","0","0","",""
"","feedback","","html-keyboard-response","191","266091","0.0-1.0-249.0-0.0","0","0","28927","","null","","","null","27","","","","","","","","","","","","","","","",""
"","time_out","","html-keyboard-response","192","268094","0.0-1.0-251.0-0.0","0","0","28927","","null","","","null","27","","","","","","","","","","","","","","","",""
"","ITI","","html-keyboard-response","193","269102","0.0-1.0-252.0","0","0","28927","","null","","","null","27","","","","","","","","","","","","","","","NaN",""
"","S1","","html-keyboard-response","194","269363","0.0-1.0-254.0","0","0","28927","","null","","","null","28","","","","","","","","","","","","","","","",""
"","ISI","","html-keyboard-response","195","269524","0.0-1.0-255.0","0","0","28927","","null","","","null","28","NaN","","","","","","","","","","","","","","",""
"","S2","","html-keyboard-response","196","269771","0.0-1.0-256.0","0","0","28927","","243","","","75","28","","k","1","28","training","adjacent","BA","2","1","Q.jpg","O.jpg","1","0","0","",""
"","feedback","","html-keyboard-response","197","270788","0.0-1.0-258.0-0.0","0","0","28927","","null","","","null","28","","","","","","","","","","","","","","","",""
"","time_out","","html-keyboard-response","198","272793","0.0-1.0-260.0-0.0","0","0","28927","","null","","","null","28","","","","","","","","","","","","","","","",""
"","ITI","","html-keyboard-response","199","273802","0.0-1.0-261.0","0","0","28927","","null","","","null","28","","","","","","","","","","","","","","","NaN",""
"","S1","","html-keyboard-response","200","274059","0.0-1.0-263.0","0","0","28927","","null","","","null","29","","","","","","","","","","","","","","","",""
"","ISI","","html-keyboard-response","201","274216","0.0-1.0-264.0","0","0","28927","","null","","","null","29","NaN","","","","","","","","","","","","","","",""
"","S2","","html-keyboard-response","202","274445","0.0-1.0-265.0","0","0","28927","","226","","","75","29","","k","1","29","training","adjacent","DC","4","3","R.jpg","L.jpg","1","0","0","",""
"","feedback","","html-keyboard-response","203","275463","0.0-1.0-267.0-0.0","0","0","28927","","null","","","null","29","","","","","","","","","","","","","","","",""
"","time_out","","html-keyboard-response","204","277475","0.0-1.0-269.0-0.0","0","0","28927","","null","","","null","29","","","","","","","","","","","","","","","",""
"","ITI","","html-keyboard-response","205","278487","0.0-1.0-270.0","0","0","28927","","null","","","null","29","","","","","","","","","","","","","","","NaN",""
"","S1","","html-keyboard-response","206","278742","0.0-1.0-272.0","0","0","28927","","null","","","null","30","","","","","","","","","","","","","","","",""
"","ISI","","html-keyboard-response","207","278896","0.0-1.0-273.0","0","0","28927","","null","","","null","30","NaN","","","","","","","","","","","","","","",""
"","S2","","html-keyboard-response","208","279154","0.0-1.0-274.0","0","0","28927","","null","","","null","30","","NaN","","","","","","","","","","","","","",""
"","response","","html-keyboard-response","209","279156","0.0-1.0-275.0-0.0","0","0","28927","","1","","","75","30","","","1","30","training","adjacent","CB","3","2","L.jpg","Q.jpg","1","0","0","",""
"","feedback","","html-keyboard-response","210","280165","0.0-1.0-276.0-0.0","0","0","28927","","null","","","null","30","","","","","","","","","","","","","","","",""
"","time_out","","html-keyboard-response","211","282170","0.0-1.0-278.0-0.0","0","0","28927","","null","","","null","30","","","","","","","","","","","","","","","",""
"","ITI","","html-keyboard-response","212","283177","0.0-1.0-279.0","0","0","28927","","null","","","null","30","","","","","","","","","","","","","","","NaN",""
"","S1","","html-keyboard-response","213","283439","0.0-1.0-281.0","0","0","28927","","null","","","null","31","","","","","","","","","","","","","","","",""
"","ISI","","html-keyboard-response","214","283602","0.0-1.0-282.0","0","0","28927","","null","","","null","31","NaN","","","","","","","","","","","","","","",""
"","S2","","html-keyboard-response","215","283824","0.0-1.0-283.0","0","0","28927","","218","","","68","31","","d","1","31","training","adjacent","BC","2","3","Q.jpg","L.jpg","0","1","0","",""
"","feedback","","html-keyboard-response","216","284830","0.0-1.0-285.0-0.0","0","0","28927","","null","","","null","31","","","","","","","","","","","","","","","",""
"","time_out","","html-keyboard-response","217","286835","0.0-1.0-287.0-0.0","0","0","28927","","null","","","null","31","","","","","","","","","","","","","","","",""
"","ITI","","html-keyboard-response","218","287844","0.0-1.0-288.0","0","0","28927","","null","","","null","31","","","","","","","","","","","","","","","NaN",""
"","S1","","html-keyboard-response","219","288103","0.0-1.0-290.0","0","0","28927","","null","","","null","32","","","","","","","","","","","","","","","",""
"","ISI","","html-keyboard-response","220","288266","0.0-1.0-291.0","0","0","28927","","null","","","null","32","NaN","","","","","","","","","","","","","","",""
"","S2","","html-keyboard-response","221","288395","0.0-1.0-292.0","0","0","28927","","125","","","68","32","","d","1","32","training","adjacent","BA","2","1","Q.jpg","O.jpg","0","0","1","",""
"","feedback","","html-keyboard-response","222","289409","0.0-1.0-294.0-0.0","0","0","28927","","null","","","null","32","","","","","","","","","","","","","","","",""
"","ITI","","html-keyboard-response","223","290416","0.0-1.0-297.0","0","0","28927","","null","","","null","32","","","","","","","","","","","","","","","NaN",""
"","S1","","html-keyboard-response","224","290678","0.0-1.0-299.0","0","0","28927","","null","","","null","33","","","","","","","","","","","","","","","",""
"","ISI","","html-keyboard-response","225","290841","0.0-1.0-300.0","0","0","28927","","null","","","null","33","NaN","","","","","","","","","","","","","","",""
"","S2","","html-keyboard-response","226","291097","0.0-1.0-301.0","0","0","28927","","null","","","null","33","","NaN","","","","","","","","","","","","","",""
"","response","","html-keyboard-response","227","291212","0.0-1.0-302.0-0.0","0","0","28927","","111","","","68","33","","","1","33","training","adjacent","AB","1","2","O.jpg","Q.jpg","0","1","0","",""
"","feedback","","html-keyboard-response","228","292223","0.0-1.0-303.0-0.0","0","0","28927","","null","","","null","33","","","","","","","","","","","","","","","",""
"","time_out","","html-keyboard-response","229","294233","0.0-1.0-305.0-0.0","0","0","28927","","null","","","null","33","","","","","","","","","","","","","","","",""
"","ITI","","html-keyboard-response","230","295244","0.0-1.0-306.0","0","0","28927","","null","","","null","33","","","","","","","","","","","","","","","NaN",""
"","S1","","html-keyboard-response","231","295506","0.0-1.0-308.0","0","0","28927","","null","","","null","34","","","","","","","","","","","","","","","",""
"","ISI","","html-keyboard-response","232","295664","0.0-1.0-309.0","0","0","28927","","null","","","null","34","NaN","","","","","","","","","","","","","","",""
"","S2","","html-keyboard-response","233","295918","0.0-1.0-310.0","0","0","28927","","null","","","null","34","","NaN","","","","","","","","","","","","","",""
"","response","","html-keyboard-response","234","296039","0.0-1.0-311.0-0.0","0","0","28927","","117","","","75","34","","","1","34","training","adjacent","FE","6","5","M.jpg","P.jpg","1","0","0","",""
"","feedback","","html-keyboard-response","235","297054","0.0-1.0-312.0-0.0","0","0","28927","","null","","","null","34","","","","","","","","","","","","","","","",""
"","time_out","","html-keyboard-response","236","299061","0.0-1.0-314.0-0.0","0","0","28927","","null","","","null","34","","","","","","","","","","","","","","","",""
"","ITI","","html-keyboard-response","237","300073","0.0-1.0-315.0","0","0","28927","","null","","","null","34","","","","","","","","","","","","","","","NaN",""
"","S1","","html-keyboard-response","238","300330","0.0-1.0-317.0","0","0","28927","","null","","","null","35","","","","","","","","","","","","","","","",""
"","ISI","","html-keyboard-response","239","300485","0.0-1.0-318.0","0","0","28927","","null","","","null","35","NaN","","","","","","","","","","","","","","",""
"","S2","","html-keyboard-response","240","300682","0.0-1.0-319.0","0","0","28927","","193","","","75","35","","k","1","35","training","adjacent","CB","3","2","L.jpg","Q.jpg","1","0","0","",""
"","feedback","","html-keyboard-response","241","301688","0.0-1.0-321.0-0.0","0","0","28927","","null","","","null","35","","","","","","","","","","","","","","","",""
"","time_out","","html-keyboard-response","242","303699","0.0-1.0-323.0-0.0","0","0","28927","","null","","","null","35","","","","","","","","","","","","","","","",""
"","ITI","","html-keyboard-response","243","304706","0.0-1.0-324.0","0","0","28927","","null","","","null","35","","","","","","","","","","","","","","","NaN",""
"","S1","","html-keyboard-response","244","304962","0.0-1.0-326.0","0","0","28927","","null","","","null","36","","","","","","","","","","","","","","","",""
"","ISI","","html-keyboard-response","245","305119","0.0-1.0-327.0","0","0","28927","","61","","","75","36","k","","","","","","","","","","","","","","",""
"","S2","","html-keyboard-response","246","305383","0.0-1.0-328.0","0","0","28927","","null","","","null","36","","NaN","","","","","","","","","","","","","",""
"","response","","html-keyboard-response","247","305755","0.0-1.0-329.0-0.0","0","0","28927","","368","","","75","36","","","1","36","training","adjacent","FG","6","7","M.jpg","N.jpg","1","1","1","",""
"","feedback","","html-keyboard-response","248","306763","0.0-1.0-330.0-0.0","0","0","28927","","null","","","null","36","","","","","","","","","","","","","","","",""
"","ITI","","html-keyboard-response","249","307772","0.0-1.0-333.0","0","0","28927","","null","","","null","36","","","","","","","","","","","","","","","NaN",""
"","S1","","html-keyboard-response","250","308028","0.0-1.0-335.0","0","0","28927","","null","","","null","37","","","","","","","","","","","","","","","",""
"","ISI","","html-keyboard-response","251","308191","0.0-1.0-336.0","0","0","28927","","null","","","null","37","NaN","","","","","","","","","","","","","","",""
"","S2","","html-keyboard-response","252","308309","0.0-1.0-337.0","0","0","28927","","114","","","75","37","","k","1","37","training","adjacent","DE","4","5","R.jpg","P.jpg","1","1","1","",""
"","feedback","","html-keyboard-response","253","309324","0.0-1.0-339.0-0.0","0","0","28927","","null","","","null","37","","","","","","","","","","","","","","","",""
"","ITI","","html-keyboard-response","254","310334","0.0-1.0-342.0","0","0","28927","","null","","","null","37","","","","","","","","","","","","","","","NaN",""
"","S1","","html-keyboard-response","255","310592","0.0-1.0-344.0","0","0","28927","","null","","","null","38","","","","","","","","","","","","","","","",""
"","ISI","","html-keyboard-response","256","310754","0.0-1.0-345.0","0","0","28927","","null","","","null","38","NaN","","","","","","","","","","","","","","",""
"","S2","","html-keyboard-response","257","310832","0.0-1.0-346.0","0","0","28927","","74","","","68","38","","d","1","38","training","adjacent","BC","2","3","Q.jpg","L.jpg","0","1","0","",""
"","feedback","","html-keyboard-response","258","311840","0.0-1.0-348.0-0.0","0","0","28927","","null","","","null","38","","","","","","","","","","","","","","","",""
"","time_out","","html-keyboard-response","259","313849","0.0-1.0-350.0-0.0","0","0","28927","","null","","","null","38","","","","","","","","","","","","","","","",""
"","ITI","","html-keyboard-response","260","314861","0.0-1.0-351.0","0","0","28927","","null","","","null","38","","","","","","","","","","","","","","","NaN",""
"","S1","","html-keyboard-response","261","315122","0.0-1.0-353.0","0","0","28927","","null","","","null","39","","","","","","","","","","","","","","","",""
"","ISI","","html-keyboard-response","262","315294","0.0-1.0-354.0","0","0","28927","","67","","","75","39","k","","","","","","","","","","","","","","",""
"","S2","","html-keyboard-response","263","315555","0.0-1.0-355.0","0","0","28927","","null","","","null","39","","NaN","","","","","","","","","","","","","",""
"","response","","html-keyboard-response","264","315780","0.0-1.0-356.0-0.0","0","0","28927","","223","","","75","39","","","1","39","training","adjacent","DE","4","5","R.jpg","P.jpg","1","1","1","",""
"","feedback","","html-keyboard-response","265","316784","0.0-1.0-357.0-0.0","0","0","28927","","null","","","null","39","","","","","","","","","","","","","","","",""
"","ITI","","html-keyboard-response","266","317793","0.0-1.0-360.0","0","0","28927","","null","","","null","39","","","","","","","","","","","","","","","NaN",""
"","S1","","html-keyboard-response","267","318063","0.0-1.0-362.0","0","0","28927","","null","","","null","40","","","","","","","","","","","","","","","",""
"","ISI","","html-keyboard-response","268","318222","0.0-1.0-363.0","0","0","28927","","92","","","68","40","d","","","","","","","","","","","","","","",""
"","S2","","html-keyboard-response","269","318478","0.0-1.0-364.0","0","0","28927","","null","","","null","40","","NaN","","","","","","","","","","","","","",""
"","response","","html-keyboard-response","270","318506","0.0-1.0-365.0-0.0","0","0","28927","","24","","","68","40","","","1","40","training","adjacent","FG","6","7","M.jpg","N.jpg","0","1","0","",""
"","feedback","","html-keyboard-response","271","319521","0.0-1.0-366.0-0.0","0","0","28927","","null","","","null","40","","","","","","","","","","","","","","","",""
"","time_out","","html-keyboard-response","272","321536","0.0-1.0-368.0-0.0","0","0","28927","","null","","","null","40","","","","","","","","","","","","","","","",""
"","ITI","","html-keyboard-response","273","322542","0.0-1.0-369.0","0","0","28927","","null","","","null","40","","","","","","","","","","","","","","","NaN",""
"","S1","","html-keyboard-response","274","322802","0.0-1.0-371.0","0","0","28927","","null","","","null","41","","","","","","","","","","","","","","","",""
"","ISI","","html-keyboard-response","275","322963","0.0-1.0-372.0","0","0","28927","","null","","","null","41","NaN","","","","","","","","","","","","","","",""
"","S2","","html-keyboard-response","276","323170","0.0-1.0-373.0","0","0","28927","","203","","","75","41","","k","1","41","training","adjacent","CD","3","4","L.jpg","R.jpg","1","1","1","",""
"","feedback","","html-keyboard-response","277","324177","0.0-1.0-375.0-0.0","0","0","28927","","null","","","null","41","","","","","","","","","","","","","","","",""
"","ITI","","html-keyboard-response","278","325185","0.0-1.0-378.0","0","0","28927","","null","","","null","41","","","","","","","","","","","","","","","NaN",""
"","S1","","html-keyboard-response","279","325448","0.0-1.0-380.0","0","0","28927","","null","","","null","42","","","","","","","","","","","","","","","",""
"","ISI","","html-keyboard-response","280","325609","0.0-1.0-381.0","0","0","28927","","36","","","68","42","d","","","","","","","","","","","","","","",""
"","S2","","html-keyboard-response","281","325670","0.0-1.0-382.0","0","0","28927","","56","","","68","42","","d","1","42","training","adjacent","FG","6","7","M.jpg","N.jpg","0","1","0","",""
"","feedback","","html-keyboard-response","282","326689","0.0-1.0-384.0-0.0","0","0","28927","","null","","","null","42","","","","","","","","","","","","","","","",""
"","time_out","","html-keyboard-response","283","328699","0.0-1.0-386.0-0.0","0","0","28927","","null","","","null","42","","","","","","","","","","","","","","","",""
"","ITI","","html-keyboard-response","284","329709","0.0-1.0-387.0","0","0","28927","","null","","","null","42","","","","","","","","","","","","","","","NaN",""
"","S1","","html-keyboard-response","285","329971","0.0-1.0-389.0","0","0","28927","","null","","","null","43","","","","","","","","","","","","","","","",""
"","ISI","","html-keyboard-response","286","330124","0.0-1.0-390.0","0","0","28927","","null","","","null","43","NaN","","","","","","","","","","","","","","",""
"","S2","","html-keyboard-response","287","330386","0.0-1.0-391.0","0","0","28927","","null","","","null","43","","NaN","","","","","","","","","","","","","",""
"","response","","html-keyboard-response","288","330485","0.0-1.0-392.0-0.0","0","0","28927","","96","","","75","43","","","1","43","training","adjacent","ED","5","4","P.jpg","R.jpg","1","0","0","",""
"","feedback","","html-keyboard-response","289","331497","0.0-1.0-393.0-0.0","0","0","28927","","null","","","null","43","","","","","","","","","","","","","","","",""
"","time_out","","html-keyboard-response","290","333510","0.0-1.0-395.0-0.0","0","0","28927","","null","","","null","43","","","","","","","","","","","","","","","",""
"","ITI","","html-keyboard-response","291","334520","0.0-1.0-396.0","0","0","28927","","null","","","null","43","","","","","","","","","","","","","","","NaN",""
"","S1","","html-keyboard-response","292","334775","0.0-1.0-398.0","0","0","28927","","null","","","null","44","","","","","","","","","","","","","","","",""
"","ISI","","html-keyboard-response","293","334935","0.0-1.0-399.0","0","0","28927","","null","","","null","44","NaN","","","","","","","","","","","","","","",""
"","S2","","html-keyboard-response","294","335120","0.0-1.0-400.0","0","0","28927","","181","","","68","44","","d","1","44","training","adjacent","CD","3","4","L.jpg","R.jpg","0","1","0","",""
"","feedback","","html-keyboard-response","295","336126","0.0-1.0-402.0-0.0","0","0","28927","","null","","","null","44","","","","","","","","","","","","","","","",""
"","time_out","","html-keyboard-response","296","338139","0.0-1.0-404.0-0.0","0","0","28927","","null","","","null","44","","","","","","","","","","","","","","","",""
"","ITI","","html-keyboard-response","297","339152","0.0-1.0-405.0","0","0","28927","","null","","","null","44","","","","","","","","","","","","","","","NaN",""
"","S1","","html-keyboard-response","298","339407","0.0-1.0-407.0","0","0","28927","","null","","","null","45","","","","","","","","","","","","","","","",""
"","ISI","","html-keyboard-response","299","339575","0.0-1.0-408.0","0","0","28927","","null","","","null","45","NaN","","","","","","","","","","","","","","",""
"","S2","","html-keyboard-response","300","339687","0.0-1.0-409.0","0","0","28927","","107","","","68","45","","d","1","45","training","adjacent","BA","2","1","Q.jpg","O.jpg","0","0","1","",""
"","feedback","","html-keyboard-response","301","340694","0.0-1.0-411.0-0.0","0","0","28927","","null","","","null","45","","","","","","","","","","","","","","","",""
"","ITI","","html-keyboard-response","302","341701","0.0-1.0-414.0","0","0","28927","","null","","","null","45","","","","","","","","","","","","","","","NaN",""
"","S1","","html-keyboard-response","303","341956","0.0-1.0-416.0","0","0","28927","","null","","","null","46","","","","","","","","","","","","","","","",""
"","ISI","","html-keyboard-response","304","342119","0.0-1.0-417.0","0","0","28927","","null","","","null","46","NaN","","","","","","","","","","","","","","",""
"","S2","","html-keyboard-response","305","342278","0.0-1.0-418.0","0","0","28927","","155","","","75","46","","k","1","46","training","adjacent","GF","7","6","N.jpg","M.jpg","1","0","0","",""
"","feedback","","html-keyboard-response","306","343289","0.0-1.0-420.0-0.0","0","0","28927","","null","","","null","46","","","","","","","","","","","","","","","",""
"","time_out","","html-keyboard-response","307","345294","0.0-1.0-422.0-0.0","0","0","28927","","null","","","null","46","","","","","","","","","","","","","","","",""
"","ITI","","html-keyboard-response","308","346309","0.0-1.0-423.0","0","0","28927","","null","","","null","46","","","","","","","","","","","","","","","NaN",""
"","S1","","html-keyboard-response","309","346565","0.0-1.0-425.0","0","0","28927","","null","","","null","47","","","","","","","","","","","","","","","",""
"","ISI","","html-keyboard-response","310","346734","0.0-1.0-426.0","0","0","28927","","null","","","null","47","NaN","","","","","","","","","","","","","","",""
"","S2","","html-keyboard-response","311","346991","0.0-1.0-427.0","0","0","28927","","null","","","null","47","","NaN","","","","","","","","","","","","","",""
"","response","","html-keyboard-response","312","347197","0.0-1.0-428.0-0.0","0","0","28927","","202","","","75","47","","","1","47","training","adjacent","CB","3","2","L.jpg","Q.jpg","1","0","0","",""
"","feedback","","html-keyboard-response","313","348209","0.0-1.0-429.0-0.0","0","0","28927","","null","","","null","47","","","","","","","","","","","","","","","",""
"","time_out","","html-keyboard-response","314","350220","0.0-1.0-431.0-0.0","0","0","28927","","null","","","null","47","","","","","","","","","","","","","","","",""
"","ITI","","html-keyboard-response","315","351225","0.0-1.0-432.0","0","0","28927","","null","","","null","47","","","","","","","","","","","","","","","NaN",""
"","block_over","","html-keyboard-response","316","356424","0.0-1.0-433.0-0.0","0","0","28927","","5195","","","32","47","","","","","","","","","","","","","","","",""
"","S1","","html-keyboard-response","317","356686","0.0-1.0-434.0","0","0","28927","","null","","","null","48","","","","","","","","","","","","","","","",""
"","ISI","","html-keyboard-response","318","356844","0.0-1.0-435.0","0","0","28927","","null","","","null","48","NaN","","","","","","","","","","","","","","",""
"","S2","","html-keyboard-response","319","357103","0.0-1.0-436.0","0","0","28927","","null","","","null","48","","NaN","","","","","","","","","","","","","",""
"","response","","html-keyboard-response","320","357200","0.0-1.0-437.0-0.0","0","0","28927","","94","","","68","48","","","2","48","training","adjacent","BA","2","1","Q.jpg","O.jpg","0","0","1","",""
"","feedback","","html-keyboard-response","321","358213","0.0-1.0-438.0-0.0","0","0","28927","","null","","","null","48","","","","","","","","","","","","","","","",""
"","ITI","","html-keyboard-response","322","359218","0.0-1.0-441.0","0","0","28927","","null","","","null","48","","","","","","","","","","","","","","","NaN",""
"","S1","","html-keyboard-response","323","359478","0.0-1.0-443.0","0","0","28927","","null","","","null","49","","","","","","","","","","","","","","","",""
"","ISI","","html-keyboard-response","324","359639","0.0-1.0-444.0","0","0","28927","","null","","","null","49","NaN","","","","","","","","","","","","","","",""
"","S2","","html-keyboard-response","325","359899","0.0-1.0-445.0","0","0","28927","","null","","","null","49","","NaN","","","","","","","","","","","","","",""
"","response","","html-keyboard-response","326","359960","0.0-1.0-446.0-0.0","0","0","28927","","58","","","68","49","","","2","49","training","adjacent","CB","3","2","L.jpg","Q.jpg","0","0","1","",""
"","feedback","","html-keyboard-response","327","360971","0.0-1.0-447.0-0.0","0","0","28927","","null","","","null","49","","","","","","","","","","","","","","","",""
"","ITI","","html-keyboard-response","328","361981","0.0-1.0-450.0","0","0","28927","","null","","","null","49","","","","","","","","","","","","","","","NaN",""
"","S1","","html-keyboard-response","329","362236","0.0-1.0-452.0","0","0","28927","","null","","","null","50","","","","","","","","","","","","","","","",""
"","ISI","","html-keyboard-response","330","362400","0.0-1.0-453.0","0","0","28927","","null","","","null","50","NaN","","","","","","","","","","","","","","",""
"","S2","","html-keyboard-response","331","362659","0.0-1.0-454.0","0","0","28927","","null","","","null","50","","NaN","","","","","","","","","","","","","",""
"","response","","html-keyboard-response","332","362685","0.0-1.0-455.0-0.0","0","0","28927","","23","","","75","50","","","2","50","training","adjacent","DC","4","3","R.jpg","L.jpg","1","0","0","",""
"","feedback","","html-keyboard-response","333","363692","0.0-1.0-456.0-0.0","0","0","28927","","null","","","null","50","","","","","","","","","","","","","","","",""
"","time_out","","html-keyboard-response","334","365700","0.0-1.0-458.0-0.0","0","0","28927","","null","","","null","50","","","","","","","","","","","","","","","",""
"","ITI","","html-keyboard-response","335","366705","0.0-1.0-459.0","0","0","28927","","null","","","null","50","","","","","","","","","","","","","","","NaN",""
"","S1","","html-keyboard-response","336","366965","0.0-1.0-461.0","0","0","28927","","null","","","null","51","","","","","","","","","","","","","","","",""
"","ISI","","html-keyboard-response","337","367128","0.0-1.0-462.0","0","0","28927","","null","","","null","51","NaN","","","","","","","","","","","","","","",""
"","S2","","html-keyboard-response","338","367384","0.0-1.0-463.0","0","0","28927","","null","","","null","51","","NaN","","","","","","","","","","","","","",""
"","response","","html-keyboard-response","339","367396","0.0-1.0-464.0-0.0","0","0","28927","","8","","","75","51","","","2","51","training","adjacent","AB","1","2","O.jpg","Q.jpg","1","1","1","",""
"","feedback","","html-keyboard-response","340","368411","0.0-1.0-465.0-0.0","0","0","28927","","null","","","null","51","","","","","","","","","","","","","","","",""
"","ITI","","html-keyboard-response","341","369423","0.0-1.0-468.0","0","0","28927","","null","","","null","51","","","","","","","","","","","","","","","NaN",""
"","S1","","html-keyboard-response","342","369679","0.0-1.0-470.0","0","0","28927","","null","","","null","52","","","","","","","","","","","","","","","",""
"","ISI","","html-keyboard-response","343","369835","0.0-1.0-471.0","0","0","28927","","null","","","null","52","NaN","","","","","","","","","","","","","","",""
"","S2","","html-keyboard-response","344","370063","0.0-1.0-472.0","0","0","28927","","225","","","75","52","","k","2","52","training","adjacent","ED","5","4","P.jpg","R.jpg","1","0","0","",""
"","feedback","","html-keyboard-response","345","371071","0.0-1.0-474.0-0.0","0","0","28927","","null","","","null","52","","","","","","","","","","","","","","","",""
"","time_out","","html-keyboard-response","346","373079","0.0-1.0-476.0-0.0","0","0","28927","","null","","","null","52","","","","","","","","","","","","","","","",""
"","ITI","","html-keyboard-response","347","374097","0.0-1.0-477.0","0","0","28927","","null","","","null","52","","","","","","","","","","","","","","","NaN",""
"","S1","","html-keyboard-response","348","374356","0.0-1.0-479.0","0","0","28927","","null","","","null","53","","","","","","","","","","","","","","","",""
"","ISI","","html-keyboard-response","349","374521","0.0-1.0-480.0","0","0","28927","","null","","","null","53","NaN","","","","","","","","","","","","","","",""
"","S2","","html-keyboard-response","350","374778","0.0-1.0-481.0","0","0","28927","","null","","","null","53","","NaN","","","","","","","","","","","","","",""
"","response","","html-keyboard-response","351","374975","0.0-1.0-482.0-0.0","0","0","28927","","192","","","68","53","","","2","53","training","adjacent","CB","3","2","L.jpg","Q.jpg","0","0","1","",""
"","feedback","","html-keyboard-response","352","375996","0.0-1.0-483.0-0.0","0","0","28927","","null","","","null","53","","","","","","","","","","","","","","","",""
"","ITI","","html-keyboard-response","353","377010","0.0-1.0-486.0","0","0","28927","","null","","","null","53","","","","","","","","","","","","","","","NaN",""
"","S1","","html-keyboard-response","354","377272","0.0-1.0-488.0","0","0","28927","","null","","","null","54","","","","","","","","","","","","","","","",""
"","ISI","","html-keyboard-response","355","377434","0.0-1.0-489.0","0","0","28927","","null","","","null","54","NaN","","","","","","","","","","","","","","",""
"","S2","","html-keyboard-response","356","377688","0.0-1.0-490.0","0","0","28927","","null","","","null","54","","NaN","","","","","","","","","","","","","",""
"","response","","html-keyboard-response","357","377902","0.0-1.0-491.0-0.0","0","0","28927","","211","","","75","54","","","2","54","training","adjacent","FG","6","7","M.jpg","N.jpg","1","1","1","",""
"","feedback","","html-keyboard-response","358","378908","0.0-1.0-492.0-0.0","0","0","28927","","null","","","null","54","","","","","","","","","","","","","","","",""
"","ITI","","html-keyboard-response","359","379915","0.0-1.0-495.0","0","0","28927","","null","","","null","54","","","","","","","","","","","","","","","NaN",""
"","S1","","html-keyboard-response","360","380174","0.0-1.0-497.0","0","0","28927","","null","","","null","55","","","","","","","","","","","","","","","",""
"","ISI","","html-keyboard-response","361","380333","0.0-1.0-498.0","0","0","28927","","null","","","null","55","NaN","","","","","","","","","","","","","","",""
"","S2","","html-keyboard-response","362","380590","0.0-1.0-499.0","0","0","28927","","null","","","null","55","","NaN","","","","","","","","","","","","","",""
"","response","","html-keyboard-response","363","380677","0.0-1.0-500.0-0.0","0","0","28927","","83","","","75","55","","","2","55","training","adjacent","FG","6","7","M.jpg","N.jpg","1","1","1","",""
"","feedback","","html-keyboard-response","364","381691","0.0-1.0-501.0-0.0","0","0","28927","","null","","","null","55","","","","","","","","","","","","","","","",""
"","ITI","","html-keyboard-response","365","382702","0.0-1.0-504.0","0","0","28927","","null","","","null","55","","","","","","","","","","","","","","","NaN",""
"","S1","","html-keyboard-response","366","382958","0.0-1.0-506.0","0","0","28927","","null","","","null","56","","","","","","","","","","","","","","","",""
"","ISI","","html-keyboard-response","367","383116","0.0-1.0-507.0","0","0","28927","","null","","","null","56","NaN","","","","","","","","","","","","","","",""
"","S2","","html-keyboard-response","368","383349","0.0-1.0-508.0","0","0","28927","","229","","","68","56","","d","2","56","training","adjacent","GF","7","6","N.jpg","M.jpg","0","0","1","",""
"","feedback","","html-keyboard-response","369","384357","0.0-1.0-510.0-0.0","0","0","28927","","null","","","null","56","","","","","","","","","","","","","","","",""
"","ITI","","html-keyboard-response","370","385371","0.0-1.0-513.0","0","0","28927","","null","","","null","56","","","","","","","","","","","","","","","NaN",""
"","S1","","html-keyboard-response","371","385634","0.0-1.0-515.0","0","0","28927","","null","","","null","57","","","","","","","","","","","","","","","",""
"","ISI","","html-keyboard-response","372","385788","0.0-1.0-516.0","0","0","28927","","null","","","null","57","NaN","","","","","","","","","","","","","","",""
"","S2","","html-keyboard-response","373","386046","0.0-1.0-517.0","0","0","28927","","null","","","null","57","","NaN","","","","","","","","","","","","","",""
"","response","","html-keyboard-response","374","386212","0.0-1.0-518.0-0.0","0","0","28927","","162","","","75","57","","","2","57","training","adjacent","DE","4","5","R.jpg","P.jpg","1","1","1","",""
"","feedback","","html-keyboard-response","375","387217","0.0-1.0-519.0-0.0","0","0","28927","","null","","","null","57","","","","","","","","","","","","","","","",""
"","ITI","","html-keyboard-response","376","388222","0.0-1.0-522.0","0","0","28927","","null","","","null","57","","","","","","","","","","","","","","","NaN",""
"","S1","","html-keyboard-response","377","388484","0.0-1.0-524.0","0","0","28927","","null","","","null","58","","","","","","","","","","","","","","","",""
"","ISI","","html-keyboard-response","378","388638","0.0-1.0-525.0","0","0","28927","","null","","","null","58","NaN","","","","","","","","","","","","","","",""
"","S2","","html-keyboard-response","379","388897","0.0-1.0-526.0","0","0","28927","","null","","","null","58","","NaN","","","","","","","","","","","","","",""
"","response","","html-keyboard-response","380","388988","0.0-1.0-527.0-0.0","0","0","28927","","87","","","75","58","","","2","58","training","adjacent","CD","3","4","L.jpg","R.jpg","1","1","1","",""
"","feedback","","html-keyboard-response","381","390001","0.0-1.0-528.0-0.0","0","0","28927","","null","","","null","58","","","","","","","","","","","","","","","",""
"","ITI","","html-keyboard-response","382","391009","0.0-1.0-531.0","0","0","28927","","null","","","null","58","","","","","","","","","","","","","","","NaN",""
"","S1","","html-keyboard-response","383","391271","0.0-1.0-533.0","0","0","28927","","null","","","null","59","","","","","","","","","","","","","","","",""
"","ISI","","html-keyboard-response","384","391437","0.0-1.0-534.0","0","0","28927","","null","","","null","59","NaN","","","","","","","","","","","","","","",""
"","S2","","html-keyboard-response","385","391692","0.0-1.0-535.0","0","0","28927","","null","","","null","59","","NaN","","","","","","","","","","","","","",""
"","response","","html-keyboard-response","386","391700","0.0-1.0-536.0-0.0","0","0","28927","","5","","","68","59","","","2","59","training","adjacent","BC","2","3","Q.jpg","L.jpg","0","1","0","",""
"","feedback","","html-keyboard-response","387","392713","0.0-1.0-537.0-0.0","0","0","28927","","null","","","null","59","","","","","","","","","","","","","","","",""
"","time_out","","html-keyboard-response","388","394721","0.0-1.0-539.0-0.0","0","0","28927","","null","","","null","59","","","","","","","","","","","","","","","",""
"","ITI","","html-keyboard-response","389","395731","0.0-1.0-540.0","0","0","28927","","null","","","null","59","","","","","","","","","","","","","","","NaN",""
"","S1","","html-keyboard-response","390","395989","0.0-1.0-542.0","0","0","28927","","null","","","null","60","","","","","","","","","","","","","","","",""
"","ISI","","html-keyboard-response","391","396146","0.0-1.0-543.0","0","0","28927","","null","","","null","60","NaN","","","","","","","","","","","","","","",""
"","S2","","html-keyboard-response","392","396349","0.0-1.0-544.0","0","0","28927","","199","","","75","60","","k","2","60","training","adjacent","CB","3","2","L.jpg","Q.jpg","1","0","0","",""
"","feedback","","html-keyboard-response","393","397364","0.0-1.0-546.0-0.0","0","0","28927","","null","","","null","60","","","","","","","","","","","","","","","",""
"","time_out","","html-keyboard-response","394","399369","0.0-1.0-548.0-0.0","0","0","28927","","null","","","null","60","","","","","","","","","","","","","","","",""
"","ITI","","html-keyboard-response","395","400380","0.0-1.0-549.0","0","0","28927","","null","","","null","60","","","","","","","","","","","","","","","NaN",""
"","S1","","html-keyboard-response","396","400638","0.0-1.0-551.0","0","0","28927","","null","","","null","61","","","","","","","","","","","","","","","",""
"","ISI","","html-keyboard-response","397","400799","0.0-1.0-552.0","0","0","28927","","null","","","null","61","NaN","","","","","","","","","","","","","","",""
"","S2","","html-keyboard-response","398","401058","0.0-1.0-553.0","0","0","28927","","null","","","null","61","","NaN","","","","","","","","","","","","","",""
"","response","","html-keyboard-response","399","401117","0.0-1.0-554.0-0.0","0","0","28927","","55","","","75","61","","","2","61","training","adjacent","AB","1","2","O.jpg","Q.jpg","1","1","1","",""
"","feedback","","html-keyboard-response","400","402124","0.0-1.0-555.0-0.0","0","0","28927","","null","","","null","61","","","","","","","","","","","","","","","",""
"","ITI","","html-keyboard-response","401","403130","0.0-1.0-558.0","0","0","28927","","null","","","null","61","","","","","","","","","","","","","","","NaN",""
"","S1","","html-keyboard-response","402","403396","0.0-1.0-560.0","0","0","28927","","null","","","null","62","","","","","","","","","","","","","","","",""
"","ISI","","html-keyboard-response","403","403549","0.0-1.0-561.0","0","0","28927","","null","","","null","62","NaN","","","","","","","","","","","","","","",""
"","S2","","html-keyboard-response","404","403806","0.0-1.0-562.0","0","0","28927","","253","","","68","62","","d","2","62","training","adjacent","BC","2","3","Q.jpg","L.jpg","0","1","0","",""
"","feedback","","html-keyboard-response","405","404817","0.0-1.0-564.0-0.0","0","0","28927","","null","","","null","62","","","","","","","","","","","","","","","",""
"","time_out","","html-keyboard-response","406","406829","0.0-1.0-566.0-0.0","0","0","28927","","null","","","null","62","","","","","","","","","","","","","","","",""
"","ITI","","html-keyboard-response","407","407841","0.0-1.0-567.0","0","0","28927","","null","","","null","62","","","","","","","","","","","","","","","NaN",""
"","S1","","html-keyboard-response","408","408097","0.0-1.0-569.0","0","0","28927","","null","","","null","63","","","","","","","","","","","","","","","",""
"","ISI","","html-keyboard-response","409","408258","0.0-1.0-570.0","0","0","28927","","null","","","null","63","NaN","","","","","","","","","","","","","","",""
"","S2","","html-keyboard-response","410","408502","0.0-1.0-571.0","0","0","28927","","241","","","75","63","","k","2","63","training","adjacent","ED","5","4","P.jpg","R.jpg","1","0","0","",""
"","feedback","","html-keyboard-response","411","409512","0.0-1.0-573.0-0.0","0","0","28927","","null","","","null","63","","","","","","","","","","","","","","","",""
"","time_out","","html-keyboard-response","412","411523","0.0-1.0-575.0-0.0","0","0","28927","","null","","","null","63","","","","","","","","","","","","","","","",""
"","ITI","","html-keyboard-response","413","412531","0.0-1.0-576.0","0","0","28927","","null","","","null","63","","","","","","","","","","","","","","","NaN",""
"","S1","","html-keyboard-response","414","412795","0.0-1.0-578.0","0","0","28927","","null","","","null","64","","","","","","","","","","","","","","","",""
"","ISI","","html-keyboard-response","415","412956","0.0-1.0-579.0","0","0","28927","","null","","","null","64","NaN","","","","","","","","","","","","","","",""
"","S2","","html-keyboard-response","416","412995","0.0-1.0-580.0","0","0","28927","","36","","","68","64","","d","2","64","training","adjacent","GF","7","6","N.jpg","M.jpg","0","0","1","",""
"","feedback","","html-keyboard-response","417","414002","0.0-1.0-582.0-0.0","0","0","28927","","null","","","null","64","","","","","","","","","","","","","","","",""
"","ITI","","html-keyboard-response","418","415018","0.0-1.0-585.0","0","0","28927","","null","","","null","64","","","","","","","","","","","","","","","NaN",""
"","S1","","html-keyboard-response","419","415275","0.0-1.0-587.0","0","0","28927","","null","","","null","65","","","","","","","","","","","","","","","",""
"","ISI","","html-keyboard-response","420","415438","0.0-1.0-588.0","0","0","28927","","null","","","null","65","NaN","","","","","","","","","","","","","","",""
"","S2","","html-keyboard-response","421","415654","0.0-1.0-589.0","0","0","28927","","213","","","68","65","","d","2","65","training","adjacent","BC","2","3","Q.jpg","L.jpg","0","1","0","",""
"","feedback","","html-keyboard-response","422","416666","0.0-1.0-591.0-0.0","0","0","28927","","null","","","null","65","","","","","","","","","","","","","","","",""
"","time_out","","html-keyboard-response","423","418676","0.0-1.0-593.0-0.0","0","0","28927","","null","","","null","65","","","","","","","","","","","","","","","",""
"","ITI","","html-keyboard-response","424","419684","0.0-1.0-594.0","0","0","28927","","null","","","null","65","","","","","","","","","","","","","","","NaN",""
"","S1","","html-keyboard-response","425","419942","0.0-1.0-596.0","0","0","28927","","null","","","null","66","","","","","","","","","","","","","","","",""
"","ISI","","html-keyboard-response","426","420100","0.0-1.0-597.0","0","0","28927","","null","","","null","66","NaN","","","","","","","","","","","","","","",""
"","S2","","html-keyboard-response","427","420196","0.0-1.0-598.0","0","0","28927","","93","","","75","66","","k","2","66","training","adjacent","FG","6","7","M.jpg","N.jpg","1","1","1","",""
"","feedback","","html-keyboard-response","428","421205","0.0-1.0-600.0-0.0","0","0","28927","","null","","","null","66","","","","","","","","","","","","","","","",""
"","ITI","","html-keyboard-response","429","422215","0.0-1.0-603.0","0","0","28927","","null","","","null","66","","","","","","","","","","","","","","","NaN",""
"","S1","","html-keyboard-response","430","422471","0.0-1.0-605.0","0","0","28927","","null","","","null","67","","","","","","","","","","","","","","","",""
"","ISI","","html-keyboard-response","431","422630","0.0-1.0-606.0","0","0","28927","","null","","","null","67","NaN","","","","","","","","","","","","","","",""
"","S2","","html-keyboard-response","432","422882","0.0-1.0-607.0","0","0","28927","","249","","","75","67","","k","2","67","training","adjacent","CD","3","4","L.jpg","R.jpg","1","1","1","",""
"","feedback","","html-keyboard-response","433","423897","0.0-1.0-609.0-0.0","0","0","28927","","null","","","null","67","","","","","","","","","","","","","","","",""
"","ITI","","html-keyboard-response","434","424908","0.0-1.0-612.0","0","0","28927","","null","","","null","67","","","","","","","","","","","","","","","NaN",""
"","S1","","html-keyboard-response","435","425169","0.0-1.0-614.0","0","0","28927","","null","","","null","68","","","","","","","","","","","","","","","",""
"","ISI","","html-keyboard-response","436","425334","0.0-1.0-615.0","0","0","28927","","null","","","null","68","NaN","","","","","","","","","","","","","","",""
"","S2","","html-keyboard-response","437","425593","0.0-1.0-616.0","0","0","28927","","null","","","null","68","","NaN","","","","","","","","","","","","","",""
"","response","","html-keyboard-response","438","425605","0.0-1.0-617.0-0.0","0","0","28927","","9","","","68","68","","","2","68","training","adjacent","GF","7","6","N.jpg","M.jpg","0","0","1","",""
"","feedback","","html-keyboard-response","439","426618","0.0-1.0-618.0-0.0","0","0","28927","","null","","","null","68","","","","","","","","","","","","","","","",""
"","ITI","","html-keyboard-response","440","427634","0.0-1.0-621.0","0","0","28927","","null","","","null","68","","","","","","","","","","","","","","","NaN",""
"","S1","","html-keyboard-response","441","427898","0.0-1.0-623.0","0","0","28927","","null","","","null","69","","","","","","","","","","","","","","","",""
"","ISI","","html-keyboard-response","442","428054","0.0-1.0-624.0","0","0","28927","","null","","","null","69","NaN","","","","","","","","","","","","","","",""
"","S2","","html-keyboard-response","443","428308","0.0-1.0-625.0","0","0","28927","","null","","","null","69","","NaN","","","","","","","","","","","","","",""
"","response","","html-keyboard-response","444","428456","0.0-1.0-626.0-0.0","0","0","28927","","145","","","68","69","","","2","69","training","adjacent","DC","4","3","R.jpg","L.jpg","0","0","1","",""
"","feedback","","html-keyboard-response","445","429464","0.0-1.0-627.0-0.0","0","0","28927","","null","","","null","69","","","","","","","","","","","","","","","",""
"","ITI","","html-keyboard-response","446","430474","0.0-1.0-630.0","0","0","28927","","null","","","null","69","","","","","","","","","","","","","","","NaN",""
"","S1","","html-keyboard-response","447","430735","0.0-1.0-632.0","0","0","28927","","null","","","null","70","","","","","","","","","","","","","","","",""
"","ISI","","html-keyboard-response","448","430893","0.0-1.0-633.0","0","0","28927","","null","","","null","70","NaN","","","","","","","","","","","","","","",""
"","S2","","html-keyboard-response","449","431103","0.0-1.0-634.0","0","0","28927","","206","","","75","70","","k","2","70","training","adjacent","DE","4","5","R.jpg","P.jpg","1","1","1","",""
"","feedback","","html-keyboard-response","450","432119","0.0-1.0-636.0-0.0","0","0","28927","","null","","","null","70","","","","","","","","","","","","","","","",""
"","ITI","","html-keyboard-response","451","433135","0.0-1.0-639.0","0","0","28927","","null","","","null","70","","","","","","","","","","","","","","","NaN",""
"","S1","","html-keyboard-response","452","433398","0.0-1.0-641.0","0","0","28927","","null","","","null","71","","","","","","","","","","","","","","","",""
"","ISI","","html-keyboard-response","453","433559","0.0-1.0-642.0","0","0","28927","","null","","","null","71","NaN","","","","","","","","","","","","","","",""
"","S2","","html-keyboard-response","454","433663","0.0-1.0-643.0","0","0","28927","","100","","","68","71","","d","2","71","training","adjacent","DC","4","3","R.jpg","L.jpg","0","0","1","",""
"","feedback","","html-keyboard-response","455","434676","0.0-1.0-645.0-0.0","0","0","28927","","null","","","null","71","","","","","","","","","","","","","","","",""
"","ITI","","html-keyboard-response","456","435689","0.0-1.0-648.0","0","0","28927","","null","","","null","71","","","","","","","","","","","","","","","NaN",""
"","S1","","html-keyboard-response","457","435952","0.0-1.0-650.0","0","0","28927","","null","","","null","72","","","","","","","","","","","","","","","",""
"","ISI","","html-keyboard-response","458","436112","0.0-1.0-651.0","0","0","28927","","null","","","null","72","NaN","","","","","","","","","","","","","","",""
"","S2","","html-keyboard-response","459","436186","0.0-1.0-652.0","0","0","28927","","71","","","75","72","","k","2","72","training","adjacent","DE","4","5","R.jpg","P.jpg","1","1","1","",""
"","feedback","","html-keyboard-response","460","437190","0.0-1.0-654.0-0.0","0","0","28927","","null","","","null","72","","","","","","","","","","","","","","","",""
"","ITI","","html-keyboard-response","461","438199","0.0-1.0-657.0","0","0","28927","","null","","","null","72","","","","","","","","","","","","","","","NaN",""
"","S1","","html-keyboard-response","462","438469","0.0-1.0-659.0","0","0","28927","","null","","","null","73","","","","","","","","","","","","","","","",""
"","ISI","","html-keyboard-response","463","438632","0.0-1.0-660.0","0","0","28927","","null","","","null","73","NaN","","","","","","","","","","","","","","",""
"","S2","","html-keyboard-response","464","438745","0.0-1.0-661.0","0","0","28927","","109","","","68","73","","d","2","73","training","adjacent","DE","4","5","R.jpg","P.jpg","0","1","0","",""
"","feedback","","html-keyboard-response","465","439763","0.0-1.0-663.0-0.0","0","0","28927","","null","","","null","73","","","","","","","","","","","","","","","",""
"","time_out","","html-keyboard-response","466","441768","0.0-1.0-665.0-0.0","0","0","28927","","null","","","null","73","","","","","","","","","","","","","","","",""
"","ITI","","html-keyboard-response","467","442772","0.0-1.0-666.0","0","0","28927","","null","","","null","73","","","","","","","","","","","","","","","NaN",""
"","S1","","html-keyboard-response","468","443027","0.0-1.0-668.0","0","0","28927","","null","","","null","74","","","","","","","","","","","","","","","",""
"","ISI","","html-keyboard-response","469","443189","0.0-1.0-669.0","0","0","28927","","null","","","null","74","NaN","","","","","","","","","","","","","","",""
"","S2","","html-keyboard-response","470","443197","0.0-1.0-670.0","0","0","28927","","5","","","75","74","","k","2","74","training","adjacent","FE","6","5","M.jpg","P.jpg","1","0","0","",""
"","feedback","","html-keyboard-response","471","444206","0.0-1.0-672.0-0.0","0","0","28927","","null","","","null","74","","","","","","","","","","","","","","","",""
"","time_out","","html-keyboard-response","472","446218","0.0-1.0-674.0-0.0","0","0","28927","","null","","","null","74","","","","","","","","","","","","","","","",""
"","ITI","","html-keyboard-response","473","447224","0.0-1.0-675.0","0","0","28927","","null","","","null","74","","","","","","","","","","","","","","","NaN",""
"","S1","","html-keyboard-response","474","447486","0.0-1.0-677.0","0","0","28927","","null","","","null","75","","","","","","","","","","","","","","","",""
"","ISI","","html-keyboard-response","475","447649","0.0-1.0-678.0","0","0","28927","","null","","","null","75","NaN","","","","","","","","","","","","","","",""
"","S2","","html-keyboard-response","476","447716","0.0-1.0-679.0","0","0","28927","","62","","","68","75","","d","2","75","training","adjacent","EF","5","6","P.jpg","M.jpg","0","1","0","",""
"","feedback","","html-keyboard-response","477","448727","0.0-1.0-681.0-0.0","0","0","28927","","null","","","null","75","","","","","","","","","","","","","","","",""
"","time_out","","html-keyboard-response","478","450733","0.0-1.0-683.0-0.0","0","0","28927","","null","","","null","75","","","","","","","","","","","","","","","",""
"","ITI","","html-keyboard-response","479","451754","0.0-1.0-684.0","0","0","28927","","null","","","null","75","","","","","","","","","","","","","","","NaN",""
"","S1","","html-keyboard-response","480","452025","0.0-1.0-686.0","0","0","28927","","null","","","null","76","","","","","","","","","","","","","","","",""
"","ISI","","html-keyboard-response","481","452178","0.0-1.0-687.0","0","0","28927","","null","","","null","76","NaN","","","","","","","","","","","","","","",""
"","S2","","html-keyboard-response","482","452409","0.0-1.0-688.0","0","0","28927","","226","","","68","76","","d","2","76","training","adjacent","CB","3","2","L.jpg","Q.jpg","0","0","1","",""
"","feedback","","html-keyboard-response","483","453419","0.0-1.0-690.0-0.0","0","0","28927","","null","","","null","76","","","","","","","","","","","","","","","",""
"","ITI","","html-keyboard-response","484","454434","0.0-1.0-693.0","0","0","28927","","null","","","null","76","","","","","","","","","","","","","","","NaN",""
"","S1","","html-keyboard-response","485","454690","0.0-1.0-695.0","0","0","28927","","null","","","null","77","","","","","","","","","","","","","","","",""
"","ISI","","html-keyboard-response","486","454844","0.0-1.0-696.0","0","0","28927","","null","","","null","77","NaN","","","","","","","","","","","","","","",""
"","S2","","html-keyboard-response","487","455059","0.0-1.0-697.0","0","0","28927","","211","","","75","77","","k","2","77","training","adjacent","BA","2","1","Q.jpg","O.jpg","1","0","0","",""
"","feedback","","html-keyboard-response","488","456073","0.0-1.0-699.0-0.0","0","0","28927","","null","","","null","77","","","","","","","","","","","","","","","",""
"","time_out","","html-keyboard-response","489","458079","0.0-1.0-701.0-0.0","0","0","28927","","null","","","null","77","","","","","","","","","","","","","","","",""
"","ITI","","html-keyboard-response","490","459088","0.0-1.0-702.0","0","0","28927","","null","","","null","77","","","","","","","","","","","","","","","NaN",""
"","S1","","html-keyboard-response","491","459351","0.0-1.0-704.0","0","0","28927","","null","","","null","78","","","","","","","","","","","","","","","",""
"","ISI","","html-keyboard-response","492","459511","0.0-1.0-705.0","0","0","28927","","null","","","null","78","NaN","","","","","","","","","","","","","","",""
"","S2","","html-keyboard-response","493","459699","0.0-1.0-706.0","0","0","28927","","184","","","75","78","","k","2","78","training","adjacent","FE","6","5","M.jpg","P.jpg","1","0","0","",""
"","feedback","","html-keyboard-response","494","460711","0.0-1.0-708.0-0.0","0","0","28927","","null","","","null","78","","","","","","","","","","","","","","","",""
"","time_out","","html-keyboard-response","495","462718","0.0-1.0-710.0-0.0","0","0","28927","","null","","","null","78","","","","","","","","","","","","","","","",""
"","ITI","","html-keyboard-response","496","463723","0.0-1.0-711.0","0","0","28927","","null","","","null","78","","","","","","","","","","","","","","","NaN",""
"","S1","","html-keyboard-response","497","463977","0.0-1.0-713.0","0","0","28927","","null","","","null","79","","","","","","","","","","","","","","","",""
"","ISI","","html-keyboard-response","498","464136","0.0-1.0-714.0","0","0","28927","","null","","","null","79","NaN","","","","","","","","","","","","","","",""
"","S2","","html-keyboard-response","499","464275","0.0-1.0-715.0","0","0","28927","","133","","","68","79","","d","2","79","training","adjacent","ED","5","4","P.jpg","R.jpg","0","0","1","",""
"","feedback","","html-keyboard-response","500","465287","0.0-1.0-717.0-0.0","0","0","28927","","null","","","null","79","","","","","","","","","","","","","","","",""
"","ITI","","html-keyboard-response","501","466293","0.0-1.0-720.0","0","0","28927","","null","","","null","79","","","","","","","","","","","","","","","NaN",""
"","S1","","html-keyboard-response","502","466549","0.0-1.0-722.0","0","0","28927","","null","","","null","80","","","","","","","","","","","","","","","",""
"","ISI","","html-keyboard-response","503","466713","0.0-1.0-723.0","0","0","28927","","null","","","null","80","NaN","","","","","","","","","","","","","","",""
"","S2","","html-keyboard-response","504","466799","0.0-1.0-724.0","0","0","28927","","82","","","68","80","","d","2","80","training","adjacent","AB","1","2","O.jpg","Q.jpg","0","1","0","",""
"","feedback","","html-keyboard-response","505","467806","0.0-1.0-726.0-0.0","0","0","28927","","null","","","null","80","","","","","","","","","","","","","","","",""
"","time_out","","html-keyboard-response","506","469815","0.0-1.0-728.0-0.0","0","0","28927","","null","","","null","80","","","","","","","","","","","","","","","",""
"","ITI","","html-keyboard-response","507","470820","0.0-1.0-729.0","0","0","28927","","null","","","null","80","","","","","","","","","","","","","","","NaN",""
"","S1","","html-keyboard-response","508","471082","0.0-1.0-731.0","0","0","28927","","null","","","null","81","","","","","","","","","","","","","","","",""
"","ISI","","html-keyboard-response","509","471237","0.0-1.0-732.0","0","0","28927","","null","","","null","81","NaN","","","","","","","","","","","","","","",""
"","S2","","html-keyboard-response","510","471332","0.0-1.0-733.0","0","0","28927","","91","","","75","81","","k","2","81","training","adjacent","FE","6","5","M.jpg","P.jpg","1","0","0","",""
"","feedback","","html-keyboard-response","511","472340","0.0-1.0-735.0-0.0","0","0","28927","","null","","","null","81","","","","","","","","","","","","","","","",""
"","time_out","","html-keyboard-response","512","474345","0.0-1.0-737.0-0.0","0","0","28927","","null","","","null","81","","","","","","","","","","","","","","","",""
"","ITI","","html-keyboard-response","513","475349","0.0-1.0-738.0","0","0","28927","","null","","","null","81","","","","","","","","","","","","","","","NaN",""
"","S1","","html-keyboard-response","514","475607","0.0-1.0-740.0","0","0","28927","","null","","","null","82","","","","","","","","","","","","","","","",""
"","ISI","","html-keyboard-response","515","475767","0.0-1.0-741.0","0","0","28927","","null","","","null","82","NaN","","","","","","","","","","","","","","",""
"","S2","","html-keyboard-response","516","475820","0.0-1.0-742.0","0","0","28927","","48","","","75","82","","k","2","82","training","adjacent","BC","2","3","Q.jpg","L.jpg","1","1","1","",""
"","feedback","","html-keyboard-response","517","476830","0.0-1.0-744.0-0.0","0","0","28927","","null","","","null","82","","","","","","","","","","","","","","","",""
"","ITI","","html-keyboard-response","518","477836","0.0-1.0-747.0","0","0","28927","","null","","","null","82","","","","","","","","","","","","","","","NaN",""
"","S1","","html-keyboard-response","519","478094","0.0-1.0-749.0","0","0","28927","","null","","","null","83","","","","","","","","","","","","","","","",""
"","ISI","","html-keyboard-response","520","478254","0.0-1.0-750.0","0","0","28927","","null","","","null","83","NaN","","","","","","","","","","","","","","",""
"","S2","","html-keyboard-response","521","478469","0.0-1.0-751.0","0","0","28927","","211","","","68","83","","d","2","83","training","adjacent","ED","5","4","P.jpg","R.jpg","0","0","1","",""
"","feedback","","html-keyboard-response","522","479481","0.0-1.0-753.0-0.0","0","0","28927","","null","","","null","83","","","","","","","","","","","","","","","",""
"","ITI","","html-keyboard-response","523","480489","0.0-1.0-756.0","0","0","28927","","null","","","null","83","","","","","","","","","","","","","","","NaN",""
"","S1","","html-keyboard-response","524","480744","0.0-1.0-758.0","0","0","28927","","null","","","null","84","","","","","","","","","","","","","","","",""
"","ISI","","html-keyboard-response","525","480904","0.0-1.0-759.0","0","0","28927","","null","","","null","84","NaN","","","","","","","","","","","","","","",""
"","S2","","html-keyboard-response","526","481126","0.0-1.0-760.0","0","0","28927","","219","","","68","84","","d","2","84","training","adjacent","CD","3","4","L.jpg","R.jpg","0","1","0","",""
"","feedback","","html-keyboard-response","527","482144","0.0-1.0-762.0-0.0","0","0","28927","","null","","","null","84","","","","","","","","","","","","","","","",""
"","time_out","","html-keyboard-response","528","484147","0.0-1.0-764.0-0.0","0","0","28927","","null","","","null","84","","","","","","","","","","","","","","","",""
"","ITI","","html-keyboard-response","529","485158","0.0-1.0-765.0","0","0","28927","","null","","","null","84","","","","","","","","","","","","","","","NaN",""
"","S1","","html-keyboard-response","530","485415","0.0-1.0-767.0","0","0","28927","","null","","","null","85","","","","","","","","","","","","","","","",""
"","ISI","","html-keyboard-response","531","485575","0.0-1.0-768.0","0","0","28927","","null","","","null","85","NaN","","","","","","","","","","","","","","",""
"","S2","","html-keyboard-response","532","485669","0.0-1.0-769.0","0","0","28927","","92","","","68","85","","d","2","85","training","adjacent","CD","3","4","L.jpg","R.jpg","0","1","0","",""
"","feedback","","html-keyboard-response","533","486675","0.0-1.0-771.0-0.0","0","0","28927","","null","","","null","85","","","","","","","","","","","","","","","",""
"","time_out","","html-keyboard-response","534","488686","0.0-1.0-773.0-0.0","0","0","28927","","null","","","null","85","","","","","","","","","","","","","","","",""
"","ITI","","html-keyboard-response","535","489689","0.0-1.0-774.0","0","0","28927","","null","","","null","85","","","","","","","","","","","","","","","NaN",""
"","S1","","html-keyboard-response","536","489951","0.0-1.0-776.0","0","0","28927","","null","","","null","86","","","","","","","","","","","","","","","",""
"","ISI","","html-keyboard-response","537","490108","0.0-1.0-777.0","0","0","28927","","null","","","null","86","NaN","","","","","","","","","","","","","","",""
"","S2","","html-keyboard-response","538","490180","0.0-1.0-778.0","0","0","28927","","68","","","75","86","","k","2","86","training","adjacent","GF","7","6","N.jpg","M.jpg","1","0","0","",""
"","feedback","","html-keyboard-response","539","491191","0.0-1.0-780.0-0.0","0","0","28927","","null","","","null","86","","","","","","","","","","","","","","","",""
"","time_out","","html-keyboard-response","540","493196","0.0-1.0-782.0-0.0","0","0","28927","","null","","","null","86","","","","","","","","","","","","","","","",""
"","ITI","","html-keyboard-response","541","494211","0.0-1.0-783.0","0","0","28927","","null","","","null","86","","","","","","","","","","","","","","","NaN",""
"","S1","","html-keyboard-response","542","494467","0.0-1.0-785.0","0","0","28927","","null","","","null","87","","","","","","","","","","","","","","","",""
"","ISI","","html-keyboard-response","543","494623","0.0-1.0-786.0","0","0","28927","","null","","","null","87","NaN","","","","","","","","","","","","","","",""
"","S2","","html-keyboard-response","544","494695","0.0-1.0-787.0","0","0","28927","","68","","","75","87","","k","2","87","training","adjacent","BA","2","1","Q.jpg","O.jpg","1","0","0","",""
"","feedback","","html-keyboard-response","545","495704","0.0-1.0-789.0-0.0","0","0","28927","","null","","","null","87","","","","","","","","","","","","","","","",""
"","time_out","","html-keyboard-response","546","497715","0.0-1.0-791.0-0.0","0","0","28927","","null","","","null","87","","","","","","","","","","","","","","","",""
"","ITI","","html-keyboard-response","547","498725","0.0-1.0-792.0","0","0","28927","","null","","","null","87","","","","","","","","","","","","","","","NaN",""
"","S1","","html-keyboard-response","548","498985","0.0-1.0-794.0","0","0","28927","","null","","","null","88","","","","","","","","","","","","","","","",""
"","ISI","","html-keyboard-response","549","499154","0.0-1.0-795.0","0","0","28927","","null","","","null","88","NaN","","","","","","","","","","","","","","",""
"","S2","","html-keyboard-response","550","499217","0.0-1.0-796.0","0","0","28927","","58","","","75","88","","k","2","88","training","adjacent","DC","4","3","R.jpg","L.jpg","1","0","0","",""
"","feedback","","html-keyboard-response","551","500229","0.0-1.0-798.0-0.0","0","0","28927","","null","","","null","88","","","","","","","","","","","","","","","",""
"","time_out","","html-keyboard-response","552","502237","0.0-1.0-800.0-0.0","0","0","28927","","null","","","null","88","","","","","","","","","","","","","","","",""
"","ITI","","html-keyboard-response","553","503244","0.0-1.0-801.0","0","0","28927","","null","","","null","88","","","","","","","","","","","","","","","NaN",""
"","S1","","html-keyboard-response","554","503499","0.0-1.0-803.0","0","0","28927","","null","","","null","89","","","","","","","","","","","","","","","",""
"","ISI","","html-keyboard-response","555","503661","0.0-1.0-804.0","0","0","28927","","null","","","null","89","NaN","","","","","","","","","","","","","","",""
"","S2","","html-keyboard-response","556","503759","0.0-1.0-805.0","0","0","28927","","94","","","68","89","","d","2","89","training","adjacent","EF","5","6","P.jpg","M.jpg","0","1","0","",""
"","feedback","","html-keyboard-response","557","504769","0.0-1.0-807.0-0.0","0","0","28927","","null","","","null","89","","","","","","","","","","","","","","","",""
"","time_out","","html-keyboard-response","558","506777","0.0-1.0-809.0-0.0","0","0","28927","","null","","","null","89","","","","","","","","","","","","","","","",""
"","ITI","","html-keyboard-response","559","507783","0.0-1.0-810.0","0","0","28927","","null","","","null","89","","","","","","","","","","","","","","","NaN",""
"","S1","","html-keyboard-response","560","508043","0.0-1.0-812.0","0","0","28927","","null","","","null","90","","","","","","","","","","","","","","","",""
"","ISI","","html-keyboard-response","561","508198","0.0-1.0-813.0","0","0","28927","","null","","","null","90","NaN","","","","","","","","","","","","","","",""
"","S2","","html-keyboard-response","562","508296","0.0-1.0-814.0","0","0","28927","","94","","","68","90","","d","2","90","training","adjacent","AB","1","2","O.jpg","Q.jpg","0","1","0","",""
"","feedback","","html-keyboard-response","563","509309","0.0-1.0-816.0-0.0","0","0","28927","","null","","","null","90","","","","","","","","","","","","","","","",""
"","time_out","","html-keyboard-response","564","511321","0.0-1.0-818.0-0.0","0","0","28927","","null","","","null","90","","","","","","","","","","","","","","","",""
"","ITI","","html-keyboard-response","565","512337","0.0-1.0-819.0","0","0","28927","","null","","","null","90","","","","","","","","","","","","","","","NaN",""
"","S1","","html-keyboard-response","566","512598","0.0-1.0-821.0","0","0","28927","","null","","","null","91","","","","","","","","","","","","","","","",""
"","ISI","","html-keyboard-response","567","512753","0.0-1.0-822.0","0","0","28927","","null","","","null","91","NaN","","","","","","","","","","","","","","",""
"","S2","","html-keyboard-response","568","512848","0.0-1.0-823.0","0","0","28927","","91","","","68","91","","d","2","91","training","adjacent","FE","6","5","M.jpg","P.jpg","0","0","1","",""
"","feedback","","html-keyboard-response","569","513860","0.0-1.0-825.0-0.0","0","0","28927","","null","","","null","91","","","","","","","","","","","","","","","",""
"","ITI","","html-keyboard-response","570","514874","0.0-1.0-828.0","0","0","28927","","null","","","null","91","","","","","","","","","","","","","","","NaN",""
"","S1","","html-keyboard-response","571","515133","0.0-1.0-830.0","0","0","28927","","null","","","null","92","","","","","","","","","","","","","","","",""
"","ISI","","html-keyboard-response","572","515291","0.0-1.0-831.0","0","0","28927","","null","","","null","92","NaN","","","","","","","","","","","","","","",""
"","S2","","html-keyboard-response","573","515384","0.0-1.0-832.0","0","0","28927","","89","","","75","92","","k","2","92","training","adjacent","FG","6","7","M.jpg","N.jpg","1","1","1","",""
"","feedback","","html-keyboard-response","574","516397","0.0-1.0-834.0-0.0","0","0","28927","","null","","","null","92","","","","","","","","","","","","","","","",""
"","ITI","","html-keyboard-response","575","517403","0.0-1.0-837.0","0","0","28927","","null","","","null","92","","","","","","","","","","","","","","","NaN",""
"","S1","","html-keyboard-response","576","517662","0.0-1.0-839.0","0","0","28927","","null","","","null","93","","","","","","","","","","","","","","","",""
"","ISI","","html-keyboard-response","577","517819","0.0-1.0-840.0","0","0","28927","","null","","","null","93","NaN","","","","","","","","","","","","","","",""
"","S2","","html-keyboard-response","578","517862","0.0-1.0-841.0","0","0","28927","","38","","","75","93","","k","2","93","training","adjacent","EF","5","6","P.jpg","M.jpg","1","1","1","",""
"","feedback","","html-keyboard-response","579","518872","0.0-1.0-843.0-0.0","0","0","28927","","null","","","null","93","","","","","","","","","","","","","","","",""
