"success","ttype","start_time","trial_type","trial_index","time_elapsed","internal_node_id","warning","missed_checkup","PID","view_history","rt","responses","repeat_instructions","key_press","index","keypress_isi","keypress_S2","block","trial_num","phase","group_type","pair_type","S1_stim","S2_stim","S1_img","S2_img","S1_chosen","S1_higher","accuracy","keypress_iti","total_bonus_tally"
"true","full_screen","d03072023hr1758","fullscreen","0","46454","0.0-0.0","0","0","59250","","","","","","","","","","","","","","","","","","","","","",""
"","instructions","","instructions","1","69775","0.0-1.0-0.0-0.0","0","0","59250","[{""page_index"":0,""viewing_time"":4208},{""page_index"":1,""viewing_time"":9160},{""page_index"":2,""viewing_time"":7652},{""page_index"":3,""viewing_time"":2297}]","23318","","","","","","","","","","","","","","","","","","","",""
"","comprehension_check","","survey-multi-choice","2","80275","0.0-1.0-0.0-1.0","0","0","59250","","10497","{""Q0"":""True"",""Q1"":""D"",""Q2"":""Only when the screen 'MAKE A CHOICE' is shown"",""Q3"":""Green mark"",""Q4"":""either D or K""}","1","","","","","","","","","","","","","","","","","",""
"","missed_instruction_checkup","","html-keyboard-response","3","82286","0.0-1.0-0.0-2.0-0.0","0","1","59250","","2007","","","32","","","","","","","","","","","","","","","","",""
"","instructions","","instructions","4","94192","0.0-1.0-0.1-0.1","0","0","59250","[{""page_index"":0,""viewing_time"":2034},{""page_index"":1,""viewing_time"":7365},{""page_index"":2,""viewing_time"":1564},{""page_index"":3,""viewing_time"":943}]","11906","","","","","","","","","","","","","","","","","","","",""
"","comprehension_check","","survey-multi-choice","5","101329","0.0-1.0-0.1-1.1","0","0","59250","","7134","{""Q0"":""True"",""Q1"":""D"",""Q2"":""Once the second image appears and while the screen 'MAKE A CHOICE' is shown"",""Q3"":""Green mark"",""Q4"":""either D or K""}","0","","","","","","","","","","","","","","","","","",""
"","start_exp","","html-keyboard-response","6","103036","0.0-1.0-1.0","0","0","59250","","1706","","","32","","","","","","","","","","","","","","","","",""
"","S1","","html-keyboard-response","7","103290","0.0-1.0-2.0","0","0","59250","","null","","","null","0","","","","","","","","","","","","","","","",""
"","ISI","","html-keyboard-response","8","104293","0.0-1.0-3.0","0","0","59250","","null","","","null","0","NaN","","","","","","","","","","","","","","",""
"","S2","","html-keyboard-response","9","104548","0.0-1.0-4.0","0","0","59250","","null","","","null","0","","NaN","","","","","","","","","","","","","",""
"","response","","html-keyboard-response","10","105520","0.0-1.0-5.0-0.0","0","0","59250","","970","","","75","0","","","1","0","training","adjacent","BA","2","1","N.jpg","M.jpg","0","0","1","",""
"","feedback","","html-keyboard-response","11","106523","0.0-1.0-6.0-0.0","0","0","59250","","null","","","null","0","","","","","","","","","","","","","","","",""
"","ITI","","html-keyboard-response","12","107528","0.0-1.0-9.0","0","0","59250","","null","","","null","0","","","","","","","","","","","","","","","NaN",""
"","S1","","html-keyboard-response","13","107782","0.0-1.0-11.0","0","0","59250","","null","","","null","1","","","","","","","","","","","","","","","",""
"","ISI","","html-keyboard-response","14","108786","0.0-1.0-12.0","0","0","59250","","null","","","null","1","NaN","","","","","","","","","","","","","","",""
"","S2","","html-keyboard-response","15","109040","0.0-1.0-13.0","0","0","59250","","null","","","null","1","","NaN","","","","","","","","","","","","","",""
"","response","","html-keyboard-response","16","109730","0.0-1.0-14.0-0.0","0","0","59250","","688","","","75","1","","","1","1","training","adjacent","FE","6","5","Q.jpg","L.jpg","0","0","1","",""
"","feedback","","html-keyboard-response","17","110734","0.0-1.0-15.0-0.0","0","0","59250","","null","","","null","1","","","","","","","","","","","","","","","",""
"","ITI","","html-keyboard-response","18","111738","0.0-1.0-18.0","0","0","59250","","null","","","null","1","","","","","","","","","","","","","","","NaN",""
"","S1","","html-keyboard-response","19","111992","0.0-1.0-20.0","0","0","59250","","null","","","null","2","","","","","","","","","","","","","","","",""
"","ISI","","html-keyboard-response","20","112995","0.0-1.0-21.0","0","0","59250","","null","","","null","2","NaN","","","","","","","","","","","","","","",""
"","S2","","html-keyboard-response","21","113246","0.0-1.0-22.0","0","0","59250","","null","","","null","2","","NaN","","","","","","","","","","","","","",""
"","response","","html-keyboard-response","22","113792","0.0-1.0-23.0-0.0","0","0","59250","","544","","","75","2","","","1","2","training","adjacent","FE","6","5","Q.jpg","L.jpg","0","0","1","",""
"","feedback","","html-keyboard-response","23","114796","0.0-1.0-24.0-0.0","0","0","59250","","null","","","null","2","","","","","","","","","","","","","","","",""
"","ITI","","html-keyboard-response","24","115799","0.0-1.0-27.0","0","0","59250","","null","","","null","2","","","","","","","","","","","","","","","NaN",""
"","S1","","html-keyboard-response","25","116051","0.0-1.0-29.0","0","0","59250","","null","","","null","3","","","","","","","","","","","","","","","",""
"","ISI","","html-keyboard-response","26","117055","0.0-1.0-30.0","0","0","59250","","null","","","null","3","NaN","","","","","","","","","","","","","","",""
"","S2","","html-keyboard-response","27","117307","0.0-1.0-31.0","0","0","59250","","null","","","null","3","","NaN","","","","","","","","","","","","","",""
"","response","","html-keyboard-response","28","117681","0.0-1.0-32.0-0.0","0","0","59250","","373","","","68","3","","","1","3","training","adjacent","ED","5","4","L.jpg","P.jpg","1","0","0","",""
"","feedback","","html-keyboard-response","29","118683","0.0-1.0-33.0-0.0","0","0","59250","","null","","","null","3","","","","","","","","","","","","","","","",""
"","time_out","","html-keyboard-response","30","120687","0.0-1.0-35.0-0.0","0","0","59250","","null","","","null","3","","","","","","","","","","","","","","","",""
"","ITI","","html-keyboard-response","31","121690","0.0-1.0-36.0","0","0","59250","","null","","","null","3","","","","","","","","","","","","","","","NaN",""
"","S1","","html-keyboard-response","32","121943","0.0-1.0-38.0","0","0","59250","","null","","","null","4","","","","","","","","","","","","","","","",""
"","ISI","","html-keyboard-response","33","122960","0.0-1.0-39.0","0","0","59250","","null","","","null","4","NaN","","","","","","","","","","","","","","",""
"","S2","","html-keyboard-response","34","123214","0.0-1.0-40.0","0","0","59250","","null","","","null","4","","NaN","","","","","","","","","","","","","",""
"","response","","html-keyboard-response","35","123520","0.0-1.0-41.0-0.0","0","0","59250","","304","","","75","4","","","1","4","training","adjacent","DE","4","5","P.jpg","L.jpg","0","1","0","",""
"","feedback","","html-keyboard-response","36","124523","0.0-1.0-42.0-0.0","0","0","59250","","null","","","null","4","","","","","","","","","","","","","","","",""
"","time_out","","html-keyboard-response","37","126527","0.0-1.0-44.0-0.0","0","0","59250","","null","","","null","4","","","","","","","","","","","","","","","",""
"","ITI","","html-keyboard-response","38","127531","0.0-1.0-45.0","0","0","59250","","null","","","null","4","","","","","","","","","","","","","","","NaN",""
"","S1","","html-keyboard-response","39","127795","0.0-1.0-47.0","0","0","59250","","null","","","null","5","","","","","","","","","","","","","","","",""
"","ISI","","html-keyboard-response","40","128798","0.0-1.0-48.0","0","0","59250","","null","","","null","5","NaN","","","","","","","","","","","","","","",""
"","S2","","html-keyboard-response","41","129051","0.0-1.0-49.0","0","0","59250","","null","","","null","5","","NaN","","","","","","","","","","","","","",""
"","response","","html-keyboard-response","42","129663","0.0-1.0-50.0-0.0","0","0","59250","","610","","","68","5","","","1","5","training","adjacent","CD","3","4","O.jpg","P.jpg","1","1","1","",""
"","feedback","","html-keyboard-response","43","130665","0.0-1.0-51.0-0.0","0","0","59250","","null","","","null","5","","","","","","","","","","","","","","","",""
"","ITI","","html-keyboard-response","44","131668","0.0-1.0-54.0","0","0","59250","","null","","","null","5","","","","","","","","","","","","","","","NaN",""
"","S1","","html-keyboard-response","45","131922","0.0-1.0-56.0","0","0","59250","","null","","","null","6","","","","","","","","","","","","","","","",""
"","ISI","","html-keyboard-response","46","132924","0.0-1.0-57.0","0","0","59250","","null","","","null","6","NaN","","","","","","","","","","","","","","",""
"","S2","","html-keyboard-response","47","133179","0.0-1.0-58.0","0","0","59250","","null","","","null","6","","NaN","","","","","","","","","","","","","",""
"","response","","html-keyboard-response","48","133567","0.0-1.0-59.0-0.0","0","0","59250","","386","","","75","6","","","1","6","training","adjacent","FE","6","5","Q.jpg","L.jpg","0","0","1","",""
"","feedback","","html-keyboard-response","49","134570","0.0-1.0-60.0-0.0","0","0","59250","","null","","","null","6","","","","","","","","","","","","","","","",""
"","ITI","","html-keyboard-response","50","135573","0.0-1.0-63.0","0","0","59250","","null","","","null","6","","","","","","","","","","","","","","","NaN",""
"","S1","","html-keyboard-response","51","135826","0.0-1.0-65.0","0","0","59250","","null","","","null","7","","","","","","","","","","","","","","","",""
"","ISI","","html-keyboard-response","52","136829","0.0-1.0-66.0","0","0","59250","","null","","","null","7","NaN","","","","","","","","","","","","","","",""
"","S2","","html-keyboard-response","53","137082","0.0-1.0-67.0","0","0","59250","","null","","","null","7","","NaN","","","","","","","","","","","","","",""
"","response","","html-keyboard-response","54","137695","0.0-1.0-68.0-0.0","0","0","59250","","612","","","75","7","","","1","7","training","adjacent","CD","3","4","O.jpg","P.jpg","0","1","0","",""
"","feedback","","html-keyboard-response","55","138699","0.0-1.0-69.0-0.0","0","0","59250","","null","","","null","7","","","","","","","","","","","","","","","",""
"","time_out","","html-keyboard-response","56","140703","0.0-1.0-71.0-0.0","0","0","59250","","null","","","null","7","","","","","","","","","","","","","","","",""
"","ITI","","html-keyboard-response","57","141705","0.0-1.0-72.0","0","0","59250","","null","","","null","7","","","","","","","","","","","","","","","NaN",""
"","S1","","html-keyboard-response","58","141958","0.0-1.0-74.0","0","0","59250","","null","","","null","8","","","","","","","","","","","","","","","",""
"","ISI","","html-keyboard-response","59","142963","0.0-1.0-75.0","0","0","59250","","null","","","null","8","NaN","","","","","","","","","","","","","","",""
"","S2","","html-keyboard-response","60","143215","0.0-1.0-76.0","0","0","59250","","null","","","null","8","","NaN","","","","","","","","","","","","","",""
"","response","","html-keyboard-response","61","143677","0.0-1.0-77.0-0.0","0","0","59250","","462","","","68","8","","","1","8","training","adjacent","EF","5","6","L.jpg","Q.jpg","1","1","1","",""
"","feedback","","html-keyboard-response","62","144681","0.0-1.0-78.0-0.0","0","0","59250","","null","","","null","8","","","","","","","","","","","","","","","",""
"","ITI","","html-keyboard-response","63","145685","0.0-1.0-81.0","0","0","59250","","null","","","null","8","","","","","","","","","","","","","","","NaN",""
"","S1","","html-keyboard-response","64","145939","0.0-1.0-83.0","0","0","59250","","null","","","null","9","","","","","","","","","","","","","","","",""
"","ISI","","html-keyboard-response","65","146941","0.0-1.0-84.0","0","0","59250","","null","","","null","9","NaN","","","","","","","","","","","","","","",""
"","S2","","html-keyboard-response","66","147198","0.0-1.0-85.0","0","0","59250","","null","","","null","9","","NaN","","","","","","","","","","","","","",""
"","response","","html-keyboard-response","67","147850","0.0-1.0-86.0-0.0","0","0","59250","","650","","","68","9","","","1","9","training","adjacent","BA","2","1","N.jpg","M.jpg","1","0","0","",""
"","feedback","","html-keyboard-response","68","148852","0.0-1.0-87.0-0.0","0","0","59250","","null","","","null","9","","","","","","","","","","","","","","","",""
"","time_out","","html-keyboard-response","69","150854","0.0-1.0-89.0-0.0","0","0","59250","","null","","","null","9","","","","","","","","","","","","","","","",""
"","ITI","","html-keyboard-response","70","151856","0.0-1.0-90.0","0","0","59250","","null","","","null","9","","","","","","","","","","","","","","","NaN",""
"","S1","","html-keyboard-response","71","152109","0.0-1.0-92.0","0","0","59250","","null","","","null","10","","","","","","","","","","","","","","","",""
"","ISI","","html-keyboard-response","72","153112","0.0-1.0-93.0","0","0","59250","","null","","","null","10","NaN","","","","","","","","","","","","","","",""
"","S2","","html-keyboard-response","73","153364","0.0-1.0-94.0","0","0","59250","","null","","","null","10","","NaN","","","","","","","","","","","","","",""
"","response","","html-keyboard-response","74","154033","0.0-1.0-95.0-0.0","0","0","59250","","667","","","75","10","","","1","10","training","adjacent","DE","4","5","P.jpg","L.jpg","0","1","0","",""
"","feedback","","html-keyboard-response","75","155036","0.0-1.0-96.0-0.0","0","0","59250","","null","","","null","10","","","","","","","","","","","","","","","",""
"","time_out","","html-keyboard-response","76","157039","0.0-1.0-98.0-0.0","0","0","59250","","null","","","null","10","","","","","","","","","","","","","","","",""
"","ITI","","html-keyboard-response","77","158043","0.0-1.0-99.0","0","0","59250","","null","","","null","10","","","","","","","","","","","","","","","NaN",""
"","S1","","html-keyboard-response","78","158304","0.0-1.0-101.0","0","0","59250","","null","","","null","11","","","","","","","","","","","","","","","",""
"","ISI","","html-keyboard-response","79","159306","0.0-1.0-102.0","0","0","59250","","null","","","null","11","NaN","","","","","","","","","","","","","","",""
"","S2","","html-keyboard-response","80","159560","0.0-1.0-103.0","0","0","59250","","null","","","null","11","","NaN","","","","","","","","","","","","","",""
"","response","","html-keyboard-response","81","160457","0.0-1.0-104.0-0.0","0","0","59250","","893","","","68","11","","","1","11","training","adjacent","FG","6","7","Q.jpg","R.jpg","1","1","1","",""
"","feedback","","html-keyboard-response","82","161459","0.0-1.0-105.0-0.0","0","0","59250","","null","","","null","11","","","","","","","","","","","","","","","",""
"","ITI","","html-keyboard-response","83","162464","0.0-1.0-108.0","0","0","59250","","null","","","null","11","","","","","","","","","","","","","","","NaN",""
"","S1","","html-keyboard-response","84","162717","0.0-1.0-110.0","0","0","59250","","null","","","null","12","","","","","","","","","","","","","","","",""
"","ISI","","html-keyboard-response","85","163719","0.0-1.0-111.0","0","0","59250","","null","","","null","12","NaN","","","","","","","","","","","","","","",""
"","S2","","html-keyboard-response","86","163972","0.0-1.0-112.0","0","0","59250","","null","","","null","12","","NaN","","","","","","","","","","","","","",""
"","response","","html-keyboard-response","87","164563","0.0-1.0-113.0-0.0","0","0","59250","","589","","","68","12","","","1","12","training","adjacent","EF","5","6","L.jpg","Q.jpg","1","1","1","",""
"","feedback","","html-keyboard-response","88","165564","0.0-1.0-114.0-0.0","0","0","59250","","null","","","null","12","","","","","","","","","","","","","","","",""
"","ITI","","html-keyboard-response","89","166567","0.0-1.0-117.0","0","0","59250","","null","","","null","12","","","","","","","","","","","","","","","NaN",""
"","S1","","html-keyboard-response","90","166820","0.0-1.0-119.0","0","0","59250","","null","","","null","13","","","","","","","","","","","","","","","",""
"","ISI","","html-keyboard-response","91","167823","0.0-1.0-120.0","0","0","59250","","null","","","null","13","NaN","","","","","","","","","","","","","","",""
"","S2","","html-keyboard-response","92","168076","0.0-1.0-121.0","0","0","59250","","null","","","null","13","","NaN","","","","","","","","","","","","","",""
"","response","","html-keyboard-response","93","168639","0.0-1.0-122.0-0.0","0","0","59250","","562","","","68","13","","","1","13","training","adjacent","EF","5","6","L.jpg","Q.jpg","1","1","1","",""
"","feedback","","html-keyboard-response","94","169641","0.0-1.0-123.0-0.0","0","0","59250","","null","","","null","13","","","","","","","","","","","","","","","",""
"","ITI","","html-keyboard-response","95","170644","0.0-1.0-126.0","0","0","59250","","null","","","null","13","","","","","","","","","","","","","","","NaN",""
"","S1","","html-keyboard-response","96","170898","0.0-1.0-128.0","0","0","59250","","null","","","null","14","","","","","","","","","","","","","","","",""
"","ISI","","html-keyboard-response","97","171900","0.0-1.0-129.0","0","0","59250","","null","","","null","14","NaN","","","","","","","","","","","","","","",""
"","S2","","html-keyboard-response","98","172153","0.0-1.0-130.0","0","0","59250","","null","","","null","14","","NaN","","","","","","","","","","","","","",""
"","response","","html-keyboard-response","99","172624","0.0-1.0-131.0-0.0","0","0","59250","","469","","","68","14","","","1","14","training","adjacent","GF","7","6","R.jpg","Q.jpg","1","0","0","",""
"","feedback","","html-keyboard-response","100","173627","0.0-1.0-132.0-0.0","0","0","59250","","null","","","null","14","","","","","","","","","","","","","","","",""
"","time_out","","html-keyboard-response","101","175629","0.0-1.0-134.0-0.0","0","0","59250","","null","","","null","14","","","","","","","","","","","","","","","",""
"","ITI","","html-keyboard-response","102","176631","0.0-1.0-135.0","0","0","59250","","null","","","null","14","","","","","","","","","","","","","","","NaN",""
"","S1","","html-keyboard-response","103","176883","0.0-1.0-137.0","0","0","59250","","null","","","null","15","","","","","","","","","","","","","","","",""
"","ISI","","html-keyboard-response","104","177886","0.0-1.0-138.0","0","0","59250","","null","","","null","15","NaN","","","","","","","","","","","","","","",""
"","S2","","html-keyboard-response","105","178139","0.0-1.0-139.0","0","0","59250","","null","","","null","15","","NaN","","","","","","","","","","","","","",""
"","response","","html-keyboard-response","106","179133","0.0-1.0-140.0-0.0","0","0","59250","","993","","","75","15","","","1","15","training","adjacent","DC","4","3","P.jpg","O.jpg","0","0","1","",""
"","feedback","","html-keyboard-response","107","180137","0.0-1.0-141.0-0.0","0","0","59250","","null","","","null","15","","","","","","","","","","","","","","","",""
"","ITI","","html-keyboard-response","108","181141","0.0-1.0-144.0","0","0","59250","","null","","","null","15","","","","","","","","","","","","","","","NaN",""
"","S1","","html-keyboard-response","109","181395","0.0-1.0-146.0","0","0","59250","","null","","","null","16","","","","","","","","","","","","","","","",""
"","ISI","","html-keyboard-response","110","182398","0.0-1.0-147.0","0","0","59250","","null","","","null","16","NaN","","","","","","","","","","","","","","",""
"","S2","","html-keyboard-response","111","182652","0.0-1.0-148.0","0","0","59250","","null","","","null","16","","NaN","","","","","","","","","","","","","",""
"","response","","html-keyboard-response","112","183325","0.0-1.0-149.0-0.0","0","0","59250","","671","","","68","16","","","1","16","training","adjacent","GF","7","6","R.jpg","Q.jpg","1","0","0","",""
"","feedback","","html-keyboard-response","113","184329","0.0-1.0-150.0-0.0","0","0","59250","","null","","","null","16","","","","","","","","","","","","","","","",""
"","time_out","","html-keyboard-response","114","186332","0.0-1.0-152.0-0.0","0","0","59250","","null","","","null","16","","","","","","","","","","","","","","","",""
"","ITI","","html-keyboard-response","115","187337","0.0-1.0-153.0","0","0","59250","","null","","","null","16","","","","","","","","","","","","","","","NaN",""
"","S1","","html-keyboard-response","116","187590","0.0-1.0-155.0","0","0","59250","","null","","","null","17","","","","","","","","","","","","","","","",""
"","ISI","","html-keyboard-response","117","188592","0.0-1.0-156.0","0","0","59250","","null","","","null","17","NaN","","","","","","","","","","","","","","",""
"","S2","","html-keyboard-response","118","188845","0.0-1.0-157.0","0","0","59250","","null","","","null","17","","NaN","","","","","","","","","","","","","",""
"","response","","html-keyboard-response","119","189384","0.0-1.0-158.0-0.0","0","0","59250","","537","","","68","17","","","1","17","training","adjacent","CB","3","2","O.jpg","N.jpg","1","0","0","",""
"","feedback","","html-keyboard-response","120","190388","0.0-1.0-159.0-0.0","0","0","59250","","null","","","null","17","","","","","","","","","","","","","","","",""
"","time_out","","html-keyboard-response","121","192392","0.0-1.0-161.0-0.0","0","0","59250","","null","","","null","17","","","","","","","","","","","","","","","",""
"","ITI","","html-keyboard-response","122","193395","0.0-1.0-162.0","0","0","59250","","null","","","null","17","","","","","","","","","","","","","","","NaN",""
"","S1","","html-keyboard-response","123","193648","0.0-1.0-164.0","0","0","59250","","null","","","null","18","","","","","","","","","","","","","","","",""
"","ISI","","html-keyboard-response","124","194651","0.0-1.0-165.0","0","0","59250","","null","","","null","18","NaN","","","","","","","","","","","","","","",""
"","S2","","html-keyboard-response","125","194906","0.0-1.0-166.0","0","0","59250","","null","","","null","18","","NaN","","","","","","","","","","","","","",""
"","response","","html-keyboard-response","126","195455","0.0-1.0-167.0-0.0","0","0","59250","","546","","","75","18","","","1","18","training","adjacent","AB","1","2","M.jpg","N.jpg","0","1","0","",""
"","feedback","","html-keyboard-response","127","196458","0.0-1.0-168.0-0.0","0","0","59250","","null","","","null","18","","","","","","","","","","","","","","","",""
"","time_out","","html-keyboard-response","128","198472","0.0-1.0-170.0-0.0","0","0","59250","","null","","","null","18","","","","","","","","","","","","","","","",""
"","ITI","","html-keyboard-response","129","199475","0.0-1.0-171.0","0","0","59250","","null","","","null","18","","","","","","","","","","","","","","","NaN",""
"","S1","","html-keyboard-response","130","199728","0.0-1.0-173.0","0","0","59250","","null","","","null","19","","","","","","","","","","","","","","","",""
"","ISI","","html-keyboard-response","131","200731","0.0-1.0-174.0","0","0","59250","","null","","","null","19","NaN","","","","","","","","","","","","","","",""
"","S2","","html-keyboard-response","132","200985","0.0-1.0-175.0","0","0","59250","","null","","","null","19","","NaN","","","","","","","","","","","","","",""
"","response","","html-keyboard-response","133","201640","0.0-1.0-176.0-0.0","0","0","59250","","653","","","68","19","","","1","19","training","adjacent","CD","3","4","O.jpg","P.jpg","1","1","1","",""
"","feedback","","html-keyboard-response","134","202645","0.0-1.0-177.0-0.0","0","0","59250","","null","","","null","19","","","","","","","","","","","","","","","",""
"","ITI","","html-keyboard-response","135","203648","0.0-1.0-180.0","0","0","59250","","null","","","null","19","","","","","","","","","","","","","","","NaN",""
"","S1","","html-keyboard-response","136","203901","0.0-1.0-182.0","0","0","59250","","null","","","null","20","","","","","","","","","","","","","","","",""
"","ISI","","html-keyboard-response","137","204903","0.0-1.0-183.0","0","0","59250","","null","","","null","20","NaN","","","","","","","","","","","","","","",""
"","S2","","html-keyboard-response","138","205156","0.0-1.0-184.0","0","0","59250","","null","","","null","20","","NaN","","","","","","","","","","","","","",""
"","response","","html-keyboard-response","139","205467","0.0-1.0-185.0-0.0","0","0","59250","","309","","","68","20","","","1","20","training","adjacent","BA","2","1","N.jpg","M.jpg","1","0","0","",""
"","feedback","","html-keyboard-response","140","206470","0.0-1.0-186.0-0.0","0","0","59250","","null","","","null","20","","","","","","","","","","","","","","","",""
"","time_out","","html-keyboard-response","141","208474","0.0-1.0-188.0-0.0","0","0","59250","","null","","","null","20","","","","","","","","","","","","","","","",""
"","ITI","","html-keyboard-response","142","209476","0.0-1.0-189.0","0","0","59250","","null","","","null","20","","","","","","","","","","","","","","","NaN",""
"","S1","","html-keyboard-response","143","209728","0.0-1.0-191.0","0","0","59250","","null","","","null","21","","","","","","","","","","","","","","","",""
"","ISI","","html-keyboard-response","144","210732","0.0-1.0-192.0","0","0","59250","","null","","","null","21","NaN","","","","","","","","","","","","","","",""
"","S2","","html-keyboard-response","145","210985","0.0-1.0-193.0","0","0","59250","","null","","","null","21","","NaN","","","","","","","","","","","","","",""
"","response","","html-keyboard-response","146","211684","0.0-1.0-194.0-0.0","0","0","59250","","698","","","75","21","","","1","21","training","adjacent","ED","5","4","L.jpg","P.jpg","0","0","1","",""
"","feedback","","html-keyboard-response","147","212687","0.0-1.0-195.0-0.0","0","0","59250","","null","","","null","21","","","","","","","","","","","","","","","",""
"","ITI","","html-keyboard-response","148","213690","0.0-1.0-198.0","0","0","59250","","null","","","null","21","","","","","","","","","","","","","","","NaN",""
"","S1","","html-keyboard-response","149","213943","0.0-1.0-200.0","0","0","59250","","null","","","null","22","","","","","","","","","","","","","","","",""
"","ISI","","html-keyboard-response","150","214946","0.0-1.0-201.0","0","0","59250","","null","","","null","22","NaN","","","","","","","","","","","","","","",""
"","S2","","html-keyboard-response","151","215198","0.0-1.0-202.0","0","0","59250","","null","","","null","22","","NaN","","","","","","","","","","","","","",""
"","response","","html-keyboard-response","152","215798","0.0-1.0-203.0-0.0","0","0","59250","","598","","","68","22","","","1","22","training","adjacent","FG","6","7","Q.jpg","R.jpg","1","1","1","",""
"","feedback","","html-keyboard-response","153","216800","0.0-1.0-204.0-0.0","0","0","59250","","null","","","null","22","","","","","","","","","","","","","","","",""
"","ITI","","html-keyboard-response","154","217805","0.0-1.0-207.0","0","0","59250","","null","","","null","22","","","","","","","","","","","","","","","NaN",""
"","S1","","html-keyboard-response","155","218059","0.0-1.0-209.0","0","0","59250","","null","","","null","23","","","","","","","","","","","","","","","",""
"","ISI","","html-keyboard-response","156","219062","0.0-1.0-210.0","0","0","59250","","null","","","null","23","NaN","","","","","","","","","","","","","","",""
"","S2","","html-keyboard-response","157","219315","0.0-1.0-211.0","0","0","59250","","null","","","null","23","","NaN","","","","","","","","","","","","","",""
"","response","","html-keyboard-response","158","219987","0.0-1.0-212.0-0.0","0","0","59250","","671","","","75","23","","","1","23","training","adjacent","BC","2","3","N.jpg","O.jpg","0","1","0","",""
"","feedback","","html-keyboard-response","159","220990","0.0-1.0-213.0-0.0","0","0","59250","","null","","","null","23","","","","","","","","","","","","","","","",""
"","time_out","","html-keyboard-response","160","222994","0.0-1.0-215.0-0.0","0","0","59250","","null","","","null","23","","","","","","","","","","","","","","","",""
"","ITI","","html-keyboard-response","161","223995","0.0-1.0-216.0","0","0","59250","","null","","","null","23","","","","","","","","","","","","","","","NaN",""
"","S1","","html-keyboard-response","162","224248","0.0-1.0-218.0","0","0","59250","","null","","","null","24","","","","","","","","","","","","","","","",""
"","ISI","","html-keyboard-response","163","225250","0.0-1.0-219.0","0","0","59250","","null","","","null","24","NaN","","","","","","","","","","","","","","",""
"","S2","","html-keyboard-response","164","225503","0.0-1.0-220.0","0","0","59250","","null","","","null","24","","NaN","","","","","","","","","","","","","",""
"","response","","html-keyboard-response","165","226652","0.0-1.0-221.0-0.0","0","0","59250","","1148","","","75","24","","","1","24","training","adjacent","GF","7","6","R.jpg","Q.jpg","0","0","1","",""
"","feedback","","html-keyboard-response","166","227654","0.0-1.0-222.0-0.0","0","0","59250","","null","","","null","24","","","","","","","","","","","","","","","",""
"","ITI","","html-keyboard-response","167","228657","0.0-1.0-225.0","0","0","59250","","null","","","null","24","","","","","","","","","","","","","","","NaN",""
"","S1","","html-keyboard-response","168","228910","0.0-1.0-227.0","0","0","59250","","null","","","null","25","","","","","","","","","","","","","","","",""
"","ISI","","html-keyboard-response","169","229912","0.0-1.0-228.0","0","0","59250","","null","","","null","25","NaN","","","","","","","","","","","","","","",""
"","S2","","html-keyboard-response","170","230165","0.0-1.0-229.0","0","0","59250","","null","","","null","25","","NaN","","","","","","","","","","","","","",""
"","response","","html-keyboard-response","171","230789","0.0-1.0-230.0-0.0","0","0","59250","","622","","","75","25","","","1","25","training","adjacent","AB","1","2","M.jpg","N.jpg","0","1","0","",""
"","feedback","","html-keyboard-response","172","231792","0.0-1.0-231.0-0.0","0","0","59250","","null","","","null","25","","","","","","","","","","","","","","","",""
"","time_out","","html-keyboard-response","173","233796","0.0-1.0-233.0-0.0","0","0","59250","","null","","","null","25","","","","","","","","","","","","","","","",""
"","ITI","","html-keyboard-response","174","234797","0.0-1.0-234.0","0","0","59250","","null","","","null","25","","","","","","","","","","","","","","","NaN",""
"","S1","","html-keyboard-response","175","235050","0.0-1.0-236.0","0","0","59250","","null","","","null","26","","","","","","","","","","","","","","","",""
"","ISI","","html-keyboard-response","176","236054","0.0-1.0-237.0","0","0","59250","","null","","","null","26","NaN","","","","","","","","","","","","","","",""
"","S2","","html-keyboard-response","177","236308","0.0-1.0-238.0","0","0","59250","","null","","","null","26","","NaN","","","","","","","","","","","","","",""
"","response","","html-keyboard-response","178","236821","0.0-1.0-239.0-0.0","0","0","59250","","511","","","75","26","","","1","26","training","adjacent","AB","1","2","M.jpg","N.jpg","0","1","0","",""
"","feedback","","html-keyboard-response","179","237822","0.0-1.0-240.0-0.0","0","0","59250","","null","","","null","26","","","","","","","","","","","","","","","",""
"","time_out","","html-keyboard-response","180","239824","0.0-1.0-242.0-0.0","0","0","59250","","null","","","null","26","","","","","","","","","","","","","","","",""
"","ITI","","html-keyboard-response","181","240826","0.0-1.0-243.0","0","0","59250","","null","","","null","26","","","","","","","","","","","","","","","NaN",""
"","S1","","html-keyboard-response","182","241079","0.0-1.0-245.0","0","0","59250","","null","","","null","27","","","","","","","","","","","","","","","",""
"","ISI","","html-keyboard-response","183","242083","0.0-1.0-246.0","0","0","59250","","null","","","null","27","NaN","","","","","","","","","","","","","","",""
"","S2","","html-keyboard-response","184","242336","0.0-1.0-247.0","0","0","59250","","null","","","null","27","","NaN","","","","","","","","","","","","","",""
"","response","","html-keyboard-response","185","242743","0.0-1.0-248.0-0.0","0","0","59250","","405","","","75","27","","","1","27","training","adjacent","DE","4","5","P.jpg","L.jpg","0","1","0","",""
"","feedback","","html-keyboard-response","186","243747","0.0-1.0-249.0-0.0","0","0","59250","","null","","","null","27","","","","","","","","","","","","","","","",""
"","time_out","","html-keyboard-response","187","245751","0.0-1.0-251.0-0.0","0","0","59250","","null","","","null","27","","","","","","","","","","","","","","","",""
"","ITI","","html-keyboard-response","188","246755","0.0-1.0-252.0","0","0","59250","","null","","","null","27","","","","","","","","","","","","","","","NaN",""
"","S1","","html-keyboard-response","189","247009","0.0-1.0-254.0","0","0","59250","","null","","","null","28","","","","","","","","","","","","","","","",""
"","ISI","","html-keyboard-response","190","248011","0.0-1.0-255.0","0","0","59250","","null","","","null","28","NaN","","","","","","","","","","","","","","",""
"","S2","","html-keyboard-response","191","248263","0.0-1.0-256.0","0","0","59250","","null","","","null","28","","NaN","","","","","","","","","","","","","",""
"","response","","html-keyboard-response","192","249256","0.0-1.0-257.0-0.0","0","0","59250","","992","","","75","28","","","1","28","training","adjacent","FE","6","5","Q.jpg","L.jpg","0","0","1","",""
"","feedback","","html-keyboard-response","193","250259","0.0-1.0-258.0-0.0","0","0","59250","","null","","","null","28","","","","","","","","","","","","","","","",""
"","ITI","","html-keyboard-response","194","251263","0.0-1.0-261.0","0","0","59250","","null","","","null","28","","","","","","","","","","","","","","","NaN",""
"","S1","","html-keyboard-response","195","251518","0.0-1.0-263.0","0","0","59250","","null","","","null","29","","","","","","","","","","","","","","","",""
"","ISI","","html-keyboard-response","196","252520","0.0-1.0-264.0","0","0","59250","","null","","","null","29","NaN","","","","","","","","","","","","","","",""
"","S2","","html-keyboard-response","197","252772","0.0-1.0-265.0","0","0","59250","","null","","","null","29","","NaN","","","","","","","","","","","","","",""
"","response","","html-keyboard-response","198","253374","0.0-1.0-266.0-0.0","0","0","59250","","599","","","75","29","","","1","29","training","adjacent","DC","4","3","P.jpg","O.jpg","0","0","1","",""
"","feedback","","html-keyboard-response","199","254378","0.0-1.0-267.0-0.0","0","0","59250","","null","","","null","29","","","","","","","","","","","","","","","",""
"","ITI","","html-keyboard-response","200","255390","0.0-1.0-270.0","0","0","59250","","null","","","null","29","","","","","","","","","","","","","","","NaN",""
"","S1","","html-keyboard-response","201","255644","0.0-1.0-272.0","0","0","59250","","null","","","null","30","","","","","","","","","","","","","","","",""
"","ISI","","html-keyboard-response","202","256648","0.0-1.0-273.0","0","0","59250","","null","","","null","30","NaN","","","","","","","","","","","","","","",""
"","S2","","html-keyboard-response","203","256902","0.0-1.0-274.0","0","0","59250","","null","","","null","30","","NaN","","","","","","","","","","","","","",""
"","response","","html-keyboard-response","204","258079","0.0-1.0-275.0-0.0","0","0","59250","","1176","","","68","30","","","1","30","training","adjacent","DE","4","5","P.jpg","L.jpg","1","1","1","",""
"","feedback","","html-keyboard-response","205","259083","0.0-1.0-276.0-0.0","0","0","59250","","null","","","null","30","","","","","","","","","","","","","","","",""
"","ITI","","html-keyboard-response","206","260087","0.0-1.0-279.0","0","0","59250","","null","","","null","30","","","","","","","","","","","","","","","NaN",""
"","S1","","html-keyboard-response","207","260340","0.0-1.0-281.0","0","0","59250","","null","","","null","31","","","","","","","","","","","","","","","",""
"","ISI","","html-keyboard-response","208","261344","0.0-1.0-282.0","0","0","59250","","null","","","null","31","NaN","","","","","","","","","","","","","","",""
"","S2","","html-keyboard-response","209","261598","0.0-1.0-283.0","0","0","59250","","null","","","null","31","","NaN","","","","","","","","","","","","","",""
"","response","","html-keyboard-response","210","262675","0.0-1.0-284.0-0.0","0","0","59250","","1076","","","75","31","","","1","31","training","adjacent","BC","2","3","N.jpg","O.jpg","0","1","0","",""
"","feedback","","html-keyboard-response","211","263677","0.0-1.0-285.0-0.0","0","0","59250","","null","","","null","31","","","","","","","","","","","","","","","",""
"","time_out","","html-keyboard-response","212","265680","0.0-1.0-287.0-0.0","0","0","59250","","null","","","null","31","","","","","","","","","","","","","","","",""
"","ITI","","html-keyboard-response","213","266683","0.0-1.0-288.0","0","0","59250","","null","","","null","31","","","","","","","","","","","","","","","NaN",""
"","S1","","html-keyboard-response","214","266937","0.0-1.0-290.0","0","0","59250","","null","","","null","32","","","","","","","","","","","","","","","",""
"","ISI","","html-keyboard-response","215","267939","0.0-1.0-291.0","0","0","59250","","null","","","null","32","NaN","","","","","","","","","","","","","","",""
"","S2","","html-keyboard-response","216","268192","0.0-1.0-292.0","0","0","59250","","null","","","null","32","","NaN","","","","","","","","","","","","","",""
"","response","","html-keyboard-response","217","269547","0.0-1.0-293.0-0.0","0","0","59250","","1353","","","75","32","","","1","32","training","adjacent","CB","3","2","O.jpg","N.jpg","0","0","1","",""
"","feedback","","html-keyboard-response","218","270550","0.0-1.0-294.0-0.0","0","0","59250","","null","","","null","32","","","","","","","","","","","","","","","",""
"","ITI","","html-keyboard-response","219","271554","0.0-1.0-297.0","0","0","59250","","null","","","null","32","","","","","","","","","","","","","","","NaN",""
"","S1","","html-keyboard-response","220","271806","0.0-1.0-299.0","0","0","59250","","null","","","null","33","","","","","","","","","","","","","","","",""
"","ISI","","html-keyboard-response","221","272809","0.0-1.0-300.0","0","0","59250","","null","","","null","33","NaN","","","","","","","","","","","","","","",""
"","S2","","html-keyboard-response","222","273063","0.0-1.0-301.0","0","0","59250","","null","","","null","33","","NaN","","","","","","","","","","","","","",""
"","response","","html-keyboard-response","223","273689","0.0-1.0-302.0-0.0","0","0","59250","","623","","","68","33","","","1","33","training","adjacent","BA","2","1","N.jpg","M.jpg","1","0","0","",""
"","feedback","","html-keyboard-response","224","274693","0.0-1.0-303.0-0.0","0","0","59250","","null","","","null","33","","","","","","","","","","","","","","","",""
"","time_out","","html-keyboard-response","225","276696","0.0-1.0-305.0-0.0","0","0","59250","","null","","","null","33","","","","","","","","","","","","","","","",""
"","ITI","","html-keyboard-response","226","277699","0.0-1.0-306.0","0","0","59250","","null","","","null","33","","","","","","","","","","","","","","","NaN",""
"","S1","","html-keyboard-response","227","277953","0.0-1.0-308.0","0","0","59250","","null","","","null","34","","","","","","","","","","","","","","","",""
"","ISI","","html-keyboard-response","228","278960","0.0-1.0-309.0","0","0","59250","","null","","","null","34","NaN","","","","","","","","","","","","","","",""
"","S2","","html-keyboard-response","229","279224","0.0-1.0-310.0","0","0","59250","","null","","","null","34","","NaN","","","","","","","","","","","","","",""
"","response","","html-keyboard-response","230","279774","0.0-1.0-311.0-0.0","0","0","59250","","549","","","68","34","","","1","34","training","adjacent","EF","5","6","L.jpg","Q.jpg","1","1","1","",""
"","feedback","","html-keyboard-response","231","280791","0.0-1.0-312.0-0.0","0","0","59250","","null","","","null","34","","","","","","","","","","","","","","","",""
"","ITI","","html-keyboard-response","232","281798","0.0-1.0-315.0","0","0","59250","","null","","","null","34","","","","","","","","","","","","","","","NaN",""
"","S1","","html-keyboard-response","233","282051","0.0-1.0-317.0","0","0","59250","","null","","","null","35","","","","","","","","","","","","","","","",""
"","ISI","","html-keyboard-response","234","283054","0.0-1.0-318.0","0","0","59250","","null","","","null","35","NaN","","","","","","","","","","","","","","",""
"","S2","","html-keyboard-response","235","283307","0.0-1.0-319.0","0","0","59250","","null","","","null","35","","NaN","","","","","","","","","","","","","",""
"","response","","html-keyboard-response","236","284847","0.0-1.0-320.0-0.0","0","0","59250","","1538","","","75","35","","","1","35","training","adjacent","BC","2","3","N.jpg","O.jpg","0","1","0","",""
"","feedback","","html-keyboard-response","237","285850","0.0-1.0-321.0-0.0","0","0","59250","","null","","","null","35","","","","","","","","","","","","","","","",""
"","time_out","","html-keyboard-response","238","287853","0.0-1.0-323.0-0.0","0","0","59250","","null","","","null","35","","","","","","","","","","","","","","","",""
"","ITI","","html-keyboard-response","239","288854","0.0-1.0-324.0","0","0","59250","","null","","","null","35","","","","","","","","","","","","","","","NaN",""
"","S1","","html-keyboard-response","240","289108","0.0-1.0-326.0","0","0","59250","","null","","","null","36","","","","","","","","","","","","","","","",""
"","ISI","","html-keyboard-response","241","290111","0.0-1.0-327.0","0","0","59250","","null","","","null","36","NaN","","","","","","","","","","","","","","",""
"","S2","","html-keyboard-response","242","290365","0.0-1.0-328.0","0","0","59250","","null","","","null","36","","NaN","","","","","","","","","","","","","",""
"","response","","html-keyboard-response","243","290817","0.0-1.0-329.0-0.0","0","0","59250","","450","","","68","36","","","1","36","training","adjacent","FG","6","7","Q.jpg","R.jpg","1","1","1","",""
"","feedback","","html-keyboard-response","244","291819","0.0-1.0-330.0-0.0","0","0","59250","","null","","","null","36","","","","","","","","","","","","","","","",""
"","ITI","","html-keyboard-response","245","292822","0.0-1.0-333.0","0","0","59250","","null","","","null","36","","","","","","","","","","","","","","","NaN",""
"","S1","","html-keyboard-response","246","293074","0.0-1.0-335.0","0","0","59250","","null","","","null","37","","","","","","","","","","","","","","","",""
"","ISI","","html-keyboard-response","247","294078","0.0-1.0-336.0","0","0","59250","","null","","","null","37","NaN","","","","","","","","","","","","","","",""
"","S2","","html-keyboard-response","248","294332","0.0-1.0-337.0","0","0","59250","","null","","","null","37","","NaN","","","","","","","","","","","","","",""
"","response","","html-keyboard-response","249","295696","0.0-1.0-338.0-0.0","0","0","59250","","1362","","","75","37","","","1","37","training","adjacent","GF","7","6","R.jpg","Q.jpg","0","0","1","",""
"","feedback","","html-keyboard-response","250","296711","0.0-1.0-339.0-0.0","0","0","59250","","null","","","null","37","","","","","","","","","","","","","","","",""
"","ITI","","html-keyboard-response","251","297713","0.0-1.0-342.0","0","0","59250","","null","","","null","37","","","","","","","","","","","","","","","NaN",""
"","S1","","html-keyboard-response","252","297965","0.0-1.0-344.0","0","0","59250","","null","","","null","38","","","","","","","","","","","","","","","",""
"","ISI","","html-keyboard-response","253","298971","0.0-1.0-345.0","0","0","59250","","null","","","null","38","NaN","","","","","","","","","","","","","","",""
"","S2","","html-keyboard-response","254","299225","0.0-1.0-346.0","0","0","59250","","null","","","null","38","","NaN","","","","","","","","","","","","","",""
"","response","","html-keyboard-response","255","299971","0.0-1.0-347.0-0.0","0","0","59250","","744","","","75","38","","","1","38","training","adjacent","DC","4","3","P.jpg","O.jpg","0","0","1","",""
"","feedback","","html-keyboard-response","256","300973","0.0-1.0-348.0-0.0","0","0","59250","","null","","","null","38","","","","","","","","","","","","","","","",""
"","ITI","","html-keyboard-response","257","301974","0.0-1.0-351.0","0","0","59250","","null","","","null","38","","","","","","","","","","","","","","","NaN",""
"","S1","","html-keyboard-response","258","302227","0.0-1.0-353.0","0","0","59250","","null","","","null","39","","","","","","","","","","","","","","","",""
"","ISI","","html-keyboard-response","259","303230","0.0-1.0-354.0","0","0","59250","","null","","","null","39","NaN","","","","","","","","","","","","","","",""
"","S2","","html-keyboard-response","260","303483","0.0-1.0-355.0","0","0","59250","","null","","","null","39","","NaN","","","","","","","","","","","","","",""
"","response","","html-keyboard-response","261","303940","0.0-1.0-356.0-0.0","0","0","59250","","455","","","68","39","","","1","39","training","adjacent","ED","5","4","L.jpg","P.jpg","1","0","0","",""
"","feedback","","html-keyboard-response","262","304942","0.0-1.0-357.0-0.0","0","0","59250","","null","","","null","39","","","","","","","","","","","","","","","",""
"","time_out","","html-keyboard-response","263","306945","0.0-1.0-359.0-0.0","0","0","59250","","null","","","null","39","","","","","","","","","","","","","","","",""
"","ITI","","html-keyboard-response","264","307948","0.0-1.0-360.0","0","0","59250","","null","","","null","39","","","","","","","","","","","","","","","NaN",""
"","S1","","html-keyboard-response","265","308201","0.0-1.0-362.0","0","0","59250","","null","","","null","40","","","","","","","","","","","","","","","",""
"","ISI","","html-keyboard-response","266","309205","0.0-1.0-363.0","0","0","59250","","null","","","null","40","NaN","","","","","","","","","","","","","","",""
"","S2","","html-keyboard-response","267","309457","0.0-1.0-364.0","0","0","59250","","null","","","null","40","","NaN","","","","","","","","","","","","","",""
"","response","","html-keyboard-response","268","310808","0.0-1.0-365.0-0.0","0","0","59250","","1349","","","75","40","","","1","40","training","adjacent","CB","3","2","O.jpg","N.jpg","0","0","1","",""
"","feedback","","html-keyboard-response","269","311809","0.0-1.0-366.0-0.0","0","0","59250","","null","","","null","40","","","","","","","","","","","","","","","",""
"","ITI","","html-keyboard-response","270","312812","0.0-1.0-369.0","0","0","59250","","null","","","null","40","","","","","","","","","","","","","","","NaN",""
"","S1","","html-keyboard-response","271","313065","0.0-1.0-371.0","0","0","59250","","null","","","null","41","","","","","","","","","","","","","","","",""
"","ISI","","html-keyboard-response","272","314068","0.0-1.0-372.0","0","0","59250","","null","","","null","41","NaN","","","","","","","","","","","","","","",""
"","S2","","html-keyboard-response","273","314322","0.0-1.0-373.0","0","0","59250","","null","","","null","41","","NaN","","","","","","","","","","","","","",""
"","response","","html-keyboard-response","274","315048","0.0-1.0-374.0-0.0","0","0","59250","","724","","","75","41","","","1","41","training","adjacent","BC","2","3","N.jpg","O.jpg","0","1","0","",""
"","feedback","","html-keyboard-response","275","316053","0.0-1.0-375.0-0.0","0","0","59250","","null","","","null","41","","","","","","","","","","","","","","","",""
"","time_out","","html-keyboard-response","276","318057","0.0-1.0-377.0-0.0","0","0","59250","","null","","","null","41","","","","","","","","","","","","","","","",""
"","ITI","","html-keyboard-response","277","319061","0.0-1.0-378.0","0","0","59250","","null","","","null","41","","","","","","","","","","","","","","","NaN",""
"","S1","","html-keyboard-response","278","319313","0.0-1.0-380.0","0","0","59250","","null","","","null","42","","","","","","","","","","","","","","","",""
"","ISI","","html-keyboard-response","279","320317","0.0-1.0-381.0","0","0","59250","","null","","","null","42","NaN","","","","","","","","","","","","","","",""
"","S2","","html-keyboard-response","280","320571","0.0-1.0-382.0","0","0","59250","","null","","","null","42","","NaN","","","","","","","","","","","","","",""
"","response","","html-keyboard-response","281","321490","0.0-1.0-383.0-0.0","0","0","59250","","917","","","68","42","","","1","42","training","adjacent","ED","5","4","L.jpg","P.jpg","1","0","0","",""
"","feedback","","html-keyboard-response","282","322491","0.0-1.0-384.0-0.0","0","0","59250","","null","","","null","42","","","","","","","","","","","","","","","",""
"","time_out","","html-keyboard-response","283","324494","0.0-1.0-386.0-0.0","0","0","59250","","null","","","null","42","","","","","","","","","","","","","","","",""
"","ITI","","html-keyboard-response","284","325498","0.0-1.0-387.0","0","0","59250","","null","","","null","42","","","","","","","","","","","","","","","NaN",""
"","S1","","html-keyboard-response","285","325752","0.0-1.0-389.0","0","0","59250","","null","","","null","43","","","","","","","","","","","","","","","",""
"","ISI","","html-keyboard-response","286","326753","0.0-1.0-390.0","0","0","59250","","null","","","null","43","NaN","","","","","","","","","","","","","","",""
"","S2","","html-keyboard-response","287","327005","0.0-1.0-391.0","0","0","59250","","null","","","null","43","","NaN","","","","","","","","","","","","","",""
"","response","","html-keyboard-response","288","327390","0.0-1.0-392.0-0.0","0","0","59250","","383","","","75","43","","","1","43","training","adjacent","AB","1","2","M.jpg","N.jpg","0","1","0","",""
"","feedback","","html-keyboard-response","289","328392","0.0-1.0-393.0-0.0","0","0","59250","","null","","","null","43","","","","","","","","","","","","","","","",""
"","time_out","","html-keyboard-response","290","330396","0.0-1.0-395.0-0.0","0","0","59250","","null","","","null","43","","","","","","","","","","","","","","","",""
"","ITI","","html-keyboard-response","291","331400","0.0-1.0-396.0","0","0","59250","","null","","","null","43","","","","","","","","","","","","","","","NaN",""
"","S1","","html-keyboard-response","292","331654","0.0-1.0-398.0","0","0","59250","","null","","","null","44","","","","","","","","","","","","","","","",""
"","ISI","","html-keyboard-response","293","332658","0.0-1.0-399.0","0","0","59250","","null","","","null","44","NaN","","","","","","","","","","","","","","",""
"","S2","","html-keyboard-response","294","332912","0.0-1.0-400.0","0","0","59250","","null","","","null","44","","NaN","","","","","","","","","","","","","",""
"","response","","html-keyboard-response","295","334466","0.0-1.0-401.0-0.0","0","0","59250","","1552","","","75","44","","","1","44","training","adjacent","CB","3","2","O.jpg","N.jpg","0","0","1","",""
"","feedback","","html-keyboard-response","296","335468","0.0-1.0-402.0-0.0","0","0","59250","","null","","","null","44","","","","","","","","","","","","","","","",""
"","ITI","","html-keyboard-response","297","336471","0.0-1.0-405.0","0","0","59250","","null","","","null","44","","","","","","","","","","","","","","","NaN",""
"","S1","","html-keyboard-response","298","336724","0.0-1.0-407.0","0","0","59250","","null","","","null","45","","","","","","","","","","","","","","","",""
"","ISI","","html-keyboard-response","299","337727","0.0-1.0-408.0","0","0","59250","","null","","","null","45","NaN","","","","","","","","","","","","","","",""
"","S2","","html-keyboard-response","300","337979","0.0-1.0-409.0","0","0","59250","","null","","","null","45","","NaN","","","","","","","","","","","","","",""
"","response","","html-keyboard-response","301","339078","0.0-1.0-410.0-0.0","0","0","59250","","1097","","","68","45","","","1","45","training","adjacent","CD","3","4","O.jpg","P.jpg","1","1","1","",""
"","feedback","","html-keyboard-response","302","340081","0.0-1.0-411.0-0.0","0","0","59250","","null","","","null","45","","","","","","","","","","","","","","","",""
"","ITI","","html-keyboard-response","303","341084","0.0-1.0-414.0","0","0","59250","","null","","","null","45","","","","","","","","","","","","","","","NaN",""
"","S1","","html-keyboard-response","304","341337","0.0-1.0-416.0","0","0","59250","","null","","","null","46","","","","","","","","","","","","","","","",""
"","ISI","","html-keyboard-response","305","342340","0.0-1.0-417.0","0","0","59250","","null","","","null","46","NaN","","","","","","","","","","","","","","",""
"","S2","","html-keyboard-response","306","342593","0.0-1.0-418.0","0","0","59250","","null","","","null","46","","NaN","","","","","","","","","","","","","",""
"","response","","html-keyboard-response","307","343670","0.0-1.0-419.0-0.0","0","0","59250","","1076","","","75","46","","","1","46","training","adjacent","DC","4","3","P.jpg","O.jpg","0","0","1","",""
"","feedback","","html-keyboard-response","308","344674","0.0-1.0-420.0-0.0","0","0","59250","","null","","","null","46","","","","","","","","","","","","","","","",""
"","ITI","","html-keyboard-response","309","345678","0.0-1.0-423.0","0","0","59250","","null","","","null","46","","","","","","","","","","","","","","","NaN",""
"","S1","","html-keyboard-response","310","345931","0.0-1.0-425.0","0","0","59250","","null","","","null","47","","","","","","","","","","","","","","","",""
"","ISI","","html-keyboard-response","311","346934","0.0-1.0-426.0","0","0","59250","","null","","","null","47","NaN","","","","","","","","","","","","","","",""
"","S2","","html-keyboard-response","312","347188","0.0-1.0-427.0","0","0","59250","","null","","","null","47","","NaN","","","","","","","","","","","","","",""
"","response","","html-keyboard-response","313","347881","0.0-1.0-428.0-0.0","0","0","59250","","689","","","68","47","","","1","47","training","adjacent","FG","6","7","Q.jpg","R.jpg","1","1","1","",""
"","feedback","","html-keyboard-response","314","348885","0.0-1.0-429.0-0.0","0","0","59250","","null","","","null","47","","","","","","","","","","","","","","","",""
"","ITI","","html-keyboard-response","315","349889","0.0-1.0-432.0","0","0","59250","","null","","","null","47","","","","","","","","","","","","","","","NaN",""
"","block_over","","html-keyboard-response","316","352220","0.0-1.0-433.0-0.0","0","0","59250","","2328","","","32","47","","","","","","","","","","","","","","","",""
"","S1","","html-keyboard-response","317","352473","0.0-1.0-434.0","0","0","59250","","null","","","null","48","","","","","","","","","","","","","","","",""
"","ISI","","html-keyboard-response","318","353476","0.0-1.0-435.0","0","0","59250","","null","","","null","48","NaN","","","","","","","","","","","","","","",""
"","S2","","html-keyboard-response","319","353730","0.0-1.0-436.0","0","0","59250","","null","","","null","48","","NaN","","","","","","","","","","","","","",""
"","response","","html-keyboard-response","320","354884","0.0-1.0-437.0-0.0","0","0","59250","","1152","","","75","48","","","2","48","training","adjacent","FE","6","5","Q.jpg","L.jpg","0","0","1","",""
"","feedback","","html-keyboard-response","321","355887","0.0-1.0-438.0-0.0","0","0","59250","","null","","","null","48","","","","","","","","","","","","","","","",""
"","ITI","","html-keyboard-response","322","356892","0.0-1.0-441.0","0","0","59250","","null","","","null","48","","","","","","","","","","","","","","","NaN",""
"","S1","","html-keyboard-response","323","357146","0.0-1.0-443.0","0","0","59250","","null","","","null","49","","","","","","","","","","","","","","","",""
"","ISI","","html-keyboard-response","324","358150","0.0-1.0-444.0","0","0","59250","","null","","","null","49","NaN","","","","","","","","","","","","","","",""
"","S2","","html-keyboard-response","325","358404","0.0-1.0-445.0","0","0","59250","","null","","","null","49","","NaN","","","","","","","","","","","","","",""
"","response","","html-keyboard-response","326","359976","0.0-1.0-446.0-0.0","0","0","59250","","1570","","","68","49","","","2","49","training","adjacent","CB","3","2","O.jpg","N.jpg","1","0","0","",""
"","feedback","","html-keyboard-response","327","360980","0.0-1.0-447.0-0.0","0","0","59250","","null","","","null","49","","","","","","","","","","","","","","","",""
"","time_out","","html-keyboard-response","328","362985","0.0-1.0-449.0-0.0","0","0","59250","","null","","","null","49","","","","","","","","","","","","","","","",""
"","ITI","","html-keyboard-response","329","363988","0.0-1.0-450.0","0","0","59250","","null","","","null","49","","","","","","","","","","","","","","","NaN",""
"","S1","","html-keyboard-response","330","364242","0.0-1.0-452.0","0","0","59250","","null","","","null","50","","","","","","","","","","","","","","","",""
"","ISI","","html-keyboard-response","331","365244","0.0-1.0-453.0","0","0","59250","","null","","","null","50","NaN","","","","","","","","","","","","","","",""
"","S2","","html-keyboard-response","332","365497","0.0-1.0-454.0","0","0","59250","","null","","","null","50","","NaN","","","","","","","","","","","","","",""
"","response","","html-keyboard-response","333","367250","0.0-1.0-455.0-0.0","0","0","59250","","null","","","null","50","","","2","50","training","adjacent","CD","3","4","O.jpg","P.jpg","NaN","1","0","",""
"","too_slow_prompt","","html-keyboard-response","334","368253","0.0-1.0-457.0-0.0","1","0","59250","","null","","","null","","","","","","","","","","","","","","","","",""
"","time_out","","html-keyboard-response","335","370256","0.0-1.0-458.0-0.0","0","0","59250","","null","","","null","50","","","","","","","","","","","","","","","",""
"","ITI","","html-keyboard-response","336","371260","0.0-1.0-459.0","0","0","59250","","null","","","null","50","","","","","","","","","","","","","","","NaN",""
"","S1","","html-keyboard-response","337","371513","0.0-1.0-461.0","0","0","59250","","null","","","null","51","","","","","","","","","","","","","","","",""
"","ISI","","html-keyboard-response","338","372517","0.0-1.0-462.0","0","0","59250","","null","","","null","51","NaN","","","","","","","","","","","","","","",""
"","S2","","html-keyboard-response","339","372772","0.0-1.0-463.0","0","0","59250","","null","","","null","51","","NaN","","","","","","","","","","","","","",""
"","response","","html-keyboard-response","340","373519","0.0-1.0-464.0-0.0","0","0","59250","","745","","","68","51","","","2","51","training","adjacent","BC","2","3","N.jpg","O.jpg","1","1","1","",""
"","feedback","","html-keyboard-response","341","374523","0.0-1.0-465.0-0.0","0","0","59250","","null","","","null","51","","","","","","","","","","","","","","","",""
"","ITI","","html-keyboard-response","342","375528","0.0-1.0-468.0","0","0","59250","","null","","","null","51","","","","","","","","","","","","","","","NaN",""
"","S1","","html-keyboard-response","343","375782","0.0-1.0-470.0","0","0","59250","","null","","","null","52","","","","","","","","","","","","","","","",""
"","ISI","","html-keyboard-response","344","376785","0.0-1.0-471.0","0","0","59250","","null","","","null","52","NaN","","","","","","","","","","","","","","",""
"","S2","","html-keyboard-response","345","377038","0.0-1.0-472.0","0","0","59250","","null","","","null","52","","NaN","","","","","","","","","","","","","",""
"","response","","html-keyboard-response","346","377475","0.0-1.0-473.0-0.0","0","0","59250","","436","","","68","52","","","2","52","training","adjacent","FG","6","7","Q.jpg","R.jpg","1","1","1","",""
"","feedback","","html-keyboard-response","347","378478","0.0-1.0-474.0-0.0","0","0","59250","","null","","","null","52","","","","","","","","","","","","","","","",""
"","ITI","","html-keyboard-response","348","379482","0.0-1.0-477.0","0","0","59250","","null","","","null","52","","","","","","","","","","","","","","","NaN",""
"","S1","","html-keyboard-response","349","379737","0.0-1.0-479.0","0","0","59250","","null","","","null","53","","","","","","","","","","","","","","","",""
"","ISI","","html-keyboard-response","350","380740","0.0-1.0-480.0","0","0","59250","","null","","","null","53","NaN","","","","","","","","","","","","","","",""
"","S2","","html-keyboard-response","351","380992","0.0-1.0-481.0","0","0","59250","","null","","","null","53","","NaN","","","","","","","","","","","","","",""
"","response","","html-keyboard-response","352","381401","0.0-1.0-482.0-0.0","0","0","59250","","408","","","75","53","","","2","53","training","adjacent","DC","4","3","P.jpg","O.jpg","0","0","1","",""
"","feedback","","html-keyboard-response","353","382404","0.0-1.0-483.0-0.0","0","0","59250","","null","","","null","53","","","","","","","","","","","","","","","",""
"","ITI","","html-keyboard-response","354","383408","0.0-1.0-486.0","0","0","59250","","null","","","null","53","","","","","","","","","","","","","","","NaN",""
"","S1","","html-keyboard-response","355","383662","0.0-1.0-488.0","0","0","59250","","null","","","null","54","","","","","","","","","","","","","","","",""
"","ISI","","html-keyboard-response","356","384665","0.0-1.0-489.0","0","0","59250","","null","","","null","54","NaN","","","","","","","","","","","","","","",""
"","S2","","html-keyboard-response","357","384925","0.0-1.0-490.0","0","0","59250","","null","","","null","54","","NaN","","","","","","","","","","","","","",""
"","response","","html-keyboard-response","358","385235","0.0-1.0-491.0-0.0","0","0","59250","","308","","","68","54","","","2","54","training","adjacent","BA","2","1","N.jpg","M.jpg","1","0","0","",""
"","feedback","","html-keyboard-response","359","386238","0.0-1.0-492.0-0.0","0","0","59250","","null","","","null","54","","","","","","","","","","","","","","","",""
"","time_out","","html-keyboard-response","360","388240","0.0-1.0-494.0-0.0","0","0","59250","","null","","","null","54","","","","","","","","","","","","","","","",""
"","ITI","","html-keyboard-response","361","389243","0.0-1.0-495.0","0","0","59250","","null","","","null","54","","","","","","","","","","","","","","","NaN",""
"","S1","","html-keyboard-response","362","389498","0.0-1.0-497.0","0","0","59250","","null","","","null","55","","","","","","","","","","","","","","","",""
"","ISI","","html-keyboard-response","363","390500","0.0-1.0-498.0","0","0","59250","","null","","","null","55","NaN","","","","","","","","","","","","","","",""
"","S2","","html-keyboard-response","364","390752","0.0-1.0-499.0","0","0","59250","","null","","","null","55","","NaN","","","","","","","","","","","","","",""
"","response","","html-keyboard-response","365","390976","0.0-1.0-500.0-0.0","0","0","59250","","224","","","68","55","","","2","55","training","adjacent","FG","6","7","Q.jpg","R.jpg","1","1","1","",""
"","feedback","","html-keyboard-response","366","391981","0.0-1.0-501.0-0.0","0","0","59250","","null","","","null","55","","","","","","","","","","","","","","","",""
"","ITI","","html-keyboard-response","367","392985","0.0-1.0-504.0","0","0","59250","","null","","","null","55","","","","","","","","","","","","","","","NaN",""
"","S1","","html-keyboard-response","368","393239","0.0-1.0-506.0","0","0","59250","","null","","","null","56","","","","","","","","","","","","","","","",""
"","ISI","","html-keyboard-response","369","394242","0.0-1.0-507.0","0","0","59250","","null","","","null","56","NaN","","","","","","","","","","","","","","",""
"","S2","","html-keyboard-response","370","394496","0.0-1.0-508.0","0","0","59250","","null","","","null","56","","NaN","","","","","","","","","","","","","",""
"","response","","html-keyboard-response","371","394860","0.0-1.0-509.0-0.0","0","0","59250","","362","","","68","56","","","2","56","training","adjacent","FE","6","5","Q.jpg","L.jpg","1","0","0","",""
"","feedback","","html-keyboard-response","372","395868","0.0-1.0-510.0-0.0","0","0","59250","","null","","","null","56","","","","","","","","","","","","","","","",""
"","time_out","","html-keyboard-response","373","397872","0.0-1.0-512.0-0.0","0","0","59250","","null","","","null","56","","","","","","","","","","","","","","","",""
"","ITI","","html-keyboard-response","374","398876","0.0-1.0-513.0","0","0","59250","","null","","","null","56","","","","","","","","","","","","","","","NaN",""
"","S1","","html-keyboard-response","375","399129","0.0-1.0-515.0","0","0","59250","","null","","","null","57","","","","","","","","","","","","","","","",""
"","ISI","","html-keyboard-response","376","400132","0.0-1.0-516.0","0","0","59250","","null","","","null","57","NaN","","","","","","","","","","","","","","",""
"","S2","","html-keyboard-response","377","400384","0.0-1.0-517.0","0","0","59250","","null","","","null","57","","NaN","","","","","","","","","","","","","",""
"","response","","html-keyboard-response","378","401434","0.0-1.0-518.0-0.0","0","0","59250","","1048","","","68","57","","","2","57","training","adjacent","BC","2","3","N.jpg","O.jpg","1","1","1","",""
"","feedback","","html-keyboard-response","379","402437","0.0-1.0-519.0-0.0","0","0","59250","","null","","","null","57","","","","","","","","","","","","","","","",""
"","ITI","","html-keyboard-response","380","403441","0.0-1.0-522.0","0","0","59250","","null","","","null","57","","","","","","","","","","","","","","","NaN",""
"","S1","","html-keyboard-response","381","403693","0.0-1.0-524.0","0","0","59250","","null","","","null","58","","","","","","","","","","","","","","","",""
"","ISI","","html-keyboard-response","382","404697","0.0-1.0-525.0","0","0","59250","","null","","","null","58","NaN","","","","","","","","","","","","","","",""
"","S2","","html-keyboard-response","383","404952","0.0-1.0-526.0","0","0","59250","","null","","","null","58","","NaN","","","","","","","","","","","","","",""
"","response","","html-keyboard-response","384","405446","0.0-1.0-527.0-0.0","0","0","59250","","493","","","75","58","","","2","58","training","adjacent","EF","5","6","L.jpg","Q.jpg","0","1","0","",""
"","feedback","","html-keyboard-response","385","406450","0.0-1.0-528.0-0.0","0","0","59250","","null","","","null","58","","","","","","","","","","","","","","","",""
"","time_out","","html-keyboard-response","386","408452","0.0-1.0-530.0-0.0","0","0","59250","","null","","","null","58","","","","","","","","","","","","","","","",""
"","ITI","","html-keyboard-response","387","409455","0.0-1.0-531.0","0","0","59250","","null","","","null","58","","","","","","","","","","","","","","","NaN",""
"","S1","","html-keyboard-response","388","409709","0.0-1.0-533.0","0","0","59250","","null","","","null","59","","","","","","","","","","","","","","","",""
"","ISI","","html-keyboard-response","389","410711","0.0-1.0-534.0","0","0","59250","","null","","","null","59","NaN","","","","","","","","","","","","","","",""
"","S2","","html-keyboard-response","390","410964","0.0-1.0-535.0","0","0","59250","","null","","","null","59","","NaN","","","","","","","","","","","","","",""
"","response","","html-keyboard-response","391","411548","0.0-1.0-536.0-0.0","0","0","59250","","583","","","68","59","","","2","59","training","adjacent","FG","6","7","Q.jpg","R.jpg","1","1","1","",""
"","feedback","","html-keyboard-response","392","412550","0.0-1.0-537.0-0.0","0","0","59250","","null","","","null","59","","","","","","","","","","","","","","","",""
"","ITI","","html-keyboard-response","393","413553","0.0-1.0-540.0","0","0","59250","","null","","","null","59","","","","","","","","","","","","","","","NaN",""
"","S1","","html-keyboard-response","394","413813","0.0-1.0-542.0","0","0","59250","","null","","","null","60","","","","","","","","","","","","","","","",""
"","ISI","","html-keyboard-response","395","414816","0.0-1.0-543.0","0","0","59250","","null","","","null","60","NaN","","","","","","","","","","","","","","",""
"","S2","","html-keyboard-response","396","415068","0.0-1.0-544.0","0","0","59250","","null","","","null","60","","NaN","","","","","","","","","","","","","",""
"","response","","html-keyboard-response","397","415691","0.0-1.0-545.0-0.0","0","0","59250","","622","","","75","60","","","2","60","training","adjacent","GF","7","6","R.jpg","Q.jpg","0","0","1","",""
"","feedback","","html-keyboard-response","398","416694","0.0-1.0-546.0-0.0","0","0","59250","","null","","","null","60","","","","","","","","","","","","","","","",""
"","ITI","","html-keyboard-response","399","417698","0.0-1.0-549.0","0","0","59250","","null","","","null","60","","","","","","","","","","","","","","","NaN",""
"","S1","","html-keyboard-response","400","417952","0.0-1.0-551.0","0","0","59250","","null","","","null","61","","","","","","","","","","","","","","","",""
"","ISI","","html-keyboard-response","401","418956","0.0-1.0-552.0","0","0","59250","","null","","","null","61","NaN","","","","","","","","","","","","","","",""
"","S2","","html-keyboard-response","402","419209","0.0-1.0-553.0","0","0","59250","","null","","","null","61","","NaN","","","","","","","","","","","","","",""
"","response","","html-keyboard-response","403","419553","0.0-1.0-554.0-0.0","0","0","59250","","343","","","75","61","","","2","61","training","adjacent","GF","7","6","R.jpg","Q.jpg","0","0","1","",""
"","feedback","","html-keyboard-response","404","420557","0.0-1.0-555.0-0.0","0","0","59250","","null","","","null","61","","","","","","","","","","","","","","","",""
"","ITI","","html-keyboard-response","405","421560","0.0-1.0-558.0","0","0","59250","","null","","","null","61","","","","","","","","","","","","","","","NaN",""
"","S1","","html-keyboard-response","406","421812","0.0-1.0-560.0","0","0","59250","","null","","","null","62","","","","","","","","","","","","","","","",""
"","ISI","","html-keyboard-response","407","422816","0.0-1.0-561.0","0","0","59250","","null","","","null","62","NaN","","","","","","","","","","","","","","",""
"","S2","","html-keyboard-response","408","423070","0.0-1.0-562.0","0","0","59250","","null","","","null","62","","NaN","","","","","","","","","","","","","",""
"","response","","html-keyboard-response","409","423761","0.0-1.0-563.0-0.0","0","0","59250","","690","","","68","62","","","2","62","training","adjacent","FG","6","7","Q.jpg","R.jpg","1","1","1","",""
"","feedback","","html-keyboard-response","410","424764","0.0-1.0-564.0-0.0","0","0","59250","","null","","","null","62","","","","","","","","","","","","","","","",""
"","ITI","","html-keyboard-response","411","425766","0.0-1.0-567.0","0","0","59250","","null","","","null","62","","","","","","","","","","","","","","","NaN",""
"","S1","","html-keyboard-response","412","426019","0.0-1.0-569.0","0","0","59250","","null","","","null","63","","","","","","","","","","","","","","","",""
"","ISI","","html-keyboard-response","413","427022","0.0-1.0-570.0","0","0","59250","","null","","","null","63","NaN","","","","","","","","","","","","","","",""
"","S2","","html-keyboard-response","414","427276","0.0-1.0-571.0","0","0","59250","","null","","","null","63","","NaN","","","","","","","","","","","","","",""
"","response","","html-keyboard-response","415","427962","0.0-1.0-572.0-0.0","0","0","59250","","685","","","75","63","","","2","63","training","adjacent","CB","3","2","O.jpg","N.jpg","0","0","1","",""
"","feedback","","html-keyboard-response","416","428965","0.0-1.0-573.0-0.0","0","0","59250","","null","","","null","63","","","","","","","","","","","","","","","",""
"","ITI","","html-keyboard-response","417","429970","0.0-1.0-576.0","0","0","59250","","null","","","null","63","","","","","","","","","","","","","","","NaN",""
"","S1","","html-keyboard-response","418","430225","0.0-1.0-578.0","0","0","59250","","null","","","null","64","","","","","","","","","","","","","","","",""
"","ISI","","html-keyboard-response","419","431229","0.0-1.0-579.0","0","0","59250","","null","","","null","64","NaN","","","","","","","","","","","","","","",""
"","S2","","html-keyboard-response","420","431483","0.0-1.0-580.0","0","0","59250","","null","","","null","64","","NaN","","","","","","","","","","","","","",""
"","response","","html-keyboard-response","421","432657","0.0-1.0-581.0-0.0","0","0","59250","","1171","","","68","64","","","2","64","training","adjacent","EF","5","6","L.jpg","Q.jpg","1","1","1","",""
"","feedback","","html-keyboard-response","422","433662","0.0-1.0-582.0-0.0","0","0","59250","","null","","","null","64","","","","","","","","","","","","","","","",""
"","ITI","","html-keyboard-response","423","434666","0.0-1.0-585.0","0","0","59250","","null","","","null","64","","","","","","","","","","","","","","","NaN",""
"","S1","","html-keyboard-response","424","434919","0.0-1.0-587.0","0","0","59250","","null","","","null","65","","","","","","","","","","","","","","","",""
"","ISI","","html-keyboard-response","425","435922","0.0-1.0-588.0","0","0","59250","","null","","","null","65","NaN","","","","","","","","","","","","","","",""
"","S2","","html-keyboard-response","426","436176","0.0-1.0-589.0","0","0","59250","","null","","","null","65","","NaN","","","","","","","","","","","","","",""
"","response","","html-keyboard-response","427","436825","0.0-1.0-590.0-0.0","0","0","59250","","645","","","75","65","","","2","65","training","adjacent","DC","4","3","P.jpg","O.jpg","0","0","1","",""
"","feedback","","html-keyboard-response","428","437829","0.0-1.0-591.0-0.0","0","0","59250","","null","","","null","65","","","","","","","","","","","","","","","",""
"","ITI","","html-keyboard-response","429","438832","0.0-1.0-594.0","0","0","59250","","null","","","null","65","","","","","","","","","","","","","","","NaN",""
"","S1","","html-keyboard-response","430","439086","0.0-1.0-596.0","0","0","59250","","null","","","null","66","","","","","","","","","","","","","","","",""
"","ISI","","html-keyboard-response","431","440090","0.0-1.0-597.0","0","0","59250","","null","","","null","66","NaN","","","","","","","","","","","","","","",""
"","S2","","html-keyboard-response","432","440343","0.0-1.0-598.0","0","0","59250","","null","","","null","66","","NaN","","","","","","","","","","","","","",""
"","response","","html-keyboard-response","433","440683","0.0-1.0-599.0-0.0","0","0","59250","","339","","","75","66","","","2","66","training","adjacent","DC","4","3","P.jpg","O.jpg","0","0","1","",""
"","feedback","","html-keyboard-response","434","441687","0.0-1.0-600.0-0.0","0","0","59250","","null","","","null","66","","","","","","","","","","","","","","","",""
"","ITI","","html-keyboard-response","435","442691","0.0-1.0-603.0","0","0","59250","","null","","","null","66","","","","","","","","","","","","","","","NaN",""
"","S1","","html-keyboard-response","436","442944","0.0-1.0-605.0","0","0","59250","","null","","","null","67","","","","","","","","","","","","","","","",""
"","ISI","","html-keyboard-response","437","443948","0.0-1.0-606.0","0","0","59250","","null","","","null","67","NaN","","","","","","","","","","","","","","",""
"","S2","","html-keyboard-response","438","444202","0.0-1.0-607.0","0","0","59250","","null","","","null","67","","NaN","","","","","","","","","","","","","",""
"","response","","html-keyboard-response","439","444445","0.0-1.0-608.0-0.0","0","0","59250","","239","","","68","67","","","2","67","training","adjacent","BA","2","1","N.jpg","M.jpg","1","0","0","",""
"","feedback","","html-keyboard-response","440","445451","0.0-1.0-609.0-0.0","0","0","59250","","null","","","null","67","","","","","","","","","","","","","","","",""
"","time_out","","html-keyboard-response","441","447454","0.0-1.0-611.0-0.0","0","0","59250","","null","","","null","67","","","","","","","","","","","","","","","",""
"","ITI","","html-keyboard-response","442","448459","0.0-1.0-612.0","0","0","59250","","null","","","null","67","","","","","","","","","","","","","","","NaN",""
"","S1","","html-keyboard-response","443","448713","0.0-1.0-614.0","0","0","59250","","null","","","null","68","","","","","","","","","","","","","","","",""
"","ISI","","html-keyboard-response","444","449715","0.0-1.0-615.0","0","0","59250","","null","","","null","68","NaN","","","","","","","","","","","","","","",""
"","S2","","html-keyboard-response","445","449967","0.0-1.0-616.0","0","0","59250","","null","","","null","68","","NaN","","","","","","","","","","","","","",""
"","response","","html-keyboard-response","446","450493","0.0-1.0-617.0-0.0","0","0","59250","","525","","","75","68","","","2","68","training","adjacent","DC","4","3","P.jpg","O.jpg","0","0","1","",""
"","feedback","","html-keyboard-response","447","451496","0.0-1.0-618.0-0.0","0","0","59250","","null","","","null","68","","","","","","","","","","","","","","","",""
"","ITI","","html-keyboard-response","448","452501","0.0-1.0-621.0","0","0","59250","","null","","","null","68","","","","","","","","","","","","","","","NaN",""
"","S1","","html-keyboard-response","449","452756","0.0-1.0-623.0","0","0","59250","","null","","","null","69","","","","","","","","","","","","","","","",""
"","ISI","","html-keyboard-response","450","453759","0.0-1.0-624.0","0","0","59250","","null","","","null","69","NaN","","","","","","","","","","","","","","",""
"","S2","","html-keyboard-response","451","454012","0.0-1.0-625.0","0","0","59250","","null","","","null","69","","NaN","","","","","","","","","","","","","",""
"","response","","html-keyboard-response","452","454488","0.0-1.0-626.0-0.0","0","0","59250","","475","","","75","69","","","2","69","training","adjacent","BA","2","1","N.jpg","M.jpg","0","0","1","",""
"","feedback","","html-keyboard-response","453","455492","0.0-1.0-627.0-0.0","0","0","59250","","null","","","null","69","","","","","","","","","","","","","","","",""
"","ITI","","html-keyboard-response","454","456496","0.0-1.0-630.0","0","0","59250","","null","","","null","69","","","","","","","","","","","","","","","NaN",""
"","S1","","html-keyboard-response","455","456750","0.0-1.0-632.0","0","0","59250","","null","","","null","70","","","","","","","","","","","","","","","",""
"","ISI","","html-keyboard-response","456","457753","0.0-1.0-633.0","0","0","59250","","null","","","null","70","NaN","","","","","","","","","","","","","","",""
"","S2","","html-keyboard-response","457","458010","0.0-1.0-634.0","0","0","59250","","null","","","null","70","","NaN","","","","","","","","","","","","","",""
"","response","","html-keyboard-response","458","458419","0.0-1.0-635.0-0.0","0","0","59250","","407","","","75","70","","","2","70","training","adjacent","GF","7","6","R.jpg","Q.jpg","0","0","1","",""
"","feedback","","html-keyboard-response","459","459421","0.0-1.0-636.0-0.0","0","0","59250","","null","","","null","70","","","","","","","","","","","","","","","",""
"","ITI","","html-keyboard-response","460","460424","0.0-1.0-639.0","0","0","59250","","null","","","null","70","","","","","","","","","","","","","","","NaN",""
"","S1","","html-keyboard-response","461","460691","0.0-1.0-641.0","0","0","59250","","null","","","null","71","","","","","","","","","","","","","","","",""
"","ISI","","html-keyboard-response","462","461693","0.0-1.0-642.0","0","0","59250","","null","","","null","71","NaN","","","","","","","","","","","","","","",""
"","S2","","html-keyboard-response","463","461944","0.0-1.0-643.0","0","0","59250","","null","","","null","71","","NaN","","","","","","","","","","","","","",""
"","response","","html-keyboard-response","464","462627","0.0-1.0-644.0-0.0","0","0","59250","","680","","","68","71","","","2","71","training","adjacent","AB","1","2","M.jpg","N.jpg","1","1","1","",""
"","feedback","","html-keyboard-response","465","463631","0.0-1.0-645.0-0.0","0","0","59250","","null","","","null","71","","","","","","","","","","","","","","","",""
"","ITI","","html-keyboard-response","466","464635","0.0-1.0-648.0","0","0","59250","","null","","","null","71","","","","","","","","","","","","","","","NaN",""
"","S1","","html-keyboard-response","467","464888","0.0-1.0-650.0","0","0","59250","","null","","","null","72","","","","","","","","","","","","","","","",""
"","ISI","","html-keyboard-response","468","465890","0.0-1.0-651.0","0","0","59250","","null","","","null","72","NaN","","","","","","","","","","","","","","",""
"","S2","","html-keyboard-response","469","466144","0.0-1.0-652.0","0","0","59250","","null","","","null","72","","NaN","","","","","","","","","","","","","",""
"","response","","html-keyboard-response","470","466675","0.0-1.0-653.0-0.0","0","0","59250","","528","","","75","72","","","2","72","training","adjacent","DE","4","5","P.jpg","L.jpg","0","1","0","",""
"","feedback","","html-keyboard-response","471","467678","0.0-1.0-654.0-0.0","0","0","59250","","null","","","null","72","","","","","","","","","","","","","","","",""
"","time_out","","html-keyboard-response","472","469682","0.0-1.0-656.0-0.0","0","0","59250","","null","","","null","72","","","","","","","","","","","","","","","",""
"","ITI","","html-keyboard-response","473","470686","0.0-1.0-657.0","0","0","59250","","null","","","null","72","","","","","","","","","","","","","","","NaN",""
"","S1","","html-keyboard-response","474","470940","0.0-1.0-659.0","0","0","59250","","null","","","null","73","","","","","","","","","","","","","","","",""
"","ISI","","html-keyboard-response","475","471943","0.0-1.0-660.0","0","0","59250","","null","","","null","73","NaN","","","","","","","","","","","","","","",""
"","S2","","html-keyboard-response","476","472196","0.0-1.0-661.0","0","0","59250","","null","","","null","73","","NaN","","","","","","","","","","","","","",""
"","response","","html-keyboard-response","477","473641","0.0-1.0-662.0-0.0","0","0","59250","","1443","","","75","73","","","2","73","training","adjacent","ED","5","4","L.jpg","P.jpg","0","0","1","",""
"","feedback","","html-keyboard-response","478","474644","0.0-1.0-663.0-0.0","0","0","59250","","null","","","null","73","","","","","","","","","","","","","","","",""
"","ITI","","html-keyboard-response","479","475658","0.0-1.0-666.0","0","0","59250","","null","","","null","73","","","","","","","","","","","","","","","NaN",""
"","S1","","html-keyboard-response","480","475911","0.0-1.0-668.0","0","0","59250","","null","","","null","74","","","","","","","","","","","","","","","",""
"","ISI","","html-keyboard-response","481","476914","0.0-1.0-669.0","0","0","59250","","null","","","null","74","NaN","","","","","","","","","","","","","","",""
"","S2","","html-keyboard-response","482","477167","0.0-1.0-670.0","0","0","59250","","null","","","null","74","","NaN","","","","","","","","","","","","","",""
"","response","","html-keyboard-response","483","477759","0.0-1.0-671.0-0.0","0","0","59250","","590","","","75","74","","","2","74","training","adjacent","BA","2","1","N.jpg","M.jpg","0","0","1","",""
"","feedback","","html-keyboard-response","484","478760","0.0-1.0-672.0-0.0","0","0","59250","","null","","","null","74","","","","","","","","","","","","","","","",""
"","ITI","","html-keyboard-response","485","479764","0.0-1.0-675.0","0","0","59250","","null","","","null","74","","","","","","","","","","","","","","","NaN",""
"","S1","","html-keyboard-response","486","480018","0.0-1.0-677.0","0","0","59250","","null","","","null","75","","","","","","","","","","","","","","","",""
"","ISI","","html-keyboard-response","487","481021","0.0-1.0-678.0","0","0","59250","","null","","","null","75","NaN","","","","","","","","","","","","","","",""
"","S2","","html-keyboard-response","488","481280","0.0-1.0-679.0","0","0","59250","","null","","","null","75","","NaN","","","","","","","","","","","","","",""
"","response","","html-keyboard-response","489","482387","0.0-1.0-680.0-0.0","0","0","59250","","1103","","","75","75","","","2","75","training","adjacent","CD","3","4","O.jpg","P.jpg","0","1","0","",""
"","feedback","","html-keyboard-response","490","483391","0.0-1.0-681.0-0.0","0","0","59250","","null","","","null","75","","","","","","","","","","","","","","","",""
"","time_out","","html-keyboard-response","491","485398","0.0-1.0-683.0-0.0","0","0","59250","","null","","","null","75","","","","","","","","","","","","","","","",""
"","ITI","","html-keyboard-response","492","486401","0.0-1.0-684.0","0","0","59250","","null","","","null","75","","","","","","","","","","","","","","","NaN",""
"","S1","","html-keyboard-response","493","486654","0.0-1.0-686.0","0","0","59250","","null","","","null","76","","","","","","","","","","","","","","","",""
"","ISI","","html-keyboard-response","494","487670","0.0-1.0-687.0","0","0","59250","","null","","","null","76","NaN","","","","","","","","","","","","","","",""
"","S2","","html-keyboard-response","495","487923","0.0-1.0-688.0","0","0","59250","","null","","","null","76","","NaN","","","","","","","","","","","","","",""
"","response","","html-keyboard-response","496","489355","0.0-1.0-689.0-0.0","0","0","59250","","1430","","","75","76","","","2","76","training","adjacent","EF","5","6","L.jpg","Q.jpg","0","1","0","",""
"","feedback","","html-keyboard-response","497","490367","0.0-1.0-690.0-0.0","0","0","59250","","null","","","null","76","","","","","","","","","","","","","","","",""
"","time_out","","html-keyboard-response","498","492371","0.0-1.0-692.0-0.0","0","0","59250","","null","","","null","76","","","","","","","","","","","","","","","",""
"","ITI","","html-keyboard-response","499","493375","0.0-1.0-693.0","0","0","59250","","null","","","null","76","","","","","","","","","","","","","","","NaN",""
"","S1","","html-keyboard-response","500","493627","0.0-1.0-695.0","0","0","59250","","null","","","null","77","","","","","","","","","","","","","","","",""
"","ISI","","html-keyboard-response","501","494630","0.0-1.0-696.0","0","0","59250","","null","","","null","77","NaN","","","","","","","","","","","","","","",""
"","S2","","html-keyboard-response","502","494885","0.0-1.0-697.0","0","0","59250","","null","","","null","77","","NaN","","","","","","","","","","","","","",""
"","response","","html-keyboard-response","503","495976","0.0-1.0-698.0-0.0","0","0","59250","","1087","","","75","77","","","2","77","training","adjacent","CB","3","2","O.jpg","N.jpg","0","0","1","",""
"","feedback","","html-keyboard-response","504","496979","0.0-1.0-699.0-0.0","0","0","59250","","null","","","null","77","","","","","","","","","","","","","","","",""
"","ITI","","html-keyboard-response","505","497983","0.0-1.0-702.0","0","0","59250","","null","","","null","77","","","","","","","","","","","","","","","NaN",""
"","S1","","html-keyboard-response","506","498246","0.0-1.0-704.0","0","0","59250","","null","","","null","78","","","","","","","","","","","","","","","",""
"","ISI","","html-keyboard-response","507","499249","0.0-1.0-705.0","0","0","59250","","null","","","null","78","NaN","","","","","","","","","","","","","","",""
"","S2","","html-keyboard-response","508","499503","0.0-1.0-706.0","0","0","59250","","null","","","null","78","","NaN","","","","","","","","","","","","","",""
"","response","","html-keyboard-response","509","499811","0.0-1.0-707.0-0.0","0","0","59250","","305","","","68","78","","","2","78","training","adjacent","BC","2","3","N.jpg","O.jpg","1","1","1","",""
"","feedback","","html-keyboard-response","510","500815","0.0-1.0-708.0-0.0","0","0","59250","","null","","","null","78","","","","","","","","","","","","","","","",""
"","ITI","","html-keyboard-response","511","501818","0.0-1.0-711.0","0","0","59250","","null","","","null","78","","","","","","","","","","","","","","","NaN",""
"","S1","","html-keyboard-response","512","502074","0.0-1.0-713.0","0","0","59250","","null","","","null","79","","","","","","","","","","","","","","","",""
"","ISI","","html-keyboard-response","513","503077","0.0-1.0-714.0","0","0","59250","","null","","","null","79","NaN","","","","","","","","","","","","","","",""
"","S2","","html-keyboard-response","514","503331","0.0-1.0-715.0","0","0","59250","","null","","","null","79","","NaN","","","","","","","","","","","","","",""
"","response","","html-keyboard-response","515","504239","0.0-1.0-716.0-0.0","0","0","59250","","906","","","75","79","","","2","79","training","adjacent","DE","4","5","P.jpg","L.jpg","0","1","0","",""
"","feedback","","html-keyboard-response","516","505242","0.0-1.0-717.0-0.0","0","0","59250","","null","","","null","79","","","","","","","","","","","","","","","",""
"","time_out","","html-keyboard-response","517","507246","0.0-1.0-719.0-0.0","0","0","59250","","null","","","null","79","","","","","","","","","","","","","","","",""
"","ITI","","html-keyboard-response","518","508249","0.0-1.0-720.0","0","0","59250","","null","","","null","79","","","","","","","","","","","","","","","NaN",""
"","S1","","html-keyboard-response","519","508504","0.0-1.0-722.0","0","0","59250","","null","","","null","80","","","","","","","","","","","","","","","",""
"","ISI","","html-keyboard-response","520","509507","0.0-1.0-723.0","0","0","59250","","null","","","null","80","NaN","","","","","","","","","","","","","","",""
"","S2","","html-keyboard-response","521","509762","0.0-1.0-724.0","0","0","59250","","null","","","null","80","","NaN","","","","","","","","","","","","","",""
"","response","","html-keyboard-response","522","510696","0.0-1.0-725.0-0.0","0","0","59250","","930","","","68","80","","","2","80","training","adjacent","EF","5","6","L.jpg","Q.jpg","1","1","1","",""
"","feedback","","html-keyboard-response","523","511700","0.0-1.0-726.0-0.0","0","0","59250","","null","","","null","80","","","","","","","","","","","","","","","",""
"","ITI","","html-keyboard-response","524","512704","0.0-1.0-729.0","0","0","59250","","null","","","null","80","","","","","","","","","","","","","","","NaN",""
"","S1","","html-keyboard-response","525","512958","0.0-1.0-731.0","0","0","59250","","null","","","null","81","","","","","","","","","","","","","","","",""
"","ISI","","html-keyboard-response","526","513961","0.0-1.0-732.0","0","0","59250","","null","","","null","81","NaN","","","","","","","","","","","","","","",""
"","S2","","html-keyboard-response","527","514214","0.0-1.0-733.0","0","0","59250","","null","","","null","81","","NaN","","","","","","","","","","","","","",""
"","response","","html-keyboard-response","528","514525","0.0-1.0-734.0-0.0","0","0","59250","","308","","","68","81","","","2","81","training","adjacent","ED","5","4","L.jpg","P.jpg","1","0","0","",""
"","feedback","","html-keyboard-response","529","515530","0.0-1.0-735.0-0.0","0","0","59250","","null","","","null","81","","","","","","","","","","","","","","","",""
"","time_out","","html-keyboard-response","530","517533","0.0-1.0-737.0-0.0","0","0","59250","","null","","","null","81","","","","","","","","","","","","","","","",""
"","ITI","","html-keyboard-response","531","518537","0.0-1.0-738.0","0","0","59250","","null","","","null","81","","","","","","","","","","","","","","","NaN",""
"","S1","","html-keyboard-response","532","518791","0.0-1.0-740.0","0","0","59250","","null","","","null","82","","","","","","","","","","","","","","","",""
"","ISI","","html-keyboard-response","533","519795","0.0-1.0-741.0","0","0","59250","","null","","","null","82","NaN","","","","","","","","","","","","","","",""
"","S2","","html-keyboard-response","534","520047","0.0-1.0-742.0","0","0","59250","","null","","","null","82","","NaN","","","","","","","","","","","","","",""
"","response","","html-keyboard-response","535","520651","0.0-1.0-743.0-0.0","0","0","59250","","601","","","68","82","","","2","82","training","adjacent","CD","3","4","O.jpg","P.jpg","1","1","1","",""
"","feedback","","html-keyboard-response","536","521656","0.0-1.0-744.0-0.0","0","0","59250","","null","","","null","82","","","","","","","","","","","","","","","",""
"","ITI","","html-keyboard-response","537","522659","0.0-1.0-747.0","0","0","59250","","null","","","null","82","","","","","","","","","","","","","","","NaN",""
"","S1","","html-keyboard-response","538","522911","0.0-1.0-749.0","0","0","59250","","null","","","null","83","","","","","","","","","","","","","","","",""
"","ISI","","html-keyboard-response","539","523913","0.0-1.0-750.0","0","0","59250","","null","","","null","83","NaN","","","","","","","","","","","","","","",""
"","S2","","html-keyboard-response","540","524167","0.0-1.0-751.0","0","0","59250","","null","","","null","83","","NaN","","","","","","","","","","","","","",""
"","response","","html-keyboard-response","541","525122","0.0-1.0-752.0-0.0","0","0","59250","","951","","","68","83","","","2","83","training","adjacent","FE","6","5","Q.jpg","L.jpg","1","0","0","",""
"","feedback","","html-keyboard-response","542","526126","0.0-1.0-753.0-0.0","0","0","59250","","null","","","null","83","","","","","","","","","","","","","","","",""
"","time_out","","html-keyboard-response","543","528129","0.0-1.0-755.0-0.0","0","0","59250","","null","","","null","83","","","","","","","","","","","","","","","",""
"","ITI","","html-keyboard-response","544","529131","0.0-1.0-756.0","0","0","59250","","null","","","null","83","","","","","","","","","","","","","","","NaN",""
"","S1","","html-keyboard-response","545","529384","0.0-1.0-758.0","0","0","59250","","null","","","null","84","","","","","","","","","","","","","","","",""
"","ISI","","html-keyboard-response","546","530388","0.0-1.0-759.0","0","0","59250","","null","","","null","84","NaN","","","","","","","","","","","","","","",""
"","S2","","html-keyboard-response","547","530642","0.0-1.0-760.0","0","0","59250","","null","","","null","84","","NaN","","","","","","","","","","","","","",""
"","response","","html-keyboard-response","548","531884","0.0-1.0-761.0-0.0","0","0","59250","","1239","","","75","84","","","2","84","training","adjacent","AB","1","2","M.jpg","N.jpg","0","1","0","",""
"","feedback","","html-keyboard-response","549","532888","0.0-1.0-762.0-0.0","0","0","59250","","null","","","null","84","","","","","","","","","","","","","","","",""
"","time_out","","html-keyboard-response","550","534893","0.0-1.0-764.0-0.0","0","0","59250","","null","","","null","84","","","","","","","","","","","","","","","",""
"","ITI","","html-keyboard-response","551","535895","0.0-1.0-765.0","0","0","59250","","null","","","null","84","","","","","","","","","","","","","","","NaN",""
"","S1","","html-keyboard-response","552","536148","0.0-1.0-767.0","0","0","59250","","null","","","null","85","","","","","","","","","","","","","","","",""
"","ISI","","html-keyboard-response","553","537150","0.0-1.0-768.0","0","0","59250","","null","","","null","85","NaN","","","","","","","","","","","","","","",""
"","S2","","html-keyboard-response","554","537403","0.0-1.0-769.0","0","0","59250","","null","","","null","85","","NaN","","","","","","","","","","","","","",""
"","response","","html-keyboard-response","555","538740","0.0-1.0-770.0-0.0","0","0","59250","","1332","","","68","85","","","2","85","training","adjacent","FE","6","5","Q.jpg","L.jpg","1","0","0","",""
"","feedback","","html-keyboard-response","556","539743","0.0-1.0-771.0-0.0","0","0","59250","","null","","","null","85","","","","","","","","","","","","","","","",""
"","time_out","","html-keyboard-response","557","541746","0.0-1.0-773.0-0.0","0","0","59250","","null","","","null","85","","","","","","","","","","","","","","","",""
"","ITI","","html-keyboard-response","558","542749","0.0-1.0-774.0","0","0","59250","","null","","","null","85","","","","","","","","","","","","","","","NaN",""
"","S1","","html-keyboard-response","559","543001","0.0-1.0-776.0","0","0","59250","","null","","","null","86","","","","","","","","","","","","","","","",""
"","ISI","","html-keyboard-response","560","544005","0.0-1.0-777.0","0","0","59250","","null","","","null","86","NaN","","","","","","","","","","","","","","",""
"","S2","","html-keyboard-response","561","544259","0.0-1.0-778.0","0","0","59250","","null","","","null","86","","NaN","","","","","","","","","","","","","",""
"","response","","html-keyboard-response","562","544417","0.0-1.0-779.0-0.0","0","0","59250","","156","","","75","86","","","2","86","training","adjacent","BC","2","3","N.jpg","O.jpg","0","1","0","",""
"","feedback","","html-keyboard-response","563","545419","0.0-1.0-780.0-0.0","0","0","59250","","null","","","null","86","","","","","","","","","","","","","","","",""
"","time_out","","html-keyboard-response","564","547423","0.0-1.0-782.0-0.0","0","0","59250","","null","","","null","86","","","","","","","","","","","","","","","",""
"","ITI","","html-keyboard-response","565","548426","0.0-1.0-783.0","0","0","59250","","null","","","null","86","","","","","","","","","","","","","","","NaN",""
"","S1","","html-keyboard-response","566","548679","0.0-1.0-785.0","0","0","59250","","null","","","null","87","","","","","","","","","","","","","","","",""
"","ISI","","html-keyboard-response","567","549697","0.0-1.0-786.0","0","0","59250","","null","","","null","87","NaN","","","","","","","","","","","","","","",""
"","S2","","html-keyboard-response","568","549949","0.0-1.0-787.0","0","0","59250","","null","","","null","87","","NaN","","","","","","","","","","","","","",""
"","response","","html-keyboard-response","569","551500","0.0-1.0-788.0-0.0","0","0","59250","","1549","","","68","87","","","2","87","training","adjacent","AB","1","2","M.jpg","N.jpg","1","1","1","",""
"","feedback","","html-keyboard-response","570","552505","0.0-1.0-789.0-0.0","0","0","59250","","null","","","null","87","","","","","","","","","","","","","","","",""
"","ITI","","html-keyboard-response","571","553510","0.0-1.0-792.0","0","0","59250","","null","","","null","87","","","","","","","","","","","","","","","NaN",""
"","S1","","html-keyboard-response","572","553763","0.0-1.0-794.0","0","0","59250","","null","","","null","88","","","","","","","","","","","","","","","",""
"","ISI","","html-keyboard-response","573","554767","0.0-1.0-795.0","0","0","59250","","null","","","null","88","NaN","","","","","","","","","","","","","","",""
"","S2","","html-keyboard-response","574","555022","0.0-1.0-796.0","0","0","59250","","null","","","null","88","","NaN","","","","","","","","","","","","","",""
"","response","","html-keyboard-response","575","555543","0.0-1.0-797.0-0.0","0","0","59250","","519","","","75","88","","","2","88","training","adjacent","GF","7","6","R.jpg","Q.jpg","0","0","1","",""
"","feedback","","html-keyboard-response","576","556547","0.0-1.0-798.0-0.0","0","0","59250","","null","","","null","88","","","","","","","","","","","","","","","",""
"","ITI","","html-keyboard-response","577","557552","0.0-1.0-801.0","0","0","59250","","null","","","null","88","","","","","","","","","","","","","","","NaN",""
"","S1","","html-keyboard-response","578","557806","0.0-1.0-803.0","0","0","59250","","null","","","null","89","","","","","","","","","","","","","","","",""
"","ISI","","html-keyboard-response","579","558809","0.0-1.0-804.0","0","0","59250","","null","","","null","89","NaN","","","","","","","","","","","","","","",""
"","S2","","html-keyboard-response","580","559064","0.0-1.0-805.0","0","0","59250","","null","","","null","89","","NaN","","","","","","","","","","","","","",""
