"success","ttype","start_time","trial_type","trial_index","time_elapsed","internal_node_id","warning","missed_checkup","PID","view_history","rt","responses","repeat_instructions","key_press","index","keypress_isi","keypress_S2","block","trial_num","phase","group_type","pair_type","S1_stim","S2_stim","S1_img","S2_img","S1_chosen","S1_higher","accuracy","keypress_iti","total_bonus_tally"
"true","full_screen","d03072023hr1917","fullscreen","0","20513","0.0-0.0","0","0","65911","","","","","","","","","","","","","","","","","","","","","",""
"","instructions","","instructions","1","69648","0.0-1.0-0.0-0.0","0","0","65911","[{""page_index"":0,""viewing_time"":5375},{""page_index"":1,""viewing_time"":29807},{""page_index"":2,""viewing_time"":11035},{""page_index"":3,""viewing_time"":2910}]","49130","","","","","","","","","","","","","","","","","","","",""
"","comprehension_check","","survey-multi-choice","2","105640","0.0-1.0-0.0-1.0","0","0","65911","","35968","{""Q0"":""True"",""Q1"":""K"",""Q2"":""Only when the screen 'MAKE A CHOICE' is shown"",""Q3"":""Green mark"",""Q4"":""either D or K""}","1","","","","","","","","","","","","","","","","","",""
"","missed_instruction_checkup","","html-keyboard-response","3","108098","0.0-1.0-0.0-2.0-0.0","0","1","65911","","2451","","","32","","","","","","","","","","","","","","","","",""
"","instructions","","instructions","4","136343","0.0-1.0-0.1-0.1","0","0","65911","[{""page_index"":0,""viewing_time"":7457},{""page_index"":1,""viewing_time"":18082},{""page_index"":2,""viewing_time"":1055},{""page_index"":3,""viewing_time"":1647}]","28241","","","","","","","","","","","","","","","","","","","",""
"","comprehension_check","","survey-multi-choice","5","151857","0.0-1.0-0.1-1.1","0","0","65911","","15505","{""Q0"":""True"",""Q1"":""K"",""Q2"":""Once the second image appears and while the screen 'MAKE A CHOICE' is shown"",""Q3"":""Green mark"",""Q4"":""either D or K""}","0","","","","","","","","","","","","","","","","","",""
"","start_exp","","html-keyboard-response","6","154272","0.0-1.0-1.0","0","0","65911","","2410","","","32","","","","","","","","","","","","","","","","",""
"","S1","","html-keyboard-response","7","154532","0.0-1.0-2.0","0","0","65911","","null","","","null","0","","","","","","","","","","","","","","","",""
"","ISI","","html-keyboard-response","8","155866","0.0-1.0-3.0","0","0","65911","","null","","","null","0","NaN","","","","","","","","","","","","","","",""
"","S2","","html-keyboard-response","9","156238","0.0-1.0-4.0","0","0","65911","","null","","","null","0","","NaN","","","","","","","","","","","","","",""
"","response","","html-keyboard-response","10","157964","0.0-1.0-5.0-0.0","0","0","65911","","1720","","","75","0","","","1","0","training","adjacent","CB","3","2","P.jpg","O.jpg","1","0","0","",""
"","feedback","","html-keyboard-response","11","158972","0.0-1.0-6.0-0.0","0","0","65911","","null","","","null","0","","","","","","","","","","","","","","","",""
"","time_out","","html-keyboard-response","12","160977","0.0-1.0-8.0-0.0","0","0","65911","","null","","","null","0","","","","","","","","","","","","","","","",""
"","ITI","","html-keyboard-response","13","161982","0.0-1.0-9.0","0","0","65911","","null","","","null","0","","","","","","","","","","","","","","","NaN",""
"","S1","","html-keyboard-response","14","162236","0.0-1.0-11.0","0","0","65911","","null","","","null","1","","","","","","","","","","","","","","","",""
"","ISI","","html-keyboard-response","15","163242","0.0-1.0-12.0","0","0","65911","","null","","","null","1","NaN","","","","","","","","","","","","","","",""
"","S2","","html-keyboard-response","16","163499","0.0-1.0-13.0","0","0","65911","","null","","","null","1","","NaN","","","","","","","","","","","","","",""
"","response","","html-keyboard-response","17","165254","0.0-1.0-14.0-0.0","0","0","65911","","null","","","null","1","","","1","1","training","adjacent","ED","5","4","M.jpg","Q.jpg","NaN","0","0","",""
"","too_slow_prompt","","html-keyboard-response","18","166260","0.0-1.0-16.0-0.0","1","0","65911","","null","","","null","","","","","","","","","","","","","","","","",""
"","time_out","","html-keyboard-response","19","168266","0.0-1.0-17.0-0.0","0","0","65911","","null","","","null","1","","","","","","","","","","","","","","","",""
"","ITI","","html-keyboard-response","20","169272","0.0-1.0-18.0","0","0","65911","","null","","","null","1","","","","","","","","","","","","","","","NaN",""
"","S1","","html-keyboard-response","21","169530","0.0-1.0-20.0","0","0","65911","","null","","","null","2","","","","","","","","","","","","","","","",""
"","ISI","","html-keyboard-response","22","170537","0.0-1.0-21.0","0","0","65911","","null","","","null","2","NaN","","","","","","","","","","","","","","",""
"","S2","","html-keyboard-response","23","170795","0.0-1.0-22.0","0","0","65911","","null","","","null","2","","NaN","","","","","","","","","","","","","",""
"","response","","html-keyboard-response","24","171737","0.0-1.0-23.0-0.0","0","0","65911","","937","","","68","2","","","1","2","training","adjacent","FE","6","5","L.jpg","M.jpg","0","0","1","",""
"","feedback","","html-keyboard-response","25","172743","0.0-1.0-24.0-0.0","0","0","65911","","null","","","null","2","","","","","","","","","","","","","","","",""
"","ITI","","html-keyboard-response","26","173750","0.0-1.0-27.0","0","0","65911","","null","","","null","2","","","","","","","","","","","","","","","NaN",""
"","S1","","html-keyboard-response","27","174009","0.0-1.0-29.0","0","0","65911","","null","","","null","3","","","","","","","","","","","","","","","",""
"","ISI","","html-keyboard-response","28","175015","0.0-1.0-30.0","0","0","65911","","null","","","null","3","NaN","","","","","","","","","","","","","","",""
"","S2","","html-keyboard-response","29","175272","0.0-1.0-31.0","0","0","65911","","null","","","null","3","","NaN","","","","","","","","","","","","","",""
"","response","","html-keyboard-response","30","175497","0.0-1.0-32.0-0.0","0","0","65911","","218","","","75","3","","","1","3","training","adjacent","GF","7","6","R.jpg","L.jpg","1","0","0","",""
"","feedback","","html-keyboard-response","31","176506","0.0-1.0-33.0-0.0","0","0","65911","","null","","","null","3","","","","","","","","","","","","","","","",""
"","time_out","","html-keyboard-response","32","178514","0.0-1.0-35.0-0.0","0","0","65911","","null","","","null","3","","","","","","","","","","","","","","","",""
"","ITI","","html-keyboard-response","33","179522","0.0-1.0-36.0","0","0","65911","","null","","","null","3","","","","","","","","","","","","","","","NaN",""
"","S1","","html-keyboard-response","34","179778","0.0-1.0-38.0","0","0","65911","","null","","","null","4","","","","","","","","","","","","","","","",""
"","ISI","","html-keyboard-response","35","180783","0.0-1.0-39.0","0","0","65911","","null","","","null","4","NaN","","","","","","","","","","","","","","",""
"","S2","","html-keyboard-response","36","181039","0.0-1.0-40.0","0","0","65911","","null","","","null","4","","NaN","","","","","","","","","","","","","",""
"","response","","html-keyboard-response","37","181381","0.0-1.0-41.0-0.0","0","0","65911","","335","","","75","4","","","1","4","training","adjacent","AB","1","2","N.jpg","O.jpg","1","1","1","",""
"","feedback","","html-keyboard-response","38","182389","0.0-1.0-42.0-0.0","0","0","65911","","null","","","null","4","","","","","","","","","","","","","","","",""
"","ITI","","html-keyboard-response","39","183396","0.0-1.0-45.0","0","0","65911","","null","","","null","4","","","","","","","","","","","","","","","NaN",""
"","S1","","html-keyboard-response","40","183653","0.0-1.0-47.0","0","0","65911","","null","","","null","5","","","","","","","","","","","","","","","",""
"","ISI","","html-keyboard-response","41","184659","0.0-1.0-48.0","0","0","65911","","null","","","null","5","NaN","","","","","","","","","","","","","","",""
"","S2","","html-keyboard-response","42","184917","0.0-1.0-49.0","0","0","65911","","null","","","null","5","","NaN","","","","","","","","","","","","","",""
"","response","","html-keyboard-response","43","185099","0.0-1.0-50.0-0.0","0","0","65911","","175","","","68","5","","","1","5","training","adjacent","DE","4","5","Q.jpg","M.jpg","0","1","0","",""
"","feedback","","html-keyboard-response","44","186106","0.0-1.0-51.0-0.0","0","0","65911","","null","","","null","5","","","","","","","","","","","","","","","",""
"","time_out","","html-keyboard-response","45","188112","0.0-1.0-53.0-0.0","0","0","65911","","null","","","null","5","","","","","","","","","","","","","","","",""
"","ITI","","html-keyboard-response","46","189116","0.0-1.0-54.0","0","0","65911","","null","","","null","5","","","","","","","","","","","","","","","NaN",""
"","S1","","html-keyboard-response","47","189373","0.0-1.0-56.0","0","0","65911","","null","","","null","6","","","","","","","","","","","","","","","",""
"","ISI","","html-keyboard-response","48","190380","0.0-1.0-57.0","0","0","65911","","142","","","75","6","k","","","","","","","","","","","","","","",""
"","S2","","html-keyboard-response","49","190640","0.0-1.0-58.0","0","0","65911","","null","","","null","6","","NaN","","","","","","","","","","","","","",""
"","response","","html-keyboard-response","50","191115","0.0-1.0-59.0-0.0","0","0","65911","","469","","","75","6","","","1","6","training","adjacent","EF","5","6","M.jpg","L.jpg","1","1","1","",""
"","feedback","","html-keyboard-response","51","192121","0.0-1.0-60.0-0.0","0","0","65911","","null","","","null","6","","","","","","","","","","","","","","","",""
"","ITI","","html-keyboard-response","52","193128","0.0-1.0-63.0","0","0","65911","","null","","","null","6","","","","","","","","","","","","","","","NaN",""
"","S1","","html-keyboard-response","53","193387","0.0-1.0-65.0","0","0","65911","","null","","","null","7","","","","","","","","","","","","","","","",""
"","ISI","","html-keyboard-response","54","194394","0.0-1.0-66.0","0","0","65911","","null","","","null","7","NaN","","","","","","","","","","","","","","",""
"","S2","","html-keyboard-response","55","194652","0.0-1.0-67.0","0","0","65911","","null","","","null","7","","NaN","","","","","","","","","","","","","",""
"","response","","html-keyboard-response","56","195842","0.0-1.0-68.0-0.0","0","0","65911","","1185","","","75","7","","","1","7","training","adjacent","FE","6","5","L.jpg","M.jpg","1","0","0","",""
"","feedback","","html-keyboard-response","57","196848","0.0-1.0-69.0-0.0","0","0","65911","","null","","","null","7","","","","","","","","","","","","","","","",""
"","time_out","","html-keyboard-response","58","198855","0.0-1.0-71.0-0.0","0","0","65911","","null","","","null","7","","","","","","","","","","","","","","","",""
"","ITI","","html-keyboard-response","59","199861","0.0-1.0-72.0","0","0","65911","","null","","","null","7","","","","","","","","","","","","","","","NaN",""
"","S1","","html-keyboard-response","60","200119","0.0-1.0-74.0","0","0","65911","","null","","","null","8","","","","","","","","","","","","","","","",""
"","ISI","","html-keyboard-response","61","201125","0.0-1.0-75.0","0","0","65911","","null","","","null","8","NaN","","","","","","","","","","","","","","",""
"","S2","","html-keyboard-response","62","201382","0.0-1.0-76.0","0","0","65911","","null","","","null","8","","NaN","","","","","","","","","","","","","",""
"","response","","html-keyboard-response","63","202132","0.0-1.0-77.0-0.0","0","0","65911","","744","","","68","8","","","1","8","training","adjacent","GF","7","6","R.jpg","L.jpg","0","0","1","",""
"","feedback","","html-keyboard-response","64","203139","0.0-1.0-78.0-0.0","0","0","65911","","null","","","null","8","","","","","","","","","","","","","","","",""
"","ITI","","html-keyboard-response","65","204146","0.0-1.0-81.0","0","0","65911","","null","","","null","8","","","","","","","","","","","","","","","NaN",""
"","S1","","html-keyboard-response","66","204403","0.0-1.0-83.0","0","0","65911","","null","","","null","9","","","","","","","","","","","","","","","",""
"","ISI","","html-keyboard-response","67","205410","0.0-1.0-84.0","0","0","65911","","null","","","null","9","NaN","","","","","","","","","","","","","","",""
"","S2","","html-keyboard-response","68","205667","0.0-1.0-85.0","0","0","65911","","null","","","null","9","","NaN","","","","","","","","","","","","","",""
"","response","","html-keyboard-response","69","206876","0.0-1.0-86.0-0.0","0","0","65911","","1203","","","68","9","","","1","9","training","adjacent","ED","5","4","M.jpg","Q.jpg","0","0","1","",""
"","feedback","","html-keyboard-response","70","207882","0.0-1.0-87.0-0.0","0","0","65911","","null","","","null","9","","","","","","","","","","","","","","","",""
"","ITI","","html-keyboard-response","71","208892","0.0-1.0-90.0","0","0","65911","","null","","","null","9","","","","","","","","","","","","","","","NaN",""
"","S1","","html-keyboard-response","72","209153","0.0-1.0-92.0","0","0","65911","","null","","","null","10","","","","","","","","","","","","","","","",""
"","ISI","","html-keyboard-response","73","210159","0.0-1.0-93.0","0","0","65911","","null","","","null","10","NaN","","","","","","","","","","","","","","",""
"","S2","","html-keyboard-response","74","210417","0.0-1.0-94.0","0","0","65911","","null","","","null","10","","NaN","","","","","","","","","","","","","",""
"","response","","html-keyboard-response","75","211725","0.0-1.0-95.0-0.0","0","0","65911","","1302","","","75","10","","","1","10","training","adjacent","DE","4","5","Q.jpg","M.jpg","1","1","1","",""
"","feedback","","html-keyboard-response","76","212735","0.0-1.0-96.0-0.0","0","0","65911","","null","","","null","10","","","","","","","","","","","","","","","",""
"","ITI","","html-keyboard-response","77","213743","0.0-1.0-99.0","0","0","65911","","null","","","null","10","","","","","","","","","","","","","","","NaN",""
"","S1","","html-keyboard-response","78","214004","0.0-1.0-101.0","0","0","65911","","null","","","null","11","","","","","","","","","","","","","","","",""
"","ISI","","html-keyboard-response","79","215010","0.0-1.0-102.0","0","0","65911","","null","","","null","11","NaN","","","","","","","","","","","","","","",""
"","S2","","html-keyboard-response","80","215267","0.0-1.0-103.0","0","0","65911","","null","","","null","11","","NaN","","","","","","","","","","","","","",""
"","response","","html-keyboard-response","81","216456","0.0-1.0-104.0-0.0","0","0","65911","","1183","","","68","11","","","1","11","training","adjacent","DE","4","5","Q.jpg","M.jpg","0","1","0","",""
"","feedback","","html-keyboard-response","82","217463","0.0-1.0-105.0-0.0","0","0","65911","","null","","","null","11","","","","","","","","","","","","","","","",""
"","time_out","","html-keyboard-response","83","219468","0.0-1.0-107.0-0.0","0","0","65911","","null","","","null","11","","","","","","","","","","","","","","","",""
"","ITI","","html-keyboard-response","84","220474","0.0-1.0-108.0","0","0","65911","","null","","","null","11","","","","","","","","","","","","","","","NaN",""
"","S1","","html-keyboard-response","85","220733","0.0-1.0-110.0","0","0","65911","","null","","","null","12","","","","","","","","","","","","","","","",""
"","ISI","","html-keyboard-response","86","221738","0.0-1.0-111.0","0","0","65911","","null","","","null","12","NaN","","","","","","","","","","","","","","",""
"","S2","","html-keyboard-response","87","222003","0.0-1.0-112.0","0","0","65911","","null","","","null","12","","NaN","","","","","","","","","","","","","",""
"","response","","html-keyboard-response","88","222910","0.0-1.0-113.0-0.0","0","0","65911","","902","","","68","12","","","1","12","training","adjacent","FE","6","5","L.jpg","M.jpg","0","0","1","",""
"","feedback","","html-keyboard-response","89","223917","0.0-1.0-114.0-0.0","0","0","65911","","null","","","null","12","","","","","","","","","","","","","","","",""
"","ITI","","html-keyboard-response","90","224923","0.0-1.0-117.0","0","0","65911","","null","","","null","12","","","","","","","","","","","","","","","NaN",""
"","S1","","html-keyboard-response","91","225181","0.0-1.0-119.0","0","0","65911","","null","","","null","13","","","","","","","","","","","","","","","",""
"","ISI","","html-keyboard-response","92","226187","0.0-1.0-120.0","0","0","65911","","null","","","null","13","NaN","","","","","","","","","","","","","","",""
"","S2","","html-keyboard-response","93","226444","0.0-1.0-121.0","0","0","65911","","null","","","null","13","","NaN","","","","","","","","","","","","","",""
"","response","","html-keyboard-response","94","227280","0.0-1.0-122.0-0.0","0","0","65911","","829","","","75","13","","","1","13","training","adjacent","GF","7","6","R.jpg","L.jpg","1","0","0","",""
"","feedback","","html-keyboard-response","95","228287","0.0-1.0-123.0-0.0","0","0","65911","","null","","","null","13","","","","","","","","","","","","","","","",""
"","time_out","","html-keyboard-response","96","230293","0.0-1.0-125.0-0.0","0","0","65911","","null","","","null","13","","","","","","","","","","","","","","","",""
"","ITI","","html-keyboard-response","97","231299","0.0-1.0-126.0","0","0","65911","","null","","","null","13","","","","","","","","","","","","","","","NaN",""
"","S1","","html-keyboard-response","98","231556","0.0-1.0-128.0","0","0","65911","","null","","","null","14","","","","","","","","","","","","","","","",""
"","ISI","","html-keyboard-response","99","232576","0.0-1.0-129.0","0","0","65911","","null","","","null","14","NaN","","","","","","","","","","","","","","",""
"","S2","","html-keyboard-response","100","232833","0.0-1.0-130.0","0","0","65911","","null","","","null","14","","NaN","","","","","","","","","","","","","",""
"","response","","html-keyboard-response","101","233313","0.0-1.0-131.0-0.0","0","0","65911","","473","","","68","14","","","1","14","training","adjacent","FE","6","5","L.jpg","M.jpg","0","0","1","",""
"","feedback","","html-keyboard-response","102","234320","0.0-1.0-132.0-0.0","0","0","65911","","null","","","null","14","","","","","","","","","","","","","","","",""
"","ITI","","html-keyboard-response","103","235324","0.0-1.0-135.0","0","0","65911","","null","","","null","14","","","","","","","","","","","","","","","NaN",""
"","S1","","html-keyboard-response","104","235581","0.0-1.0-137.0","0","0","65911","","null","","","null","15","","","","","","","","","","","","","","","",""
"","ISI","","html-keyboard-response","105","236587","0.0-1.0-138.0","0","0","65911","","null","","","null","15","NaN","","","","","","","","","","","","","","",""
"","S2","","html-keyboard-response","106","236843","0.0-1.0-139.0","0","0","65911","","null","","","null","15","","NaN","","","","","","","","","","","","","",""
"","response","","html-keyboard-response","107","237241","0.0-1.0-140.0-0.0","0","0","65911","","392","","","75","15","","","1","15","training","adjacent","BC","2","3","O.jpg","P.jpg","1","1","1","",""
"","feedback","","html-keyboard-response","108","238250","0.0-1.0-141.0-0.0","0","0","65911","","null","","","null","15","","","","","","","","","","","","","","","",""
"","ITI","","html-keyboard-response","109","239258","0.0-1.0-144.0","0","0","65911","","null","","","null","15","","","","","","","","","","","","","","","NaN",""
"","S1","","html-keyboard-response","110","239514","0.0-1.0-146.0","0","0","65911","","null","","","null","16","","","","","","","","","","","","","","","",""
"","ISI","","html-keyboard-response","111","240520","0.0-1.0-147.0","0","0","65911","","null","","","null","16","NaN","","","","","","","","","","","","","","",""
"","S2","","html-keyboard-response","112","240778","0.0-1.0-148.0","0","0","65911","","null","","","null","16","","NaN","","","","","","","","","","","","","",""
"","response","","html-keyboard-response","113","241713","0.0-1.0-149.0-0.0","0","0","65911","","929","","","75","16","","","1","16","training","adjacent","AB","1","2","N.jpg","O.jpg","1","1","1","",""
"","feedback","","html-keyboard-response","114","242719","0.0-1.0-150.0-0.0","0","0","65911","","null","","","null","16","","","","","","","","","","","","","","","",""
"","ITI","","html-keyboard-response","115","243726","0.0-1.0-153.0","0","0","65911","","null","","","null","16","","","","","","","","","","","","","","","NaN",""
"","S1","","html-keyboard-response","116","243985","0.0-1.0-155.0","0","0","65911","","null","","","null","17","","","","","","","","","","","","","","","",""
"","ISI","","html-keyboard-response","117","244991","0.0-1.0-156.0","0","0","65911","","null","","","null","17","NaN","","","","","","","","","","","","","","",""
"","S2","","html-keyboard-response","118","245248","0.0-1.0-157.0","0","0","65911","","null","","","null","17","","NaN","","","","","","","","","","","","","",""
"","response","","html-keyboard-response","119","245817","0.0-1.0-158.0-0.0","0","0","65911","","564","","","68","17","","","1","17","training","adjacent","CB","3","2","P.jpg","O.jpg","0","0","1","",""
"","feedback","","html-keyboard-response","120","246824","0.0-1.0-159.0-0.0","0","0","65911","","null","","","null","17","","","","","","","","","","","","","","","",""
"","ITI","","html-keyboard-response","121","247832","0.0-1.0-162.0","0","0","65911","","null","","","null","17","","","","","","","","","","","","","","","NaN",""
"","S1","","html-keyboard-response","122","248088","0.0-1.0-164.0","0","0","65911","","null","","","null","18","","","","","","","","","","","","","","","",""
"","ISI","","html-keyboard-response","123","249095","0.0-1.0-165.0","0","0","65911","","null","","","null","18","NaN","","","","","","","","","","","","","","",""
"","S2","","html-keyboard-response","124","249353","0.0-1.0-166.0","0","0","65911","","null","","","null","18","","NaN","","","","","","","","","","","","","",""
"","response","","html-keyboard-response","125","250112","0.0-1.0-167.0-0.0","0","0","65911","","752","","","75","18","","","1","18","training","adjacent","EF","5","6","M.jpg","L.jpg","1","1","1","",""
"","feedback","","html-keyboard-response","126","251120","0.0-1.0-168.0-0.0","0","0","65911","","null","","","null","18","","","","","","","","","","","","","","","",""
"","ITI","","html-keyboard-response","127","252127","0.0-1.0-171.0","0","0","65911","","null","","","null","18","","","","","","","","","","","","","","","NaN",""
"","S1","","html-keyboard-response","128","252385","0.0-1.0-173.0","0","0","65911","","null","","","null","19","","","","","","","","","","","","","","","",""
"","ISI","","html-keyboard-response","129","253390","0.0-1.0-174.0","0","0","65911","","null","","","null","19","NaN","","","","","","","","","","","","","","",""
"","S2","","html-keyboard-response","130","253647","0.0-1.0-175.0","0","0","65911","","null","","","null","19","","NaN","","","","","","","","","","","","","",""
"","response","","html-keyboard-response","131","254549","0.0-1.0-176.0-0.0","0","0","65911","","896","","","75","19","","","1","19","training","adjacent","EF","5","6","M.jpg","L.jpg","1","1","1","",""
"","feedback","","html-keyboard-response","132","255557","0.0-1.0-177.0-0.0","0","0","65911","","null","","","null","19","","","","","","","","","","","","","","","",""
"","ITI","","html-keyboard-response","133","256564","0.0-1.0-180.0","0","0","65911","","null","","","null","19","","","","","","","","","","","","","","","NaN",""
"","S1","","html-keyboard-response","134","256821","0.0-1.0-182.0","0","0","65911","","null","","","null","20","","","","","","","","","","","","","","","",""
"","ISI","","html-keyboard-response","135","257829","0.0-1.0-183.0","0","0","65911","","null","","","null","20","NaN","","","","","","","","","","","","","","",""
"","S2","","html-keyboard-response","136","258085","0.0-1.0-184.0","0","0","65911","","null","","","null","20","","NaN","","","","","","","","","","","","","",""
"","response","","html-keyboard-response","137","258668","0.0-1.0-185.0-0.0","0","0","65911","","577","","","68","20","","","1","20","training","adjacent","AB","1","2","N.jpg","O.jpg","0","1","0","",""
"","feedback","","html-keyboard-response","138","259676","0.0-1.0-186.0-0.0","0","0","65911","","null","","","null","20","","","","","","","","","","","","","","","",""
"","time_out","","html-keyboard-response","139","261682","0.0-1.0-188.0-0.0","0","0","65911","","null","","","null","20","","","","","","","","","","","","","","","",""
"","ITI","","html-keyboard-response","140","262689","0.0-1.0-189.0","0","0","65911","","null","","","null","20","","","","","","","","","","","","","","","NaN",""
"","S1","","html-keyboard-response","141","262946","0.0-1.0-191.0","0","0","65911","","null","","","null","21","","","","","","","","","","","","","","","",""
"","ISI","","html-keyboard-response","142","263953","0.0-1.0-192.0","0","0","65911","","null","","","null","21","NaN","","","","","","","","","","","","","","",""
"","S2","","html-keyboard-response","143","264210","0.0-1.0-193.0","0","0","65911","","null","","","null","21","","NaN","","","","","","","","","","","","","",""
"","response","","html-keyboard-response","144","264903","0.0-1.0-194.0-0.0","0","0","65911","","688","","","68","21","","","1","21","training","adjacent","ED","5","4","M.jpg","Q.jpg","0","0","1","",""
"","feedback","","html-keyboard-response","145","265911","0.0-1.0-195.0-0.0","0","0","65911","","null","","","null","21","","","","","","","","","","","","","","","",""
"","ITI","","html-keyboard-response","146","266918","0.0-1.0-198.0","0","0","65911","","null","","","null","21","","","","","","","","","","","","","","","NaN",""
"","S1","","html-keyboard-response","147","267175","0.0-1.0-200.0","0","0","65911","","null","","","null","22","","","","","","","","","","","","","","","",""
"","ISI","","html-keyboard-response","148","268181","0.0-1.0-201.0","0","0","65911","","null","","","null","22","NaN","","","","","","","","","","","","","","",""
"","S2","","html-keyboard-response","149","268439","0.0-1.0-202.0","0","0","65911","","null","","","null","22","","NaN","","","","","","","","","","","","","",""
"","response","","html-keyboard-response","150","269274","0.0-1.0-203.0-0.0","0","0","65911","","828","","","68","22","","","1","22","training","adjacent","ED","5","4","M.jpg","Q.jpg","0","0","1","",""
"","feedback","","html-keyboard-response","151","270280","0.0-1.0-204.0-0.0","0","0","65911","","null","","","null","22","","","","","","","","","","","","","","","",""
"","ITI","","html-keyboard-response","152","271285","0.0-1.0-207.0","0","0","65911","","null","","","null","22","","","","","","","","","","","","","","","NaN",""
"","S1","","html-keyboard-response","153","271543","0.0-1.0-209.0","0","0","65911","","null","","","null","23","","","","","","","","","","","","","","","",""
"","ISI","","html-keyboard-response","154","272549","0.0-1.0-210.0","0","0","65911","","null","","","null","23","NaN","","","","","","","","","","","","","","",""
"","S2","","html-keyboard-response","155","272807","0.0-1.0-211.0","0","0","65911","","null","","","null","23","","NaN","","","","","","","","","","","","","",""
"","response","","html-keyboard-response","156","273590","0.0-1.0-212.0-0.0","0","0","65911","","777","","","75","23","","","1","23","training","adjacent","FG","6","7","L.jpg","R.jpg","1","1","1","",""
"","feedback","","html-keyboard-response","157","274597","0.0-1.0-213.0-0.0","0","0","65911","","null","","","null","23","","","","","","","","","","","","","","","",""
"","ITI","","html-keyboard-response","158","275602","0.0-1.0-216.0","0","0","65911","","null","","","null","23","","","","","","","","","","","","","","","NaN",""
"","S1","","html-keyboard-response","159","275859","0.0-1.0-218.0","0","0","65911","","null","","","null","24","","","","","","","","","","","","","","","",""
"","ISI","","html-keyboard-response","160","276866","0.0-1.0-219.0","0","0","65911","","null","","","null","24","NaN","","","","","","","","","","","","","","",""
"","S2","","html-keyboard-response","161","277125","0.0-1.0-220.0","0","0","65911","","null","","","null","24","","NaN","","","","","","","","","","","","","",""
"","response","","html-keyboard-response","162","277625","0.0-1.0-221.0-0.0","0","0","65911","","493","","","68","24","","","1","24","training","adjacent","DE","4","5","Q.jpg","M.jpg","0","1","0","",""
"","feedback","","html-keyboard-response","163","278633","0.0-1.0-222.0-0.0","0","0","65911","","null","","","null","24","","","","","","","","","","","","","","","",""
"","time_out","","html-keyboard-response","164","280638","0.0-1.0-224.0-0.0","0","0","65911","","null","","","null","24","","","","","","","","","","","","","","","",""
"","ITI","","html-keyboard-response","165","281645","0.0-1.0-225.0","0","0","65911","","null","","","null","24","","","","","","","","","","","","","","","NaN",""
"","S1","","html-keyboard-response","166","281901","0.0-1.0-227.0","0","0","65911","","null","","","null","25","","","","","","","","","","","","","","","",""
"","ISI","","html-keyboard-response","167","282907","0.0-1.0-228.0","0","0","65911","","null","","","null","25","NaN","","","","","","","","","","","","","","",""
"","S2","","html-keyboard-response","168","283165","0.0-1.0-229.0","0","0","65911","","null","","","null","25","","NaN","","","","","","","","","","","","","",""
"","response","","html-keyboard-response","169","283567","0.0-1.0-230.0-0.0","0","0","65911","","397","","","75","25","","","1","25","training","adjacent","BC","2","3","O.jpg","P.jpg","1","1","1","",""
"","feedback","","html-keyboard-response","170","284575","0.0-1.0-231.0-0.0","0","0","65911","","null","","","null","25","","","","","","","","","","","","","","","",""
"","ITI","","html-keyboard-response","171","285583","0.0-1.0-234.0","0","0","65911","","null","","","null","25","","","","","","","","","","","","","","","NaN",""
"","S1","","html-keyboard-response","172","285839","0.0-1.0-236.0","0","0","65911","","null","","","null","26","","","","","","","","","","","","","","","",""
"","ISI","","html-keyboard-response","173","286846","0.0-1.0-237.0","0","0","65911","","null","","","null","26","NaN","","","","","","","","","","","","","","",""
"","S2","","html-keyboard-response","174","287104","0.0-1.0-238.0","0","0","65911","","null","","","null","26","","NaN","","","","","","","","","","","","","",""
"","response","","html-keyboard-response","175","287506","0.0-1.0-239.0-0.0","0","0","65911","","395","","","75","26","","","1","26","training","adjacent","DC","4","3","Q.jpg","P.jpg","1","0","0","",""
"","feedback","","html-keyboard-response","176","288515","0.0-1.0-240.0-0.0","0","0","65911","","null","","","null","26","","","","","","","","","","","","","","","",""
"","time_out","","html-keyboard-response","177","290524","0.0-1.0-242.0-0.0","0","0","65911","","null","","","null","26","","","","","","","","","","","","","","","",""
"","ITI","","html-keyboard-response","178","291530","0.0-1.0-243.0","0","0","65911","","null","","","null","26","","","","","","","","","","","","","","","NaN",""
"","S1","","html-keyboard-response","179","291787","0.0-1.0-245.0","0","0","65911","","null","","","null","27","","","","","","","","","","","","","","","",""
"","ISI","","html-keyboard-response","180","292794","0.0-1.0-246.0","0","0","65911","","null","","","null","27","NaN","","","","","","","","","","","","","","",""
"","S2","","html-keyboard-response","181","292997","0.0-1.0-247.0","0","0","65911","","195","","","68","27","","d","1","27","training","adjacent","AB","1","2","N.jpg","O.jpg","0","1","0","",""
"","feedback","","html-keyboard-response","182","294005","0.0-1.0-249.0-0.0","0","0","65911","","null","","","null","27","","","","","","","","","","","","","","","",""
"","time_out","","html-keyboard-response","183","296012","0.0-1.0-251.0-0.0","0","0","65911","","null","","","null","27","","","","","","","","","","","","","","","",""
"","ITI","","html-keyboard-response","184","297019","0.0-1.0-252.0","0","0","65911","","null","","","null","27","","","","","","","","","","","","","","","NaN",""
"","S1","","html-keyboard-response","185","297277","0.0-1.0-254.0","0","0","65911","","null","","","null","28","","","","","","","","","","","","","","","",""
"","ISI","","html-keyboard-response","186","298284","0.0-1.0-255.0","0","0","65911","","null","","","null","28","NaN","","","","","","","","","","","","","","",""
"","S2","","html-keyboard-response","187","298542","0.0-1.0-256.0","0","0","65911","","null","","","null","28","","NaN","","","","","","","","","","","","","",""
"","response","","html-keyboard-response","188","298894","0.0-1.0-257.0-0.0","0","0","65911","","345","","","68","28","","","1","28","training","adjacent","CB","3","2","P.jpg","O.jpg","0","0","1","",""
"","feedback","","html-keyboard-response","189","299916","0.0-1.0-258.0-0.0","0","0","65911","","null","","","null","28","","","","","","","","","","","","","","","",""
"","ITI","","html-keyboard-response","190","300923","0.0-1.0-261.0","0","0","65911","","null","","","null","28","","","","","","","","","","","","","","","NaN",""
"","S1","","html-keyboard-response","191","301180","0.0-1.0-263.0","0","0","65911","","null","","","null","29","","","","","","","","","","","","","","","",""
"","ISI","","html-keyboard-response","192","302186","0.0-1.0-264.0","0","0","65911","","null","","","null","29","NaN","","","","","","","","","","","","","","",""
"","S2","","html-keyboard-response","193","302443","0.0-1.0-265.0","0","0","65911","","null","","","null","29","","NaN","","","","","","","","","","","","","",""
"","response","","html-keyboard-response","194","302811","0.0-1.0-266.0-0.0","0","0","65911","","362","","","75","29","","","1","29","training","adjacent","BA","2","1","O.jpg","N.jpg","1","0","0","",""
"","feedback","","html-keyboard-response","195","303819","0.0-1.0-267.0-0.0","0","0","65911","","null","","","null","29","","","","","","","","","","","","","","","",""
"","time_out","","html-keyboard-response","196","305824","0.0-1.0-269.0-0.0","0","0","65911","","null","","","null","29","","","","","","","","","","","","","","","",""
"","ITI","","html-keyboard-response","197","306830","0.0-1.0-270.0","0","0","65911","","null","","","null","29","","","","","","","","","","","","","","","NaN",""
"","S1","","html-keyboard-response","198","307088","0.0-1.0-272.0","0","0","65911","","null","","","null","30","","","","","","","","","","","","","","","",""
"","ISI","","html-keyboard-response","199","308093","0.0-1.0-273.0","0","0","65911","","null","","","null","30","NaN","","","","","","","","","","","","","","",""
"","S2","","html-keyboard-response","200","308350","0.0-1.0-274.0","0","0","65911","","null","","","null","30","","NaN","","","","","","","","","","","","","",""
"","response","","html-keyboard-response","201","308880","0.0-1.0-275.0-0.0","0","0","65911","","525","","","68","30","","","1","30","training","adjacent","BA","2","1","O.jpg","N.jpg","0","0","1","",""
"","feedback","","html-keyboard-response","202","309886","0.0-1.0-276.0-0.0","0","0","65911","","null","","","null","30","","","","","","","","","","","","","","","",""
"","ITI","","html-keyboard-response","203","310891","0.0-1.0-279.0","0","0","65911","","null","","","null","30","","","","","","","","","","","","","","","NaN",""
"","S1","","html-keyboard-response","204","311148","0.0-1.0-281.0","0","0","65911","","null","","","null","31","","","","","","","","","","","","","","","",""
"","ISI","","html-keyboard-response","205","312155","0.0-1.0-282.0","0","0","65911","","null","","","null","31","NaN","","","","","","","","","","","","","","",""
"","S2","","html-keyboard-response","206","312414","0.0-1.0-283.0","0","0","65911","","null","","","null","31","","NaN","","","","","","","","","","","","","",""
"","response","","html-keyboard-response","207","313223","0.0-1.0-284.0-0.0","0","0","65911","","805","","","75","31","","","1","31","training","adjacent","GF","7","6","R.jpg","L.jpg","1","0","0","",""
"","feedback","","html-keyboard-response","208","314229","0.0-1.0-285.0-0.0","0","0","65911","","null","","","null","31","","","","","","","","","","","","","","","",""
"","time_out","","html-keyboard-response","209","316236","0.0-1.0-287.0-0.0","0","0","65911","","null","","","null","31","","","","","","","","","","","","","","","",""
"","ITI","","html-keyboard-response","210","317243","0.0-1.0-288.0","0","0","65911","","null","","","null","31","","","","","","","","","","","","","","","NaN",""
"","S1","","html-keyboard-response","211","317500","0.0-1.0-290.0","0","0","65911","","null","","","null","32","","","","","","","","","","","","","","","",""
"","ISI","","html-keyboard-response","212","318506","0.0-1.0-291.0","0","0","65911","","null","","","null","32","NaN","","","","","","","","","","","","","","",""
"","S2","","html-keyboard-response","213","318763","0.0-1.0-292.0","0","0","65911","","null","","","null","32","","NaN","","","","","","","","","","","","","",""
"","response","","html-keyboard-response","214","320520","0.0-1.0-293.0-0.0","0","0","65911","","null","","","null","32","","","1","32","training","adjacent","CB","3","2","P.jpg","O.jpg","NaN","0","0","",""
"","too_slow_prompt","","html-keyboard-response","215","321530","0.0-1.0-295.0-0.0","1","0","65911","","null","","","null","","","","","","","","","","","","","","","","",""
"","time_out","","html-keyboard-response","216","323538","0.0-1.0-296.0-0.0","0","0","65911","","null","","","null","32","","","","","","","","","","","","","","","",""
"","ITI","","html-keyboard-response","217","324546","0.0-1.0-297.0","0","0","65911","","null","","","null","32","","","","","","","","","","","","","","","NaN",""
"","S1","","html-keyboard-response","218","324804","0.0-1.0-299.0","0","0","65911","","null","","","null","33","","","","","","","","","","","","","","","",""
"","ISI","","html-keyboard-response","219","325811","0.0-1.0-300.0","0","0","65911","","null","","","null","33","NaN","","","","","","","","","","","","","","",""
"","S2","","html-keyboard-response","220","326069","0.0-1.0-301.0","0","0","65911","","null","","","null","33","","NaN","","","","","","","","","","","","","",""
"","response","","html-keyboard-response","221","326576","0.0-1.0-302.0-0.0","0","0","65911","","501","","","75","33","","","1","33","training","adjacent","BA","2","1","O.jpg","N.jpg","1","0","0","",""
"","feedback","","html-keyboard-response","222","327583","0.0-1.0-303.0-0.0","0","0","65911","","null","","","null","33","","","","","","","","","","","","","","","",""
"","time_out","","html-keyboard-response","223","329591","0.0-1.0-305.0-0.0","0","0","65911","","null","","","null","33","","","","","","","","","","","","","","","",""
"","ITI","","html-keyboard-response","224","330597","0.0-1.0-306.0","0","0","65911","","null","","","null","33","","","","","","","","","","","","","","","NaN",""
"","S1","","html-keyboard-response","225","330854","0.0-1.0-308.0","0","0","65911","","null","","","null","34","","","","","","","","","","","","","","","",""
"","ISI","","html-keyboard-response","226","331862","0.0-1.0-309.0","0","0","65911","","null","","","null","34","NaN","","","","","","","","","","","","","","",""
"","S2","","html-keyboard-response","227","332119","0.0-1.0-310.0","0","0","65911","","null","","","null","34","","NaN","","","","","","","","","","","","","",""
"","response","","html-keyboard-response","228","332976","0.0-1.0-311.0-0.0","0","0","65911","","850","","","68","34","","","1","34","training","adjacent","CD","3","4","P.jpg","Q.jpg","0","1","0","",""
"","feedback","","html-keyboard-response","229","333990","0.0-1.0-312.0-0.0","0","0","65911","","null","","","null","34","","","","","","","","","","","","","","","",""
"","time_out","","html-keyboard-response","230","335998","0.0-1.0-314.0-0.0","0","0","65911","","null","","","null","34","","","","","","","","","","","","","","","",""
"","ITI","","html-keyboard-response","231","337005","0.0-1.0-315.0","0","0","65911","","null","","","null","34","","","","","","","","","","","","","","","NaN",""
"","S1","","html-keyboard-response","232","337262","0.0-1.0-317.0","0","0","65911","","null","","","null","35","","","","","","","","","","","","","","","",""
"","ISI","","html-keyboard-response","233","338268","0.0-1.0-318.0","0","0","65911","","null","","","null","35","NaN","","","","","","","","","","","","","","",""
"","S2","","html-keyboard-response","234","338527","0.0-1.0-319.0","0","0","65911","","null","","","null","35","","NaN","","","","","","","","","","","","","",""
"","response","","html-keyboard-response","235","339078","0.0-1.0-320.0-0.0","0","0","65911","","545","","","75","35","","","1","35","training","adjacent","FG","6","7","L.jpg","R.jpg","1","1","1","",""
"","feedback","","html-keyboard-response","236","340087","0.0-1.0-321.0-0.0","0","0","65911","","null","","","null","35","","","","","","","","","","","","","","","",""
"","ITI","","html-keyboard-response","237","341095","0.0-1.0-324.0","0","0","65911","","null","","","null","35","","","","","","","","","","","","","","","NaN",""
"","S1","","html-keyboard-response","238","341353","0.0-1.0-326.0","0","0","65911","","null","","","null","36","","","","","","","","","","","","","","","",""
"","ISI","","html-keyboard-response","239","342360","0.0-1.0-327.0","0","0","65911","","null","","","null","36","NaN","","","","","","","","","","","","","","",""
"","S2","","html-keyboard-response","240","342618","0.0-1.0-328.0","0","0","65911","","null","","","null","36","","NaN","","","","","","","","","","","","","",""
"","response","","html-keyboard-response","241","343427","0.0-1.0-329.0-0.0","0","0","65911","","804","","","75","36","","","1","36","training","adjacent","CD","3","4","P.jpg","Q.jpg","1","1","1","",""
"","feedback","","html-keyboard-response","242","344434","0.0-1.0-330.0-0.0","0","0","65911","","null","","","null","36","","","","","","","","","","","","","","","",""
"","ITI","","html-keyboard-response","243","345441","0.0-1.0-333.0","0","0","65911","","null","","","null","36","","","","","","","","","","","","","","","NaN",""
"","S1","","html-keyboard-response","244","345698","0.0-1.0-335.0","0","0","65911","","null","","","null","37","","","","","","","","","","","","","","","",""
"","ISI","","html-keyboard-response","245","346704","0.0-1.0-336.0","0","0","65911","","null","","","null","37","NaN","","","","","","","","","","","","","","",""
"","S2","","html-keyboard-response","246","346962","0.0-1.0-337.0","0","0","65911","","null","","","null","37","","NaN","","","","","","","","","","","","","",""
"","response","","html-keyboard-response","247","347501","0.0-1.0-338.0-0.0","0","0","65911","","532","","","75","37","","","1","37","training","adjacent","FG","6","7","L.jpg","R.jpg","1","1","1","",""
"","feedback","","html-keyboard-response","248","348509","0.0-1.0-339.0-0.0","0","0","65911","","null","","","null","37","","","","","","","","","","","","","","","",""
"","ITI","","html-keyboard-response","249","349515","0.0-1.0-342.0","0","0","65911","","null","","","null","37","","","","","","","","","","","","","","","NaN",""
"","S1","","html-keyboard-response","250","349771","0.0-1.0-344.0","0","0","65911","","null","","","null","38","","","","","","","","","","","","","","","",""
"","ISI","","html-keyboard-response","251","350777","0.0-1.0-345.0","0","0","65911","","null","","","null","38","NaN","","","","","","","","","","","","","","",""
"","S2","","html-keyboard-response","252","351034","0.0-1.0-346.0","0","0","65911","","null","","","null","38","","NaN","","","","","","","","","","","","","",""
"","response","","html-keyboard-response","253","351729","0.0-1.0-347.0-0.0","0","0","65911","","688","","","68","38","","","1","38","training","adjacent","DC","4","3","Q.jpg","P.jpg","0","0","1","",""
"","feedback","","html-keyboard-response","254","352736","0.0-1.0-348.0-0.0","0","0","65911","","null","","","null","38","","","","","","","","","","","","","","","",""
"","ITI","","html-keyboard-response","255","353743","0.0-1.0-351.0","0","0","65911","","null","","","null","38","","","","","","","","","","","","","","","NaN",""
"","S1","","html-keyboard-response","256","354000","0.0-1.0-353.0","0","0","65911","","null","","","null","39","","","","","","","","","","","","","","","",""
"","ISI","","html-keyboard-response","257","355008","0.0-1.0-354.0","0","0","65911","","null","","","null","39","NaN","","","","","","","","","","","","","","",""
"","S2","","html-keyboard-response","258","355152","0.0-1.0-355.0","0","0","65911","","137","","","75","39","","k","1","39","training","adjacent","BC","2","3","O.jpg","P.jpg","1","1","1","",""
"","feedback","","html-keyboard-response","259","356160","0.0-1.0-357.0-0.0","0","0","65911","","null","","","null","39","","","","","","","","","","","","","","","",""
"","ITI","","html-keyboard-response","260","357167","0.0-1.0-360.0","0","0","65911","","null","","","null","39","","","","","","","","","","","","","","","NaN",""
"","S1","","html-keyboard-response","261","357427","0.0-1.0-362.0","0","0","65911","","null","","","null","40","","","","","","","","","","","","","","","",""
"","ISI","","html-keyboard-response","262","358434","0.0-1.0-363.0","0","0","65911","","null","","","null","40","NaN","","","","","","","","","","","","","","",""
"","S2","","html-keyboard-response","263","358691","0.0-1.0-364.0","0","0","65911","","null","","","null","40","","NaN","","","","","","","","","","","","","",""
"","response","","html-keyboard-response","264","359363","0.0-1.0-365.0-0.0","0","0","65911","","665","","","68","40","","","1","40","training","adjacent","CD","3","4","P.jpg","Q.jpg","0","1","0","",""
"","feedback","","html-keyboard-response","265","360370","0.0-1.0-366.0-0.0","0","0","65911","","null","","","null","40","","","","","","","","","","","","","","","",""
"","time_out","","html-keyboard-response","266","362377","0.0-1.0-368.0-0.0","0","0","65911","","null","","","null","40","","","","","","","","","","","","","","","",""
"","ITI","","html-keyboard-response","267","363384","0.0-1.0-369.0","0","0","65911","","null","","","null","40","","","","","","","","","","","","","","","NaN",""
"","S1","","html-keyboard-response","268","363641","0.0-1.0-371.0","0","0","65911","","null","","","null","41","","","","","","","","","","","","","","","",""
"","ISI","","html-keyboard-response","269","364647","0.0-1.0-372.0","0","0","65911","","null","","","null","41","NaN","","","","","","","","","","","","","","",""
"","S2","","html-keyboard-response","270","364905","0.0-1.0-373.0","0","0","65911","","null","","","null","41","","NaN","","","","","","","","","","","","","",""
"","response","","html-keyboard-response","271","365550","0.0-1.0-374.0-0.0","0","0","65911","","638","","","68","41","","","1","41","training","adjacent","DC","4","3","Q.jpg","P.jpg","0","0","1","",""
"","feedback","","html-keyboard-response","272","366557","0.0-1.0-375.0-0.0","0","0","65911","","null","","","null","41","","","","","","","","","","","","","","","",""
"","ITI","","html-keyboard-response","273","367564","0.0-1.0-378.0","0","0","65911","","null","","","null","41","","","","","","","","","","","","","","","NaN",""
"","S1","","html-keyboard-response","274","367823","0.0-1.0-380.0","0","0","65911","","null","","","null","42","","","","","","","","","","","","","","","",""
"","ISI","","html-keyboard-response","275","368830","0.0-1.0-381.0","0","0","65911","","954","","","68","42","d","","","","","","","","","","","","","","",""
"","S2","","html-keyboard-response","276","369088","0.0-1.0-382.0","0","0","65911","","null","","","null","42","","NaN","","","","","","","","","","","","","",""
"","response","","html-keyboard-response","277","370782","0.0-1.0-383.0-0.0","0","0","65911","","1688","","","68","42","","","1","42","training","adjacent","BA","2","1","O.jpg","N.jpg","0","0","1","",""
"","feedback","","html-keyboard-response","278","371790","0.0-1.0-384.0-0.0","0","0","65911","","null","","","null","42","","","","","","","","","","","","","","","",""
"","ITI","","html-keyboard-response","279","372796","0.0-1.0-387.0","0","0","65911","","null","","","null","42","","","","","","","","","","","","","","","NaN",""
"","S1","","html-keyboard-response","280","373053","0.0-1.0-389.0","0","0","65911","","null","","","null","43","","","","","","","","","","","","","","","",""
"","ISI","","html-keyboard-response","281","374061","0.0-1.0-390.0","0","0","65911","","null","","","null","43","NaN","","","","","","","","","","","","","","",""
"","S2","","html-keyboard-response","282","374320","0.0-1.0-391.0","0","0","65911","","null","","","null","43","","NaN","","","","","","","","","","","","","",""
"","response","","html-keyboard-response","283","375457","0.0-1.0-392.0-0.0","0","0","65911","","1132","","","75","43","","","1","43","training","adjacent","CD","3","4","P.jpg","Q.jpg","1","1","1","",""
"","feedback","","html-keyboard-response","284","376464","0.0-1.0-393.0-0.0","0","0","65911","","null","","","null","43","","","","","","","","","","","","","","","",""
"","ITI","","html-keyboard-response","285","377470","0.0-1.0-396.0","0","0","65911","","null","","","null","43","","","","","","","","","","","","","","","NaN",""
"","S1","","html-keyboard-response","286","377727","0.0-1.0-398.0","0","0","65911","","null","","","null","44","","","","","","","","","","","","","","","",""
"","ISI","","html-keyboard-response","287","378733","0.0-1.0-399.0","0","0","65911","","null","","","null","44","NaN","","","","","","","","","","","","","","",""
"","S2","","html-keyboard-response","288","378990","0.0-1.0-400.0","0","0","65911","","null","","","null","44","","NaN","","","","","","","","","","","","","",""
"","response","","html-keyboard-response","289","379152","0.0-1.0-401.0-0.0","0","0","65911","","154","","","75","44","","","1","44","training","adjacent","DC","4","3","Q.jpg","P.jpg","1","0","0","",""
"","feedback","","html-keyboard-response","290","380159","0.0-1.0-402.0-0.0","0","0","65911","","null","","","null","44","","","","","","","","","","","","","","","",""
"","time_out","","html-keyboard-response","291","382166","0.0-1.0-404.0-0.0","0","0","65911","","null","","","null","44","","","","","","","","","","","","","","","",""
"","ITI","","html-keyboard-response","292","383174","0.0-1.0-405.0","0","0","65911","","765","","","68","44","","","","","","","","","","","","","","","d",""
"","S1","","html-keyboard-response","293","383431","0.0-1.0-407.0","0","0","65911","","null","","","null","45","","","","","","","","","","","","","","","",""
"","ISI","","html-keyboard-response","294","384438","0.0-1.0-408.0","0","0","65911","","null","","","null","45","NaN","","","","","","","","","","","","","","",""
"","S2","","html-keyboard-response","295","384695","0.0-1.0-409.0","0","0","65911","","null","","","null","45","","NaN","","","","","","","","","","","","","",""
"","response","","html-keyboard-response","296","384973","0.0-1.0-410.0-0.0","0","0","65911","","271","","","68","45","","","1","45","training","adjacent","EF","5","6","M.jpg","L.jpg","0","1","0","",""
"","feedback","","html-keyboard-response","297","385980","0.0-1.0-411.0-0.0","0","0","65911","","null","","","null","45","","","","","","","","","","","","","","","",""
"","time_out","","html-keyboard-response","298","387989","0.0-1.0-413.0-0.0","0","0","65911","","null","","","null","45","","","","","","","","","","","","","","","",""
"","ITI","","html-keyboard-response","299","388996","0.0-1.0-414.0","0","0","65911","","null","","","null","45","","","","","","","","","","","","","","","NaN",""
"","S1","","html-keyboard-response","300","389253","0.0-1.0-416.0","0","0","65911","","null","","","null","46","","","","","","","","","","","","","","","",""
"","ISI","","html-keyboard-response","301","390258","0.0-1.0-417.0","0","0","65911","","null","","","null","46","NaN","","","","","","","","","","","","","","",""
"","S2","","html-keyboard-response","302","390516","0.0-1.0-418.0","0","0","65911","","null","","","null","46","","NaN","","","","","","","","","","","","","",""
"","response","","html-keyboard-response","303","391078","0.0-1.0-419.0-0.0","0","0","65911","","556","","","75","46","","","1","46","training","adjacent","BC","2","3","O.jpg","P.jpg","1","1","1","",""
"","feedback","","html-keyboard-response","304","392087","0.0-1.0-420.0-0.0","0","0","65911","","null","","","null","46","","","","","","","","","","","","","","","",""
"","ITI","","html-keyboard-response","305","393094","0.0-1.0-423.0","0","0","65911","","null","","","null","46","","","","","","","","","","","","","","","NaN",""
"","S1","","html-keyboard-response","306","393352","0.0-1.0-425.0","0","0","65911","","null","","","null","47","","","","","","","","","","","","","","","",""
"","ISI","","html-keyboard-response","307","394358","0.0-1.0-426.0","0","0","65911","","null","","","null","47","NaN","","","","","","","","","","","","","","",""
"","S2","","html-keyboard-response","308","394447","0.0-1.0-427.0","0","0","65911","","82","","","75","47","","k","1","47","training","adjacent","FG","6","7","L.jpg","R.jpg","1","1","1","",""
"","feedback","","html-keyboard-response","309","395456","0.0-1.0-429.0-0.0","0","0","65911","","null","","","null","47","","","","","","","","","","","","","","","",""
"","ITI","","html-keyboard-response","310","396463","0.0-1.0-432.0","0","0","65911","","null","","","null","47","","","","","","","","","","","","","","","NaN",""
"","block_over","","html-keyboard-response","311","416341","0.0-1.0-433.0-0.0","0","0","65911","","19870","","","32","47","","","","","","","","","","","","","","","",""
"","S1","","html-keyboard-response","312","416598","0.0-1.0-434.0","0","0","65911","","null","","","null","48","","","","","","","","","","","","","","","",""
"","ISI","","html-keyboard-response","313","417604","0.0-1.0-435.0","0","0","65911","","null","","","null","48","NaN","","","","","","","","","","","","","","",""
"","S2","","html-keyboard-response","314","417862","0.0-1.0-436.0","0","0","65911","","null","","","null","48","","NaN","","","","","","","","","","","","","",""
"","response","","html-keyboard-response","315","418593","0.0-1.0-437.0-0.0","0","0","65911","","724","","","68","48","","","2","48","training","adjacent","GF","7","6","R.jpg","L.jpg","0","0","1","",""
"","feedback","","html-keyboard-response","316","419599","0.0-1.0-438.0-0.0","0","0","65911","","null","","","null","48","","","","","","","","","","","","","","","",""
"","ITI","","html-keyboard-response","317","420603","0.0-1.0-441.0","0","0","65911","","null","","","null","48","","","","","","","","","","","","","","","NaN",""
"","S1","","html-keyboard-response","318","420856","0.0-1.0-443.0","0","0","65911","","null","","","null","49","","","","","","","","","","","","","","","",""
"","ISI","","html-keyboard-response","319","421861","0.0-1.0-444.0","0","0","65911","","null","","","null","49","NaN","","","","","","","","","","","","","","",""
"","S2","","html-keyboard-response","320","422118","0.0-1.0-445.0","0","0","65911","","null","","","null","49","","NaN","","","","","","","","","","","","","",""
"","response","","html-keyboard-response","321","422594","0.0-1.0-446.0-0.0","0","0","65911","","469","","","75","49","","","2","49","training","adjacent","DE","4","5","Q.jpg","M.jpg","1","1","1","",""
"","feedback","","html-keyboard-response","322","423602","0.0-1.0-447.0-0.0","0","0","65911","","null","","","null","49","","","","","","","","","","","","","","","",""
"","ITI","","html-keyboard-response","323","424609","0.0-1.0-450.0","0","0","65911","","null","","","null","49","","","","","","","","","","","","","","","NaN",""
"","S1","","html-keyboard-response","324","424865","0.0-1.0-452.0","0","0","65911","","null","","","null","50","","","","","","","","","","","","","","","",""
"","ISI","","html-keyboard-response","325","425872","0.0-1.0-453.0","0","0","65911","","null","","","null","50","NaN","","","","","","","","","","","","","","",""
"","S2","","html-keyboard-response","326","426130","0.0-1.0-454.0","0","0","65911","","null","","","null","50","","NaN","","","","","","","","","","","","","",""
"","response","","html-keyboard-response","327","427223","0.0-1.0-455.0-0.0","0","0","65911","","1088","","","68","50","","","2","50","training","adjacent","CD","3","4","P.jpg","Q.jpg","0","1","0","",""
"","feedback","","html-keyboard-response","328","428231","0.0-1.0-456.0-0.0","0","0","65911","","null","","","null","50","","","","","","","","","","","","","","","",""
"","time_out","","html-keyboard-response","329","430237","0.0-1.0-458.0-0.0","0","0","65911","","null","","","null","50","","","","","","","","","","","","","","","",""
"","ITI","","html-keyboard-response","330","431244","0.0-1.0-459.0","0","0","65911","","null","","","null","50","","","","","","","","","","","","","","","NaN",""
"","S1","","html-keyboard-response","331","431502","0.0-1.0-461.0","0","0","65911","","null","","","null","51","","","","","","","","","","","","","","","",""
"","ISI","","html-keyboard-response","332","432509","0.0-1.0-462.0","0","0","65911","","null","","","null","51","NaN","","","","","","","","","","","","","","",""
"","S2","","html-keyboard-response","333","432767","0.0-1.0-463.0","0","0","65911","","null","","","null","51","","NaN","","","","","","","","","","","","","",""
"","response","","html-keyboard-response","334","433336","0.0-1.0-464.0-0.0","0","0","65911","","563","","","75","51","","","2","51","training","adjacent","AB","1","2","N.jpg","O.jpg","1","1","1","",""
"","feedback","","html-keyboard-response","335","434345","0.0-1.0-465.0-0.0","0","0","65911","","null","","","null","51","","","","","","","","","","","","","","","",""
"","ITI","","html-keyboard-response","336","435351","0.0-1.0-468.0","0","0","65911","","null","","","null","51","","","","","","","","","","","","","","","NaN",""
"","S1","","html-keyboard-response","337","435609","0.0-1.0-470.0","0","0","65911","","null","","","null","52","","","","","","","","","","","","","","","",""
"","ISI","","html-keyboard-response","338","436615","0.0-1.0-471.0","0","0","65911","","null","","","null","52","NaN","","","","","","","","","","","","","","",""
"","S2","","html-keyboard-response","339","436873","0.0-1.0-472.0","0","0","65911","","null","","","null","52","","NaN","","","","","","","","","","","","","",""
"","response","","html-keyboard-response","340","437808","0.0-1.0-473.0-0.0","0","0","65911","","930","","","68","52","","","2","52","training","adjacent","BA","2","1","O.jpg","N.jpg","0","0","1","",""
"","feedback","","html-keyboard-response","341","438814","0.0-1.0-474.0-0.0","0","0","65911","","null","","","null","52","","","","","","","","","","","","","","","",""
"","ITI","","html-keyboard-response","342","439822","0.0-1.0-477.0","0","0","65911","","null","","","null","52","","","","","","","","","","","","","","","NaN",""
"","S1","","html-keyboard-response","343","440080","0.0-1.0-479.0","0","0","65911","","null","","","null","53","","","","","","","","","","","","","","","",""
"","ISI","","html-keyboard-response","344","441087","0.0-1.0-480.0","0","0","65911","","null","","","null","53","NaN","","","","","","","","","","","","","","",""
"","S2","","html-keyboard-response","345","441345","0.0-1.0-481.0","0","0","65911","","null","","","null","53","","NaN","","","","","","","","","","","","","",""
"","response","","html-keyboard-response","346","442242","0.0-1.0-482.0-0.0","0","0","65911","","890","","","68","53","","","2","53","training","adjacent","FE","6","5","L.jpg","M.jpg","0","0","1","",""
"","feedback","","html-keyboard-response","347","443249","0.0-1.0-483.0-0.0","0","0","65911","","null","","","null","53","","","","","","","","","","","","","","","",""
"","ITI","","html-keyboard-response","348","444257","0.0-1.0-486.0","0","0","65911","","null","","","null","53","","","","","","","","","","","","","","","NaN",""
"","S1","","html-keyboard-response","349","444514","0.0-1.0-488.0","0","0","65911","","null","","","null","54","","","","","","","","","","","","","","","",""
"","ISI","","html-keyboard-response","350","445520","0.0-1.0-489.0","0","0","65911","","null","","","null","54","NaN","","","","","","","","","","","","","","",""
"","S2","","html-keyboard-response","351","445777","0.0-1.0-490.0","0","0","65911","","null","","","null","54","","NaN","","","","","","","","","","","","","",""
"","response","","html-keyboard-response","352","446507","0.0-1.0-491.0-0.0","0","0","65911","","726","","","75","54","","","2","54","training","adjacent","ED","5","4","M.jpg","Q.jpg","1","0","0","",""
"","feedback","","html-keyboard-response","353","447516","0.0-1.0-492.0-0.0","0","0","65911","","null","","","null","54","","","","","","","","","","","","","","","",""
"","time_out","","html-keyboard-response","354","449523","0.0-1.0-494.0-0.0","0","0","65911","","null","","","null","54","","","","","","","","","","","","","","","",""
"","ITI","","html-keyboard-response","355","450529","0.0-1.0-495.0","0","0","65911","","null","","","null","54","","","","","","","","","","","","","","","NaN",""
"","S1","","html-keyboard-response","356","450787","0.0-1.0-497.0","0","0","65911","","null","","","null","55","","","","","","","","","","","","","","","",""
"","ISI","","html-keyboard-response","357","451797","0.0-1.0-498.0","0","0","65911","","null","","","null","55","NaN","","","","","","","","","","","","","","",""
"","S2","","html-keyboard-response","358","452055","0.0-1.0-499.0","0","0","65911","","null","","","null","55","","NaN","","","","","","","","","","","","","",""
"","response","","html-keyboard-response","359","452672","0.0-1.0-500.0-0.0","0","0","65911","","610","","","75","55","","","2","55","training","adjacent","DC","4","3","Q.jpg","P.jpg","1","0","0","",""
"","feedback","","html-keyboard-response","360","453679","0.0-1.0-501.0-0.0","0","0","65911","","null","","","null","55","","","","","","","","","","","","","","","",""
"","time_out","","html-keyboard-response","361","455687","0.0-1.0-503.0-0.0","0","0","65911","","null","","","null","55","","","","","","","","","","","","","","","",""
"","ITI","","html-keyboard-response","362","456694","0.0-1.0-504.0","0","0","65911","","null","","","null","55","","","","","","","","","","","","","","","NaN",""
"","S1","","html-keyboard-response","363","456953","0.0-1.0-506.0","0","0","65911","","null","","","null","56","","","","","","","","","","","","","","","",""
"","ISI","","html-keyboard-response","364","457958","0.0-1.0-507.0","0","0","65911","","389","","","68","56","d","","","","","","","","","","","","","","",""
"","S2","","html-keyboard-response","365","458217","0.0-1.0-508.0","0","0","65911","","null","","","null","56","","NaN","","","","","","","","","","","","","",""
"","response","","html-keyboard-response","366","458884","0.0-1.0-509.0-0.0","0","0","65911","","661","","","68","56","","","2","56","training","adjacent","EF","5","6","M.jpg","L.jpg","0","1","0","",""
"","feedback","","html-keyboard-response","367","459895","0.0-1.0-510.0-0.0","0","0","65911","","null","","","null","56","","","","","","","","","","","","","","","",""
"","time_out","","html-keyboard-response","368","461900","0.0-1.0-512.0-0.0","0","0","65911","","null","","","null","56","","","","","","","","","","","","","","","",""
"","ITI","","html-keyboard-response","369","462921","0.0-1.0-513.0","0","0","65911","","null","","","null","56","","","","","","","","","","","","","","","NaN",""
"","S1","","html-keyboard-response","370","463178","0.0-1.0-515.0","0","0","65911","","null","","","null","57","","","","","","","","","","","","","","","",""
"","ISI","","html-keyboard-response","371","464185","0.0-1.0-516.0","0","0","65911","","null","","","null","57","NaN","","","","","","","","","","","","","","",""
"","S2","","html-keyboard-response","372","464442","0.0-1.0-517.0","0","0","65911","","null","","","null","57","","NaN","","","","","","","","","","","","","",""
"","response","","html-keyboard-response","373","464539","0.0-1.0-518.0-0.0","0","0","65911","","91","","","68","57","","","2","57","training","adjacent","CB","3","2","P.jpg","O.jpg","0","0","1","",""
"","feedback","","html-keyboard-response","374","465548","0.0-1.0-519.0-0.0","0","0","65911","","null","","","null","57","","","","","","","","","","","","","","","",""
"","ITI","","html-keyboard-response","375","466556","0.0-1.0-522.0","0","0","65911","","null","","","null","57","","","","","","","","","","","","","","","NaN",""
"","S1","","html-keyboard-response","376","466812","0.0-1.0-524.0","0","0","65911","","null","","","null","58","","","","","","","","","","","","","","","",""
"","ISI","","html-keyboard-response","377","467818","0.0-1.0-525.0","0","0","65911","","null","","","null","58","NaN","","","","","","","","","","","","","","",""
"","S2","","html-keyboard-response","378","468074","0.0-1.0-526.0","0","0","65911","","null","","","null","58","","NaN","","","","","","","","","","","","","",""
"","response","","html-keyboard-response","379","469012","0.0-1.0-527.0-0.0","0","0","65911","","931","","","68","58","","","2","58","training","adjacent","EF","5","6","M.jpg","L.jpg","0","1","0","",""
"","feedback","","html-keyboard-response","380","470018","0.0-1.0-528.0-0.0","0","0","65911","","null","","","null","58","","","","","","","","","","","","","","","",""
"","time_out","","html-keyboard-response","381","472023","0.0-1.0-530.0-0.0","0","0","65911","","null","","","null","58","","","","","","","","","","","","","","","",""
"","ITI","","html-keyboard-response","382","473030","0.0-1.0-531.0","0","0","65911","","null","","","null","58","","","","","","","","","","","","","","","NaN",""
"","S1","","html-keyboard-response","383","473287","0.0-1.0-533.0","0","0","65911","","null","","","null","59","","","","","","","","","","","","","","","",""
"","ISI","","html-keyboard-response","384","474293","0.0-1.0-534.0","0","0","65911","","null","","","null","59","NaN","","","","","","","","","","","","","","",""
"","S2","","html-keyboard-response","385","474551","0.0-1.0-535.0","0","0","65911","","null","","","null","59","","NaN","","","","","","","","","","","","","",""
"","response","","html-keyboard-response","386","475204","0.0-1.0-536.0-0.0","0","0","65911","","646","","","68","59","","","2","59","training","adjacent","FE","6","5","L.jpg","M.jpg","0","0","1","",""
"","feedback","","html-keyboard-response","387","476211","0.0-1.0-537.0-0.0","0","0","65911","","null","","","null","59","","","","","","","","","","","","","","","",""
"","ITI","","html-keyboard-response","388","477218","0.0-1.0-540.0","0","0","65911","","null","","","null","59","","","","","","","","","","","","","","","NaN",""
"","S1","","html-keyboard-response","389","477476","0.0-1.0-542.0","0","0","65911","","null","","","null","60","","","","","","","","","","","","","","","",""
"","ISI","","html-keyboard-response","390","478484","0.0-1.0-543.0","0","0","65911","","null","","","null","60","NaN","","","","","","","","","","","","","","",""
"","S2","","html-keyboard-response","391","478741","0.0-1.0-544.0","0","0","65911","","null","","","null","60","","NaN","","","","","","","","","","","","","",""
"","response","","html-keyboard-response","392","479862","0.0-1.0-545.0-0.0","0","0","65911","","1114","","","75","60","","","2","60","training","adjacent","AB","1","2","N.jpg","O.jpg","1","1","1","",""
"","feedback","","html-keyboard-response","393","480870","0.0-1.0-546.0-0.0","0","0","65911","","null","","","null","60","","","","","","","","","","","","","","","",""
"","ITI","","html-keyboard-response","394","481878","0.0-1.0-549.0","0","0","65911","","null","","","null","60","","","","","","","","","","","","","","","NaN",""
"","S1","","html-keyboard-response","395","482135","0.0-1.0-551.0","0","0","65911","","null","","","null","61","","","","","","","","","","","","","","","",""
"","ISI","","html-keyboard-response","396","483141","0.0-1.0-552.0","0","0","65911","","null","","","null","61","NaN","","","","","","","","","","","","","","",""
"","S2","","html-keyboard-response","397","483399","0.0-1.0-553.0","0","0","65911","","null","","","null","61","","NaN","","","","","","","","","","","","","",""
"","response","","html-keyboard-response","398","484113","0.0-1.0-554.0-0.0","0","0","65911","","709","","","75","61","","","2","61","training","adjacent","ED","5","4","M.jpg","Q.jpg","1","0","0","",""
"","feedback","","html-keyboard-response","399","485119","0.0-1.0-555.0-0.0","0","0","65911","","null","","","null","61","","","","","","","","","","","","","","","",""
"","time_out","","html-keyboard-response","400","487127","0.0-1.0-557.0-0.0","0","0","65911","","null","","","null","61","","","","","","","","","","","","","","","",""
"","ITI","","html-keyboard-response","401","488134","0.0-1.0-558.0","0","0","65911","","null","","","null","61","","","","","","","","","","","","","","","NaN",""
"","S1","","html-keyboard-response","402","488391","0.0-1.0-560.0","0","0","65911","","null","","","null","62","","","","","","","","","","","","","","","",""
"","ISI","","html-keyboard-response","403","489398","0.0-1.0-561.0","0","0","65911","","null","","","null","62","NaN","","","","","","","","","","","","","","",""
"","S2","","html-keyboard-response","404","489656","0.0-1.0-562.0","0","0","65911","","null","","","null","62","","NaN","","","","","","","","","","","","","",""
"","response","","html-keyboard-response","405","490286","0.0-1.0-563.0-0.0","0","0","65911","","621","","","68","62","","","2","62","training","adjacent","FG","6","7","L.jpg","R.jpg","0","1","0","",""
"","feedback","","html-keyboard-response","406","491294","0.0-1.0-564.0-0.0","0","0","65911","","null","","","null","62","","","","","","","","","","","","","","","",""
"","time_out","","html-keyboard-response","407","493301","0.0-1.0-566.0-0.0","0","0","65911","","null","","","null","62","","","","","","","","","","","","","","","",""
"","ITI","","html-keyboard-response","408","494306","0.0-1.0-567.0","0","0","65911","","null","","","null","62","","","","","","","","","","","","","","","NaN",""
"","S1","","html-keyboard-response","409","494561","0.0-1.0-569.0","0","0","65911","","null","","","null","63","","","","","","","","","","","","","","","",""
"","ISI","","html-keyboard-response","410","495566","0.0-1.0-570.0","0","0","65911","","null","","","null","63","NaN","","","","","","","","","","","","","","",""
"","S2","","html-keyboard-response","411","495822","0.0-1.0-571.0","0","0","65911","","null","","","null","63","","NaN","","","","","","","","","","","","","",""
"","response","","html-keyboard-response","412","496712","0.0-1.0-572.0-0.0","0","0","65911","","885","","","68","63","","","2","63","training","adjacent","ED","5","4","M.jpg","Q.jpg","0","0","1","",""
"","feedback","","html-keyboard-response","413","497718","0.0-1.0-573.0-0.0","0","0","65911","","null","","","null","63","","","","","","","","","","","","","","","",""
"","ITI","","html-keyboard-response","414","498725","0.0-1.0-576.0","0","0","65911","","null","","","null","63","","","","","","","","","","","","","","","NaN",""
"","S1","","html-keyboard-response","415","498981","0.0-1.0-578.0","0","0","65911","","null","","","null","64","","","","","","","","","","","","","","","",""
"","ISI","","html-keyboard-response","416","499987","0.0-1.0-579.0","0","0","65911","","null","","","null","64","NaN","","","","","","","","","","","","","","",""
"","S2","","html-keyboard-response","417","500035","0.0-1.0-580.0","0","0","65911","","45","","","75","64","","k","2","64","training","adjacent","DC","4","3","Q.jpg","P.jpg","1","0","0","",""
"","feedback","","html-keyboard-response","418","501040","0.0-1.0-582.0-0.0","0","0","65911","","null","","","null","64","","","","","","","","","","","","","","","",""
"","time_out","","html-keyboard-response","419","503046","0.0-1.0-584.0-0.0","0","0","65911","","null","","","null","64","","","","","","","","","","","","","","","",""
"","ITI","","html-keyboard-response","420","504051","0.0-1.0-585.0","0","0","65911","","null","","","null","64","","","","","","","","","","","","","","","NaN",""
"","S1","","html-keyboard-response","421","504307","0.0-1.0-587.0","0","0","65911","","null","","","null","65","","","","","","","","","","","","","","","",""
"","ISI","","html-keyboard-response","422","505313","0.0-1.0-588.0","0","0","65911","","null","","","null","65","NaN","","","","","","","","","","","","","","",""
"","S2","","html-keyboard-response","423","505571","0.0-1.0-589.0","0","0","65911","","null","","","null","65","","NaN","","","","","","","","","","","","","",""
"","response","","html-keyboard-response","424","506694","0.0-1.0-590.0-0.0","0","0","65911","","1118","","","68","65","","","2","65","training","adjacent","DE","4","5","Q.jpg","M.jpg","0","1","0","",""
"","feedback","","html-keyboard-response","425","507700","0.0-1.0-591.0-0.0","0","0","65911","","null","","","null","65","","","","","","","","","","","","","","","",""
"","time_out","","html-keyboard-response","426","509704","0.0-1.0-593.0-0.0","0","0","65911","","null","","","null","65","","","","","","","","","","","","","","","",""
"","ITI","","html-keyboard-response","427","510709","0.0-1.0-594.0","0","0","65911","","null","","","null","65","","","","","","","","","","","","","","","NaN",""
"","S1","","html-keyboard-response","428","510964","0.0-1.0-596.0","0","0","65911","","null","","","null","66","","","","","","","","","","","","","","","",""
"","ISI","","html-keyboard-response","429","511973","0.0-1.0-597.0","0","0","65911","","null","","","null","66","NaN","","","","","","","","","","","","","","",""
"","S2","","html-keyboard-response","430","512233","0.0-1.0-598.0","0","0","65911","","null","","","null","66","","NaN","","","","","","","","","","","","","",""
"","response","","html-keyboard-response","431","512782","0.0-1.0-599.0-0.0","0","0","65911","","544","","","75","66","","","2","66","training","adjacent","BC","2","3","O.jpg","P.jpg","1","1","1","",""
"","feedback","","html-keyboard-response","432","513786","0.0-1.0-600.0-0.0","0","0","65911","","null","","","null","66","","","","","","","","","","","","","","","",""
"","ITI","","html-keyboard-response","433","514792","0.0-1.0-603.0","0","0","65911","","null","","","null","66","","","","","","","","","","","","","","","NaN",""
"","S1","","html-keyboard-response","434","515046","0.0-1.0-605.0","0","0","65911","","null","","","null","67","","","","","","","","","","","","","","","",""
"","ISI","","html-keyboard-response","435","516053","0.0-1.0-606.0","0","0","65911","","null","","","null","67","NaN","","","","","","","","","","","","","","",""
"","S2","","html-keyboard-response","436","516313","0.0-1.0-607.0","0","0","65911","","null","","","null","67","","NaN","","","","","","","","","","","","","",""
"","response","","html-keyboard-response","437","516878","0.0-1.0-608.0-0.0","0","0","65911","","561","","","68","67","","","2","67","training","adjacent","FG","6","7","L.jpg","R.jpg","0","1","0","",""
"","feedback","","html-keyboard-response","438","517884","0.0-1.0-609.0-0.0","0","0","65911","","null","","","null","67","","","","","","","","","","","","","","","",""
"","time_out","","html-keyboard-response","439","519892","0.0-1.0-611.0-0.0","0","0","65911","","null","","","null","67","","","","","","","","","","","","","","","",""
"","ITI","","html-keyboard-response","440","520899","0.0-1.0-612.0","0","0","65911","","null","","","null","67","","","","","","","","","","","","","","","NaN",""
"","S1","","html-keyboard-response","441","521155","0.0-1.0-614.0","0","0","65911","","null","","","null","68","","","","","","","","","","","","","","","",""
"","ISI","","html-keyboard-response","442","522160","0.0-1.0-615.0","0","0","65911","","null","","","null","68","NaN","","","","","","","","","","","","","","",""
"","S2","","html-keyboard-response","443","522415","0.0-1.0-616.0","0","0","65911","","null","","","null","68","","NaN","","","","","","","","","","","","","",""
"","response","","html-keyboard-response","444","522993","0.0-1.0-617.0-0.0","0","0","65911","","572","","","68","68","","","2","68","training","adjacent","DE","4","5","Q.jpg","M.jpg","0","1","0","",""
"","feedback","","html-keyboard-response","445","524000","0.0-1.0-618.0-0.0","0","0","65911","","null","","","null","68","","","","","","","","","","","","","","","",""
"","time_out","","html-keyboard-response","446","526006","0.0-1.0-620.0-0.0","0","0","65911","","null","","","null","68","","","","","","","","","","","","","","","",""
"","ITI","","html-keyboard-response","447","527011","0.0-1.0-621.0","0","0","65911","","null","","","null","68","","","","","","","","","","","","","","","NaN",""
"","S1","","html-keyboard-response","448","527266","0.0-1.0-623.0","0","0","65911","","null","","","null","69","","","","","","","","","","","","","","","",""
"","ISI","","html-keyboard-response","449","528274","0.0-1.0-624.0","0","0","65911","","null","","","null","69","NaN","","","","","","","","","","","","","","",""
"","S2","","html-keyboard-response","450","528532","0.0-1.0-625.0","0","0","65911","","null","","","null","69","","NaN","","","","","","","","","","","","","",""
"","response","","html-keyboard-response","451","529509","0.0-1.0-626.0-0.0","0","0","65911","","971","","","75","69","","","2","69","training","adjacent","EF","5","6","M.jpg","L.jpg","1","1","1","",""
"","feedback","","html-keyboard-response","452","530516","0.0-1.0-627.0-0.0","0","0","65911","","null","","","null","69","","","","","","","","","","","","","","","",""
"","ITI","","html-keyboard-response","453","531521","0.0-1.0-630.0","0","0","65911","","null","","","null","69","","","","","","","","","","","","","","","NaN",""
"","S1","","html-keyboard-response","454","531775","0.0-1.0-632.0","0","0","65911","","null","","","null","70","","","","","","","","","","","","","","","",""
"","ISI","","html-keyboard-response","455","532780","0.0-1.0-633.0","0","0","65911","","null","","","null","70","NaN","","","","","","","","","","","","","","",""
"","S2","","html-keyboard-response","456","533035","0.0-1.0-634.0","0","0","65911","","null","","","null","70","","NaN","","","","","","","","","","","","","",""
"","response","","html-keyboard-response","457","533625","0.0-1.0-635.0-0.0","0","0","65911","","586","","","75","70","","","2","70","training","adjacent","BC","2","3","O.jpg","P.jpg","1","1","1","",""
"","feedback","","html-keyboard-response","458","534630","0.0-1.0-636.0-0.0","0","0","65911","","null","","","null","70","","","","","","","","","","","","","","","",""
"","ITI","","html-keyboard-response","459","535635","0.0-1.0-639.0","0","0","65911","","null","","","null","70","","","","","","","","","","","","","","","NaN",""
"","S1","","html-keyboard-response","460","535889","0.0-1.0-641.0","0","0","65911","","null","","","null","71","","","","","","","","","","","","","","","",""
"","ISI","","html-keyboard-response","461","536893","0.0-1.0-642.0","0","0","65911","","null","","","null","71","NaN","","","","","","","","","","","","","","",""
"","S2","","html-keyboard-response","462","537147","0.0-1.0-643.0","0","0","65911","","null","","","null","71","","NaN","","","","","","","","","","","","","",""
"","response","","html-keyboard-response","463","538182","0.0-1.0-644.0-0.0","0","0","65911","","1031","","","68","71","","","2","71","training","adjacent","EF","5","6","M.jpg","L.jpg","0","1","0","",""
"","feedback","","html-keyboard-response","464","539189","0.0-1.0-645.0-0.0","0","0","65911","","null","","","null","71","","","","","","","","","","","","","","","",""
"","time_out","","html-keyboard-response","465","541195","0.0-1.0-647.0-0.0","0","0","65911","","null","","","null","71","","","","","","","","","","","","","","","",""
"","ITI","","html-keyboard-response","466","542200","0.0-1.0-648.0","0","0","65911","","null","","","null","71","","","","","","","","","","","","","","","NaN",""
"","S1","","html-keyboard-response","467","542456","0.0-1.0-650.0","0","0","65911","","null","","","null","72","","","","","","","","","","","","","","","",""
"","ISI","","html-keyboard-response","468","543463","0.0-1.0-651.0","0","0","65911","","null","","","null","72","NaN","","","","","","","","","","","","","","",""
"","S2","","html-keyboard-response","469","543721","0.0-1.0-652.0","0","0","65911","","null","","","null","72","","NaN","","","","","","","","","","","","","",""
"","response","","html-keyboard-response","470","544180","0.0-1.0-653.0-0.0","0","0","65911","","452","","","75","72","","","2","72","training","adjacent","BA","2","1","O.jpg","N.jpg","1","0","0","",""
"","feedback","","html-keyboard-response","471","545188","0.0-1.0-654.0-0.0","0","0","65911","","null","","","null","72","","","","","","","","","","","","","","","",""
"","time_out","","html-keyboard-response","472","547196","0.0-1.0-656.0-0.0","0","0","65911","","null","","","null","72","","","","","","","","","","","","","","","",""
"","ITI","","html-keyboard-response","473","548203","0.0-1.0-657.0","0","0","65911","","null","","","null","72","","","","","","","","","","","","","","","NaN",""
"","S1","","html-keyboard-response","474","548458","0.0-1.0-659.0","0","0","65911","","null","","","null","73","","","","","","","","","","","","","","","",""
"","ISI","","html-keyboard-response","475","549464","0.0-1.0-660.0","0","0","65911","","null","","","null","73","NaN","","","","","","","","","","","","","","",""
"","S2","","html-keyboard-response","476","549722","0.0-1.0-661.0","0","0","65911","","null","","","null","73","","NaN","","","","","","","","","","","","","",""
"","response","","html-keyboard-response","477","550576","0.0-1.0-662.0-0.0","0","0","65911","","848","","","68","73","","","2","73","training","adjacent","CD","3","4","P.jpg","Q.jpg","0","1","0","",""
"","feedback","","html-keyboard-response","478","551584","0.0-1.0-663.0-0.0","0","0","65911","","null","","","null","73","","","","","","","","","","","","","","","",""
"","time_out","","html-keyboard-response","479","553591","0.0-1.0-665.0-0.0","0","0","65911","","null","","","null","73","","","","","","","","","","","","","","","",""
"","ITI","","html-keyboard-response","480","554597","0.0-1.0-666.0","0","0","65911","","null","","","null","73","","","","","","","","","","","","","","","NaN",""
"","S1","","html-keyboard-response","481","554855","0.0-1.0-668.0","0","0","65911","","null","","","null","74","","","","","","","","","","","","","","","",""
"","ISI","","html-keyboard-response","482","555860","0.0-1.0-669.0","0","0","65911","","null","","","null","74","NaN","","","","","","","","","","","","","","",""
"","S2","","html-keyboard-response","483","556119","0.0-1.0-670.0","0","0","65911","","null","","","null","74","","NaN","","","","","","","","","","","","","",""
"","response","","html-keyboard-response","484","557307","0.0-1.0-671.0-0.0","0","0","65911","","1183","","","75","74","","","2","74","training","adjacent","FG","6","7","L.jpg","R.jpg","1","1","1","",""
"","feedback","","html-keyboard-response","485","558317","0.0-1.0-672.0-0.0","0","0","65911","","null","","","null","74","","","","","","","","","","","","","","","",""
"","ITI","","html-keyboard-response","486","559325","0.0-1.0-675.0","0","0","65911","","null","","","null","74","","","","","","","","","","","","","","","NaN",""
"","S1","","html-keyboard-response","487","559583","0.0-1.0-677.0","0","0","65911","","null","","","null","75","","","","","","","","","","","","","","","",""
"","ISI","","html-keyboard-response","488","560590","0.0-1.0-678.0","0","0","65911","","null","","","null","75","NaN","","","","","","","","","","","","","","",""
"","S2","","html-keyboard-response","489","560847","0.0-1.0-679.0","0","0","65911","","null","","","null","75","","NaN","","","","","","","","","","","","","",""
"","response","","html-keyboard-response","490","561839","0.0-1.0-680.0-0.0","0","0","65911","","986","","","75","75","","","2","75","training","adjacent","FE","6","5","L.jpg","M.jpg","1","0","0","",""
"","feedback","","html-keyboard-response","491","562848","0.0-1.0-681.0-0.0","0","0","65911","","null","","","null","75","","","","","","","","","","","","","","","",""
"","time_out","","html-keyboard-response","492","564855","0.0-1.0-683.0-0.0","0","0","65911","","null","","","null","75","","","","","","","","","","","","","","","",""
"","ITI","","html-keyboard-response","493","565861","0.0-1.0-684.0","0","0","65911","","null","","","null","75","","","","","","","","","","","","","","","NaN",""
"","S1","","html-keyboard-response","494","566119","0.0-1.0-686.0","0","0","65911","","null","","","null","76","","","","","","","","","","","","","","","",""
"","ISI","","html-keyboard-response","495","567126","0.0-1.0-687.0","0","0","65911","","null","","","null","76","NaN","","","","","","","","","","","","","","",""
"","S2","","html-keyboard-response","496","567383","0.0-1.0-688.0","0","0","65911","","null","","","null","76","","NaN","","","","","","","","","","","","","",""
"","response","","html-keyboard-response","497","567500","0.0-1.0-689.0-0.0","0","0","65911","","109","","","75","76","","","2","76","training","adjacent","CB","3","2","P.jpg","O.jpg","1","0","0","",""
"","feedback","","html-keyboard-response","498","568507","0.0-1.0-690.0-0.0","0","0","65911","","null","","","null","76","","","","","","","","","","","","","","","",""
"","time_out","","html-keyboard-response","499","570516","0.0-1.0-692.0-0.0","0","0","65911","","null","","","null","76","","","","","","","","","","","","","","","",""
"","ITI","","html-keyboard-response","500","571522","0.0-1.0-693.0","0","0","65911","","null","","","null","76","","","","","","","","","","","","","","","NaN",""
"","S1","","html-keyboard-response","501","571779","0.0-1.0-695.0","0","0","65911","","null","","","null","77","","","","","","","","","","","","","","","",""
"","ISI","","html-keyboard-response","502","572785","0.0-1.0-696.0","0","0","65911","","null","","","null","77","NaN","","","","","","","","","","","","","","",""
"","S2","","html-keyboard-response","503","573043","0.0-1.0-697.0","0","0","65911","","null","","","null","77","","NaN","","","","","","","","","","","","","",""
"","response","","html-keyboard-response","504","574255","0.0-1.0-698.0-0.0","0","0","65911","","1205","","","68","77","","","2","77","training","adjacent","CB","3","2","P.jpg","O.jpg","0","0","1","",""
"","feedback","","html-keyboard-response","505","575266","0.0-1.0-699.0-0.0","0","0","65911","","null","","","null","77","","","","","","","","","","","","","","","",""
"","ITI","","html-keyboard-response","506","576274","0.0-1.0-702.0","0","0","65911","","null","","","null","77","","","","","","","","","","","","","","","NaN",""
"","S1","","html-keyboard-response","507","576533","0.0-1.0-704.0","0","0","65911","","null","","","null","78","","","","","","","","","","","","","","","",""
"","ISI","","html-keyboard-response","508","577539","0.0-1.0-705.0","0","0","65911","","null","","","null","78","NaN","","","","","","","","","","","","","","",""
"","S2","","html-keyboard-response","509","577798","0.0-1.0-706.0","0","0","65911","","null","","","null","78","","NaN","","","","","","","","","","","","","",""
"","response","","html-keyboard-response","510","578615","0.0-1.0-707.0-0.0","0","0","65911","","809","","","68","78","","","2","78","training","adjacent","GF","7","6","R.jpg","L.jpg","0","0","1","",""
"","feedback","","html-keyboard-response","511","579624","0.0-1.0-708.0-0.0","0","0","65911","","null","","","null","78","","","","","","","","","","","","","","","",""
"","ITI","","html-keyboard-response","512","580633","0.0-1.0-711.0","0","0","65911","","null","","","null","78","","","","","","","","","","","","","","","NaN",""
"","S1","","html-keyboard-response","513","580889","0.0-1.0-713.0","0","0","65911","","null","","","null","79","","","","","","","","","","","","","","","",""
"","ISI","","html-keyboard-response","514","581894","0.0-1.0-714.0","0","0","65911","","null","","","null","79","NaN","","","","","","","","","","","","","","",""
"","S2","","html-keyboard-response","515","582150","0.0-1.0-715.0","0","0","65911","","null","","","null","79","","NaN","","","","","","","","","","","","","",""
"","response","","html-keyboard-response","516","583003","0.0-1.0-716.0-0.0","0","0","65911","","848","","","75","79","","","2","79","training","adjacent","AB","1","2","N.jpg","O.jpg","1","1","1","",""
"","feedback","","html-keyboard-response","517","584013","0.0-1.0-717.0-0.0","0","0","65911","","null","","","null","79","","","","","","","","","","","","","","","",""
"","ITI","","html-keyboard-response","518","585021","0.0-1.0-720.0","0","0","65911","","null","","","null","79","","","","","","","","","","","","","","","NaN",""
"","S1","","html-keyboard-response","519","585279","0.0-1.0-722.0","0","0","65911","","null","","","null","80","","","","","","","","","","","","","","","",""
"","ISI","","html-keyboard-response","520","586285","0.0-1.0-723.0","0","0","65911","","null","","","null","80","NaN","","","","","","","","","","","","","","",""
"","S2","","html-keyboard-response","521","586542","0.0-1.0-724.0","0","0","65911","","null","","","null","80","","NaN","","","","","","","","","","","","","",""
"","response","","html-keyboard-response","522","587119","0.0-1.0-725.0-0.0","0","0","65911","","569","","","68","80","","","2","80","training","adjacent","BC","2","3","O.jpg","P.jpg","0","1","0","",""
"","feedback","","html-keyboard-response","523","588127","0.0-1.0-726.0-0.0","0","0","65911","","null","","","null","80","","","","","","","","","","","","","","","",""
"","time_out","","html-keyboard-response","524","590135","0.0-1.0-728.0-0.0","0","0","65911","","null","","","null","80","","","","","","","","","","","","","","","",""
"","ITI","","html-keyboard-response","525","591141","0.0-1.0-729.0","0","0","65911","","null","","","null","80","","","","","","","","","","","","","","","NaN",""
"","S1","","html-keyboard-response","526","591400","0.0-1.0-731.0","0","0","65911","","null","","","null","81","","","","","","","","","","","","","","","",""
"","ISI","","html-keyboard-response","527","592406","0.0-1.0-732.0","0","0","65911","","null","","","null","81","NaN","","","","","","","","","","","","","","",""
"","S2","","html-keyboard-response","528","592664","0.0-1.0-733.0","0","0","65911","","null","","","null","81","","NaN","","","","","","","","","","","","","",""
"","response","","html-keyboard-response","529","593178","0.0-1.0-734.0-0.0","0","0","65911","","506","","","68","81","","","2","81","training","adjacent","ED","5","4","M.jpg","Q.jpg","0","0","1","",""
"","feedback","","html-keyboard-response","530","594186","0.0-1.0-735.0-0.0","0","0","65911","","null","","","null","81","","","","","","","","","","","","","","","",""
"","ITI","","html-keyboard-response","531","595194","0.0-1.0-738.0","0","0","65911","","null","","","null","81","","","","","","","","","","","","","","","NaN",""
"","S1","","html-keyboard-response","532","595451","0.0-1.0-740.0","0","0","65911","","null","","","null","82","","","","","","","","","","","","","","","",""
"","ISI","","html-keyboard-response","533","596458","0.0-1.0-741.0","0","0","65911","","null","","","null","82","NaN","","","","","","","","","","","","","","",""
"","S2","","html-keyboard-response","534","596715","0.0-1.0-742.0","0","0","65911","","null","","","null","82","","NaN","","","","","","","","","","","","","",""
"","response","","html-keyboard-response","535","597326","0.0-1.0-743.0-0.0","0","0","65911","","603","","","75","82","","","2","82","training","adjacent","BC","2","3","O.jpg","P.jpg","1","1","1","",""
"","feedback","","html-keyboard-response","536","598334","0.0-1.0-744.0-0.0","0","0","65911","","null","","","null","82","","","","","","","","","","","","","","","",""
"","ITI","","html-keyboard-response","537","599343","0.0-1.0-747.0","0","0","65911","","null","","","null","82","","","","","","","","","","","","","","","NaN",""
"","S1","","html-keyboard-response","538","599600","0.0-1.0-749.0","0","0","65911","","null","","","null","83","","","","","","","","","","","","","","","",""
"","ISI","","html-keyboard-response","539","600606","0.0-1.0-750.0","0","0","65911","","null","","","null","83","NaN","","","","","","","","","","","","","","",""
"","S2","","html-keyboard-response","540","600864","0.0-1.0-751.0","0","0","65911","","null","","","null","83","","NaN","","","","","","","","","","","","","",""
"","response","","html-keyboard-response","541","601805","0.0-1.0-752.0-0.0","0","0","65911","","934","","","68","83","","","2","83","training","adjacent","AB","1","2","N.jpg","O.jpg","0","1","0","",""
"","feedback","","html-keyboard-response","542","602813","0.0-1.0-753.0-0.0","0","0","65911","","null","","","null","83","","","","","","","","","","","","","","","",""
"","time_out","","html-keyboard-response","543","604821","0.0-1.0-755.0-0.0","0","0","65911","","null","","","null","83","","","","","","","","","","","","","","","",""
"","ITI","","html-keyboard-response","544","605828","0.0-1.0-756.0","0","0","65911","","null","","","null","83","","","","","","","","","","","","","","","NaN",""
"","S1","","html-keyboard-response","545","606086","0.0-1.0-758.0","0","0","65911","","null","","","null","84","","","","","","","","","","","","","","","",""
"","ISI","","html-keyboard-response","546","607093","0.0-1.0-759.0","0","0","65911","","null","","","null","84","NaN","","","","","","","","","","","","","","",""
"","S2","","html-keyboard-response","547","607350","0.0-1.0-760.0","0","0","65911","","null","","","null","84","","NaN","","","","","","","","","","","","","",""
"","response","","html-keyboard-response","548","608615","0.0-1.0-761.0-0.0","0","0","65911","","1259","","","68","84","","","2","84","training","adjacent","GF","7","6","R.jpg","L.jpg","0","0","1","",""
"","feedback","","html-keyboard-response","549","609624","0.0-1.0-762.0-0.0","0","0","65911","","null","","","null","84","","","","","","","","","","","","","","","",""
"","ITI","","html-keyboard-response","550","610632","0.0-1.0-765.0","0","0","65911","","null","","","null","84","","","","","","","","","","","","","","","NaN",""
"","S1","","html-keyboard-response","551","610890","0.0-1.0-767.0","0","0","65911","","null","","","null","85","","","","","","","","","","","","","","","",""
"","ISI","","html-keyboard-response","552","611897","0.0-1.0-768.0","0","0","65911","","null","","","null","85","NaN","","","","","","","","","","","","","","",""
"","S2","","html-keyboard-response","553","612154","0.0-1.0-769.0","0","0","65911","","null","","","null","85","","NaN","","","","","","","","","","","","","",""
"","response","","html-keyboard-response","554","612954","0.0-1.0-770.0-0.0","0","0","65911","","793","","","68","85","","","2","85","training","adjacent","CD","3","4","P.jpg","Q.jpg","0","1","0","",""
"","feedback","","html-keyboard-response","555","613963","0.0-1.0-771.0-0.0","0","0","65911","","null","","","null","85","","","","","","","","","","","","","","","",""
"","time_out","","html-keyboard-response","556","615990","0.0-1.0-773.0-0.0","0","0","65911","","null","","","null","85","","","","","","","","","","","","","","","",""
"","ITI","","html-keyboard-response","557","616996","0.0-1.0-774.0","0","0","65911","","null","","","null","85","","","","","","","","","","","","","","","NaN",""
"","S1","","html-keyboard-response","558","617254","0.0-1.0-776.0","0","0","65911","","null","","","null","86","","","","","","","","","","","","","","","",""
"","ISI","","html-keyboard-response","559","618260","0.0-1.0-777.0","0","0","65911","","null","","","null","86","NaN","","","","","","","","","","","","","","",""
"","S2","","html-keyboard-response","560","618518","0.0-1.0-778.0","0","0","65911","","null","","","null","86","","NaN","","","","","","","","","","","","","",""
"","response","","html-keyboard-response","561","618892","0.0-1.0-779.0-0.0","0","0","65911","","368","","","75","86","","","2","86","training","adjacent","FE","6","5","L.jpg","M.jpg","1","0","0","",""
"","feedback","","html-keyboard-response","562","619902","0.0-1.0-780.0-0.0","0","0","65911","","null","","","null","86","","","","","","","","","","","","","","","",""
"","time_out","","html-keyboard-response","563","621910","0.0-1.0-782.0-0.0","0","0","65911","","null","","","null","86","","","","","","","","","","","","","","","",""
"","ITI","","html-keyboard-response","564","622916","0.0-1.0-783.0","0","0","65911","","537","","","68","86","","","","","","","","","","","","","","","d",""
"","S1","","html-keyboard-response","565","623173","0.0-1.0-785.0","0","0","65911","","null","","","null","87","","","","","","","","","","","","","","","",""
"","ISI","","html-keyboard-response","566","624179","0.0-1.0-786.0","0","0","65911","","null","","","null","87","NaN","","","","","","","","","","","","","","",""
"","S2","","html-keyboard-response","567","624438","0.0-1.0-787.0","0","0","65911","","null","","","null","87","","NaN","","","","","","","","","","","","","",""
"","response","","html-keyboard-response","568","624994","0.0-1.0-788.0-0.0","0","0","65911","","550","","","68","87","","","2","87","training","adjacent","CD","3","4","P.jpg","Q.jpg","0","1","0","",""
"","feedback","","html-keyboard-response","569","626000","0.0-1.0-789.0-0.0","0","0","65911","","null","","","null","87","","","","","","","","","","","","","","","",""
"","time_out","","html-keyboard-response","570","628004","0.0-1.0-791.0-0.0","0","0","65911","","null","","","null","87","","","","","","","","","","","","","","","",""
"","ITI","","html-keyboard-response","571","629018","0.0-1.0-792.0","0","0","65911","","null","","","null","87","","","","","","","","","","","","","","","NaN",""
"","S1","","html-keyboard-response","572","629275","0.0-1.0-794.0","0","0","65911","","null","","","null","88","","","","","","","","","","","","","","","",""
"","ISI","","html-keyboard-response","573","630281","0.0-1.0-795.0","0","0","65911","","null","","","null","88","NaN","","","","","","","","","","","","","","",""
"","S2","","html-keyboard-response","574","630539","0.0-1.0-796.0","0","0","65911","","null","","","null","88","","NaN","","","","","","","","","","","","","",""
"","response","","html-keyboard-response","575","631072","0.0-1.0-797.0-0.0","0","0","65911","","526","","","75","88","","","2","88","training","adjacent","DC","4","3","Q.jpg","P.jpg","1","0","0","",""
"","feedback","","html-keyboard-response","576","632080","0.0-1.0-798.0-0.0","0","0","65911","","null","","","null","88","","","","","","","","","","","","","","","",""
"","time_out","","html-keyboard-response","577","634090","0.0-1.0-800.0-0.0","0","0","65911","","null","","","null","88","","","","","","","","","","","","","","","",""
"","ITI","","html-keyboard-response","578","635096","0.0-1.0-801.0","0","0","65911","","null","","","null","88","","","","","","","","","","","","","","","NaN",""
"","S1","","html-keyboard-response","579","635355","0.0-1.0-803.0","0","0","65911","","null","","","null","89","","","","","","","","","","","","","","","",""
"","ISI","","html-keyboard-response","580","636361","0.0-1.0-804.0","0","0","65911","","250","","","68","89","d","","","","","","","","","","","","","","",""
"","S2","","html-keyboard-response","581","636621","0.0-1.0-805.0","0","0","65911","","null","","","null","89","","NaN","","","","","","","","","","","","","",""
