"success","ttype","start_time","trial_type","trial_index","time_elapsed","internal_node_id","warning","missed_checkup","PID","view_history","rt","responses","repeat_instructions","key_press","index","keypress_isi","keypress_S2","block","trial_num","phase","group_type","pair_type","S1_stim","S2_stim","S1_img","S2_img","S1_chosen","S1_higher","accuracy","keypress_iti","total_bonus_tally"
"true","full_screen","d04132023hr1352","fullscreen","0","7996","0.0-0.0","0","0","53042","","","","","","","","","","","","","","","","","","","","","",""
"","instructions","","instructions","1","39260","0.0-1.0-0.0-0.0","0","0","53042","[{""page_index"":0,""viewing_time"":6041},{""page_index"":1,""viewing_time"":19238},{""page_index"":2,""viewing_time"":4979},{""page_index"":3,""viewing_time"":1000}]","31258","","","","","","","","","","","","","","","","","","","",""
"","comprehension_check","","survey-multi-choice","2","72761","0.0-1.0-0.0-1.0","0","0","53042","","33491","{""Q0"":""True"",""Q1"":""D"",""Q2"":""Only when the screen 'MAKE A CHOICE' is shown"",""Q3"":""Green mark"",""Q4"":""either D or K""}","1","","","","","","","","","","","","","","","","","",""
"","missed_instruction_checkup","","html-keyboard-response","3","74593","0.0-1.0-0.0-2.0-0.0","0","1","53042","","1822","","","32","","","","","","","","","","","","","","","","",""
"","instructions","","instructions","4","121717","0.0-1.0-0.1-0.1","0","0","53042","[{""page_index"":0,""viewing_time"":2272},{""page_index"":1,""viewing_time"":28817},{""page_index"":2,""viewing_time"":15072},{""page_index"":3,""viewing_time"":956}]","47118","","","","","","","","","","","","","","","","","","","",""
"","comprehension_check","","survey-multi-choice","5","136344","0.0-1.0-0.1-1.1","0","0","53042","","14612","{""Q0"":""True"",""Q1"":""D"",""Q2"":""Once the second image appears and while the screen 'MAKE A CHOICE' is shown"",""Q3"":""Green mark"",""Q4"":""either D or K""}","0","","","","","","","","","","","","","","","","","",""
"","start_exp","","html-keyboard-response","6","138221","0.0-1.0-1.0","0","0","53042","","1869","","","32","","","","","","","","","","","","","","","","",""
"","S1","","html-keyboard-response","7","138491","0.0-1.0-2.0","0","0","53042","","null","","","null","0","","","","","","","","","","","","","","","",""
"","ISI","","html-keyboard-response","8","139502","0.0-1.0-3.0","0","0","53042","","null","","","null","0","NaN","","","","","","","","","","","","","","",""
"","S2","","html-keyboard-response","9","139766","0.0-1.0-4.0","0","0","53042","","null","","","null","0","","NaN","","","","","","","","","","","","","",""
"","response","","html-keyboard-response","10","140672","0.0-1.0-5.0-0.0","0","0","53042","","900","","","75","0","","","1","0","training","adjacent","BC","2","3","R.jpg","Q.jpg","0","1","0","",""
"","feedback","","html-keyboard-response","11","141689","0.0-1.0-6.0-0.0","0","0","53042","","null","","","null","0","","","","","","","","","","","","","","","",""
"","time_out","","html-keyboard-response","12","143694","0.0-1.0-8.0-0.0","0","0","53042","","null","","","null","0","","","","","","","","","","","","","","","",""
"","ITI","","html-keyboard-response","13","144705","0.0-1.0-9.0","0","0","53042","","null","","","null","0","","","","","","","","","","","","","","","NaN",""
"","S1","","html-keyboard-response","14","144970","0.0-1.0-11.0","0","0","53042","","null","","","null","1","","","","","","","","","","","","","","","",""
"","ISI","","html-keyboard-response","15","145976","0.0-1.0-12.0","0","0","53042","","null","","","null","1","NaN","","","","","","","","","","","","","","",""
"","S2","","html-keyboard-response","16","146244","0.0-1.0-13.0","0","0","53042","","null","","","null","1","","NaN","","","","","","","","","","","","","",""
"","response","","html-keyboard-response","17","147561","0.0-1.0-14.0-0.0","0","0","53042","","1313","","","75","1","","","1","1","training","adjacent","EF","5","6","M.jpg","O.jpg","0","1","0","",""
"","feedback","","html-keyboard-response","18","148579","0.0-1.0-15.0-0.0","0","0","53042","","null","","","null","1","","","","","","","","","","","","","","","",""
"","time_out","","html-keyboard-response","19","150701","0.0-1.0-17.0-0.0","0","0","53042","","null","","","null","1","","","","","","","","","","","","","","","",""
"","ITI","","html-keyboard-response","20","151712","0.0-1.0-18.0","0","0","53042","","null","","","null","1","","","","","","","","","","","","","","","NaN",""
"","S1","","html-keyboard-response","21","151972","0.0-1.0-20.0","0","0","53042","","null","","","null","2","","","","","","","","","","","","","","","",""
"","ISI","","html-keyboard-response","22","152988","0.0-1.0-21.0","0","0","53042","","null","","","null","2","NaN","","","","","","","","","","","","","","",""
"","S2","","html-keyboard-response","23","153248","0.0-1.0-22.0","0","0","53042","","null","","","null","2","","NaN","","","","","","","","","","","","","",""
"","response","","html-keyboard-response","24","154461","0.0-1.0-23.0-0.0","0","0","53042","","1209","","","75","2","","","1","2","training","adjacent","AB","1","2","P.jpg","R.jpg","0","1","0","",""
"","feedback","","html-keyboard-response","25","155478","0.0-1.0-24.0-0.0","0","0","53042","","null","","","null","2","","","","","","","","","","","","","","","",""
"","time_out","","html-keyboard-response","26","157485","0.0-1.0-26.0-0.0","0","0","53042","","null","","","null","2","","","","","","","","","","","","","","","",""
"","ITI","","html-keyboard-response","27","158497","0.0-1.0-27.0","0","0","53042","","null","","","null","2","","","","","","","","","","","","","","","NaN",""
"","S1","","html-keyboard-response","28","158759","0.0-1.0-29.0","0","0","53042","","null","","","null","3","","","","","","","","","","","","","","","",""
"","ISI","","html-keyboard-response","29","159777","0.0-1.0-30.0","0","0","53042","","null","","","null","3","NaN","","","","","","","","","","","","","","",""
"","S2","","html-keyboard-response","30","160033","0.0-1.0-31.0","0","0","53042","","null","","","null","3","","NaN","","","","","","","","","","","","","",""
"","response","","html-keyboard-response","31","160577","0.0-1.0-32.0-0.0","0","0","53042","","541","","","68","3","","","1","3","training","adjacent","ED","5","4","M.jpg","N.jpg","1","0","0","",""
"","feedback","","html-keyboard-response","32","161587","0.0-1.0-33.0-0.0","0","0","53042","","null","","","null","3","","","","","","","","","","","","","","","",""
"","time_out","","html-keyboard-response","33","163607","0.0-1.0-35.0-0.0","0","0","53042","","null","","","null","3","","","","","","","","","","","","","","","",""
"","ITI","","html-keyboard-response","34","164614","0.0-1.0-36.0","0","0","53042","","null","","","null","3","","","","","","","","","","","","","","","NaN",""
"","S1","","html-keyboard-response","35","164872","0.0-1.0-38.0","0","0","53042","","null","","","null","4","","","","","","","","","","","","","","","",""
"","ISI","","html-keyboard-response","36","165877","0.0-1.0-39.0","0","0","53042","","null","","","null","4","NaN","","","","","","","","","","","","","","",""
"","S2","","html-keyboard-response","37","166143","0.0-1.0-40.0","0","0","53042","","null","","","null","4","","NaN","","","","","","","","","","","","","",""
"","response","","html-keyboard-response","38","166613","0.0-1.0-41.0-0.0","0","0","53042","","467","","","68","4","","","1","4","training","adjacent","CD","3","4","Q.jpg","N.jpg","1","1","1","",""
"","feedback","","html-keyboard-response","39","167628","0.0-1.0-42.0-0.0","0","0","53042","","null","","","null","4","","","","","","","","","","","","","","","",""
"","ITI","","html-keyboard-response","40","168636","0.0-1.0-45.0","0","0","53042","","null","","","null","4","","","","","","","","","","","","","","","NaN",""
"","S1","","html-keyboard-response","41","168895","0.0-1.0-47.0","0","0","53042","","null","","","null","5","","","","","","","","","","","","","","","",""
"","ISI","","html-keyboard-response","42","169910","0.0-1.0-48.0","0","0","53042","","null","","","null","5","NaN","","","","","","","","","","","","","","",""
"","S2","","html-keyboard-response","43","170167","0.0-1.0-49.0","0","0","53042","","null","","","null","5","","NaN","","","","","","","","","","","","","",""
"","response","","html-keyboard-response","44","170338","0.0-1.0-50.0-0.0","0","0","53042","","167","","","68","5","","","1","5","training","adjacent","CD","3","4","Q.jpg","N.jpg","1","1","1","",""
"","feedback","","html-keyboard-response","45","171357","0.0-1.0-51.0-0.0","0","0","53042","","null","","","null","5","","","","","","","","","","","","","","","",""
"","ITI","","html-keyboard-response","46","172362","0.0-1.0-54.0","0","0","53042","","null","","","null","5","","","","","","","","","","","","","","","NaN",""
"","S1","","html-keyboard-response","47","172627","0.0-1.0-56.0","0","0","53042","","null","","","null","6","","","","","","","","","","","","","","","",""
"","ISI","","html-keyboard-response","48","173638","0.0-1.0-57.0","0","0","53042","","null","","","null","6","NaN","","","","","","","","","","","","","","",""
"","S2","","html-keyboard-response","49","173904","0.0-1.0-58.0","0","0","53042","","null","","","null","6","","NaN","","","","","","","","","","","","","",""
"","response","","html-keyboard-response","50","174469","0.0-1.0-59.0-0.0","0","0","53042","","562","","","75","6","","","1","6","training","adjacent","FG","6","7","O.jpg","L.jpg","0","1","0","",""
"","feedback","","html-keyboard-response","51","175479","0.0-1.0-60.0-0.0","0","0","53042","","null","","","null","6","","","","","","","","","","","","","","","",""
"","time_out","","html-keyboard-response","52","177484","0.0-1.0-62.0-0.0","0","0","53042","","null","","","null","6","","","","","","","","","","","","","","","",""
"","ITI","","html-keyboard-response","53","178491","0.0-1.0-63.0","0","0","53042","","null","","","null","6","","","","","","","","","","","","","","","NaN",""
"","S1","","html-keyboard-response","54","178756","0.0-1.0-65.0","0","0","53042","","null","","","null","7","","","","","","","","","","","","","","","",""
"","ISI","","html-keyboard-response","55","179762","0.0-1.0-66.0","0","0","53042","","null","","","null","7","NaN","","","","","","","","","","","","","","",""
"","S2","","html-keyboard-response","56","180024","0.0-1.0-67.0","0","0","53042","","null","","","null","7","","NaN","","","","","","","","","","","","","",""
"","response","","html-keyboard-response","57","181131","0.0-1.0-68.0-0.0","0","0","53042","","1102","","","68","7","","","1","7","training","adjacent","BA","2","1","R.jpg","P.jpg","1","0","0","",""
"","feedback","","html-keyboard-response","58","182140","0.0-1.0-69.0-0.0","0","0","53042","","null","","","null","7","","","","","","","","","","","","","","","",""
"","time_out","","html-keyboard-response","59","184150","0.0-1.0-71.0-0.0","0","0","53042","","null","","","null","7","","","","","","","","","","","","","","","",""
"","ITI","","html-keyboard-response","60","185159","0.0-1.0-72.0","0","0","53042","","null","","","null","7","","","","","","","","","","","","","","","NaN",""
"","S1","","html-keyboard-response","61","185424","0.0-1.0-74.0","0","0","53042","","null","","","null","8","","","","","","","","","","","","","","","",""
"","ISI","","html-keyboard-response","62","186442","0.0-1.0-75.0","0","0","53042","","null","","","null","8","NaN","","","","","","","","","","","","","","",""
"","S2","","html-keyboard-response","63","186697","0.0-1.0-76.0","0","0","53042","","null","","","null","8","","NaN","","","","","","","","","","","","","",""
"","response","","html-keyboard-response","64","187227","0.0-1.0-77.0-0.0","0","0","53042","","527","","","68","8","","","1","8","training","adjacent","ED","5","4","M.jpg","N.jpg","1","0","0","",""
"","feedback","","html-keyboard-response","65","188233","0.0-1.0-78.0-0.0","0","0","53042","","null","","","null","8","","","","","","","","","","","","","","","",""
"","time_out","","html-keyboard-response","66","190250","0.0-1.0-80.0-0.0","0","0","53042","","null","","","null","8","","","","","","","","","","","","","","","",""
"","ITI","","html-keyboard-response","67","191265","0.0-1.0-81.0","0","0","53042","","null","","","null","8","","","","","","","","","","","","","","","NaN",""
"","S1","","html-keyboard-response","68","191528","0.0-1.0-83.0","0","0","53042","","null","","","null","9","","","","","","","","","","","","","","","",""
"","ISI","","html-keyboard-response","69","192542","0.0-1.0-84.0","0","0","53042","","null","","","null","9","NaN","","","","","","","","","","","","","","",""
"","S2","","html-keyboard-response","70","192806","0.0-1.0-85.0","0","0","53042","","null","","","null","9","","NaN","","","","","","","","","","","","","",""
"","response","","html-keyboard-response","71","193283","0.0-1.0-86.0-0.0","0","0","53042","","470","","","75","9","","","1","9","training","adjacent","AB","1","2","P.jpg","R.jpg","0","1","0","",""
"","feedback","","html-keyboard-response","72","194299","0.0-1.0-87.0-0.0","0","0","53042","","null","","","null","9","","","","","","","","","","","","","","","",""
"","time_out","","html-keyboard-response","73","196314","0.0-1.0-89.0-0.0","0","0","53042","","null","","","null","9","","","","","","","","","","","","","","","",""
"","ITI","","html-keyboard-response","74","197329","0.0-1.0-90.0","0","0","53042","","null","","","null","9","","","","","","","","","","","","","","","NaN",""
"","S1","","html-keyboard-response","75","197598","0.0-1.0-92.0","0","0","53042","","null","","","null","10","","","","","","","","","","","","","","","",""
"","ISI","","html-keyboard-response","76","198613","0.0-1.0-93.0","0","0","53042","","null","","","null","10","NaN","","","","","","","","","","","","","","",""
"","S2","","html-keyboard-response","77","198877","0.0-1.0-94.0","0","0","53042","","null","","","null","10","","NaN","","","","","","","","","","","","","",""
"","response","","html-keyboard-response","78","199870","0.0-1.0-95.0-0.0","0","0","53042","","988","","","75","10","","","1","10","training","adjacent","ED","5","4","M.jpg","N.jpg","0","0","1","",""
"","feedback","","html-keyboard-response","79","200880","0.0-1.0-96.0-0.0","0","0","53042","","null","","","null","10","","","","","","","","","","","","","","","",""
"","ITI","","html-keyboard-response","80","201889","0.0-1.0-99.0","0","0","53042","","null","","","null","10","","","","","","","","","","","","","","","NaN",""
"","S1","","html-keyboard-response","81","202150","0.0-1.0-101.0","0","0","53042","","null","","","null","11","","","","","","","","","","","","","","","",""
"","ISI","","html-keyboard-response","82","203157","0.0-1.0-102.0","0","0","53042","","null","","","null","11","NaN","","","","","","","","","","","","","","",""
"","S2","","html-keyboard-response","83","203413","0.0-1.0-103.0","0","0","53042","","null","","","null","11","","NaN","","","","","","","","","","","","","",""
"","response","","html-keyboard-response","84","203930","0.0-1.0-104.0-0.0","0","0","53042","","513","","","68","11","","","1","11","training","adjacent","CB","3","2","Q.jpg","R.jpg","1","0","0","",""
"","feedback","","html-keyboard-response","85","204937","0.0-1.0-105.0-0.0","0","0","53042","","null","","","null","11","","","","","","","","","","","","","","","",""
"","time_out","","html-keyboard-response","86","206941","0.0-1.0-107.0-0.0","0","0","53042","","null","","","null","11","","","","","","","","","","","","","","","",""
"","ITI","","html-keyboard-response","87","207951","0.0-1.0-108.0","0","0","53042","","null","","","null","11","","","","","","","","","","","","","","","NaN",""
"","S1","","html-keyboard-response","88","208207","0.0-1.0-110.0","0","0","53042","","null","","","null","12","","","","","","","","","","","","","","","",""
"","ISI","","html-keyboard-response","89","209219","0.0-1.0-111.0","0","0","53042","","null","","","null","12","NaN","","","","","","","","","","","","","","",""
"","S2","","html-keyboard-response","90","209479","0.0-1.0-112.0","0","0","53042","","null","","","null","12","","NaN","","","","","","","","","","","","","",""
"","response","","html-keyboard-response","91","210975","0.0-1.0-113.0-0.0","0","0","53042","","1492","","","68","12","","","1","12","training","adjacent","GF","7","6","L.jpg","O.jpg","1","0","0","",""
"","feedback","","html-keyboard-response","92","211988","0.0-1.0-114.0-0.0","0","0","53042","","null","","","null","12","","","","","","","","","","","","","","","",""
"","time_out","","html-keyboard-response","93","214001","0.0-1.0-116.0-0.0","0","0","53042","","null","","","null","12","","","","","","","","","","","","","","","",""
"","ITI","","html-keyboard-response","94","215015","0.0-1.0-117.0","0","0","53042","","null","","","null","12","","","","","","","","","","","","","","","NaN",""
"","S1","","html-keyboard-response","95","215273","0.0-1.0-119.0","0","0","53042","","null","","","null","13","","","","","","","","","","","","","","","",""
"","ISI","","html-keyboard-response","96","216278","0.0-1.0-120.0","0","0","53042","","null","","","null","13","NaN","","","","","","","","","","","","","","",""
"","S2","","html-keyboard-response","97","216532","0.0-1.0-121.0","0","0","53042","","null","","","null","13","","NaN","","","","","","","","","","","","","",""
"","response","","html-keyboard-response","98","216885","0.0-1.0-122.0-0.0","0","0","53042","","349","","","68","13","","","1","13","training","adjacent","ED","5","4","M.jpg","N.jpg","1","0","0","",""
"","feedback","","html-keyboard-response","99","217891","0.0-1.0-123.0-0.0","0","0","53042","","null","","","null","13","","","","","","","","","","","","","","","",""
"","time_out","","html-keyboard-response","100","219898","0.0-1.0-125.0-0.0","0","0","53042","","null","","","null","13","","","","","","","","","","","","","","","",""
"","ITI","","html-keyboard-response","101","220904","0.0-1.0-126.0","0","0","53042","","null","","","null","13","","","","","","","","","","","","","","","NaN",""
"","S1","","html-keyboard-response","102","221164","0.0-1.0-128.0","0","0","53042","","null","","","null","14","","","","","","","","","","","","","","","",""
"","ISI","","html-keyboard-response","103","222169","0.0-1.0-129.0","0","0","53042","","null","","","null","14","NaN","","","","","","","","","","","","","","",""
"","S2","","html-keyboard-response","104","222423","0.0-1.0-130.0","0","0","53042","","null","","","null","14","","NaN","","","","","","","","","","","","","",""
"","response","","html-keyboard-response","105","222706","0.0-1.0-131.0-0.0","0","0","53042","","281","","","75","14","","","1","14","training","adjacent","GF","7","6","L.jpg","O.jpg","0","0","1","",""
"","feedback","","html-keyboard-response","106","224577","0.0-1.0-132.0-0.0","0","0","53042","","null","","","null","14","","","","","","","","","","","","","","","",""
"","ITI","","html-keyboard-response","107","225596","0.0-1.0-135.0","0","0","53042","","null","","","null","14","","","","","","","","","","","","","","","NaN",""
"","S1","","html-keyboard-response","108","225858","0.0-1.0-137.0","0","0","53042","","null","","","null","15","","","","","","","","","","","","","","","",""
"","ISI","","html-keyboard-response","109","226870","0.0-1.0-138.0","0","0","53042","","null","","","null","15","NaN","","","","","","","","","","","","","","",""
"","S2","","html-keyboard-response","110","227129","0.0-1.0-139.0","0","0","53042","","null","","","null","15","","NaN","","","","","","","","","","","","","",""
"","response","","html-keyboard-response","111","227737","0.0-1.0-140.0-0.0","0","0","53042","","605","","","68","15","","","1","15","training","adjacent","DC","4","3","N.jpg","Q.jpg","1","0","0","",""
"","feedback","","html-keyboard-response","112","228752","0.0-1.0-141.0-0.0","0","0","53042","","null","","","null","15","","","","","","","","","","","","","","","",""
"","time_out","","html-keyboard-response","113","230760","0.0-1.0-143.0-0.0","0","0","53042","","null","","","null","15","","","","","","","","","","","","","","","",""
"","ITI","","html-keyboard-response","114","231779","0.0-1.0-144.0","0","0","53042","","null","","","null","15","","","","","","","","","","","","","","","NaN",""
"","S1","","html-keyboard-response","115","232034","0.0-1.0-146.0","0","0","53042","","null","","","null","16","","","","","","","","","","","","","","","",""
"","ISI","","html-keyboard-response","116","233052","0.0-1.0-147.0","0","0","53042","","null","","","null","16","NaN","","","","","","","","","","","","","","",""
"","S2","","html-keyboard-response","117","233312","0.0-1.0-148.0","0","0","53042","","null","","","null","16","","NaN","","","","","","","","","","","","","",""
"","response","","html-keyboard-response","118","233751","0.0-1.0-149.0-0.0","0","0","53042","","435","","","68","16","","","1","16","training","adjacent","BA","2","1","R.jpg","P.jpg","1","0","0","",""
"","feedback","","html-keyboard-response","119","234765","0.0-1.0-150.0-0.0","0","0","53042","","null","","","null","16","","","","","","","","","","","","","","","",""
"","time_out","","html-keyboard-response","120","236773","0.0-1.0-152.0-0.0","0","0","53042","","null","","","null","16","","","","","","","","","","","","","","","",""
"","ITI","","html-keyboard-response","121","237780","0.0-1.0-153.0","0","0","53042","","null","","","null","16","","","","","","","","","","","","","","","NaN",""
"","S1","","html-keyboard-response","122","238039","0.0-1.0-155.0","0","0","53042","","null","","","null","17","","","","","","","","","","","","","","","",""
"","ISI","","html-keyboard-response","123","239051","0.0-1.0-156.0","0","0","53042","","null","","","null","17","NaN","","","","","","","","","","","","","","",""
"","S2","","html-keyboard-response","124","239312","0.0-1.0-157.0","0","0","53042","","null","","","null","17","","NaN","","","","","","","","","","","","","",""
"","response","","html-keyboard-response","125","239798","0.0-1.0-158.0-0.0","0","0","53042","","483","","","75","17","","","1","17","training","adjacent","BA","2","1","R.jpg","P.jpg","0","0","1","",""
"","feedback","","html-keyboard-response","126","240817","0.0-1.0-159.0-0.0","0","0","53042","","null","","","null","17","","","","","","","","","","","","","","","",""
"","ITI","","html-keyboard-response","127","241826","0.0-1.0-162.0","0","0","53042","","null","","","null","17","","","","","","","","","","","","","","","NaN",""
"","S1","","html-keyboard-response","128","242088","0.0-1.0-164.0","0","0","53042","","null","","","null","18","","","","","","","","","","","","","","","",""
"","ISI","","html-keyboard-response","129","243101","0.0-1.0-165.0","0","0","53042","","null","","","null","18","NaN","","","","","","","","","","","","","","",""
"","S2","","html-keyboard-response","130","243360","0.0-1.0-166.0","0","0","53042","","null","","","null","18","","NaN","","","","","","","","","","","","","",""
"","response","","html-keyboard-response","131","244058","0.0-1.0-167.0-0.0","0","0","53042","","695","","","75","18","","","1","18","training","adjacent","BC","2","3","R.jpg","Q.jpg","0","1","0","",""
"","feedback","","html-keyboard-response","132","245077","0.0-1.0-168.0-0.0","0","0","53042","","null","","","null","18","","","","","","","","","","","","","","","",""
"","time_out","","html-keyboard-response","133","247081","0.0-1.0-170.0-0.0","0","0","53042","","null","","","null","18","","","","","","","","","","","","","","","",""
"","ITI","","html-keyboard-response","134","248087","0.0-1.0-171.0","0","0","53042","","null","","","null","18","","","","","","","","","","","","","","","NaN",""
"","S1","","html-keyboard-response","135","248344","0.0-1.0-173.0","0","0","53042","","null","","","null","19","","","","","","","","","","","","","","","",""
"","ISI","","html-keyboard-response","136","249356","0.0-1.0-174.0","0","0","53042","","null","","","null","19","NaN","","","","","","","","","","","","","","",""
"","S2","","html-keyboard-response","137","249617","0.0-1.0-175.0","0","0","53042","","null","","","null","19","","NaN","","","","","","","","","","","","","",""
"","response","","html-keyboard-response","138","250099","0.0-1.0-176.0-0.0","0","0","53042","","480","","","68","19","","","1","19","training","adjacent","DE","4","5","N.jpg","M.jpg","1","1","1","",""
"","feedback","","html-keyboard-response","139","251117","0.0-1.0-177.0-0.0","0","0","53042","","null","","","null","19","","","","","","","","","","","","","","","",""
"","ITI","","html-keyboard-response","140","252128","0.0-1.0-180.0","0","0","53042","","null","","","null","19","","","","","","","","","","","","","","","NaN",""
"","S1","","html-keyboard-response","141","252386","0.0-1.0-182.0","0","0","53042","","null","","","null","20","","","","","","","","","","","","","","","",""
"","ISI","","html-keyboard-response","142","253394","0.0-1.0-183.0","0","0","53042","","null","","","null","20","NaN","","","","","","","","","","","","","","",""
"","S2","","html-keyboard-response","143","253659","0.0-1.0-184.0","0","0","53042","","null","","","null","20","","NaN","","","","","","","","","","","","","",""
"","response","","html-keyboard-response","144","254029","0.0-1.0-185.0-0.0","0","0","53042","","368","","","68","20","","","1","20","training","adjacent","CB","3","2","Q.jpg","R.jpg","1","0","0","",""
"","feedback","","html-keyboard-response","145","255644","0.0-1.0-186.0-0.0","0","0","53042","","null","","","null","20","","","","","","","","","","","","","","","",""
"","time_out","","html-keyboard-response","146","257658","0.0-1.0-188.0-0.0","0","0","53042","","null","","","null","20","","","","","","","","","","","","","","","",""
"","ITI","","html-keyboard-response","147","258667","0.0-1.0-189.0","0","0","53042","","null","","","null","20","","","","","","","","","","","","","","","NaN",""
"","S1","","html-keyboard-response","148","258931","0.0-1.0-191.0","0","0","53042","","null","","","null","21","","","","","","","","","","","","","","","",""
"","ISI","","html-keyboard-response","149","259946","0.0-1.0-192.0","0","0","53042","","null","","","null","21","NaN","","","","","","","","","","","","","","",""
"","S2","","html-keyboard-response","150","260209","0.0-1.0-193.0","0","0","53042","","null","","","null","21","","NaN","","","","","","","","","","","","","",""
"","response","","html-keyboard-response","151","260621","0.0-1.0-194.0-0.0","0","0","53042","","407","","","68","21","","","1","21","training","adjacent","FE","6","5","O.jpg","M.jpg","1","0","0","",""
"","feedback","","html-keyboard-response","152","261626","0.0-1.0-195.0-0.0","0","0","53042","","null","","","null","21","","","","","","","","","","","","","","","",""
"","time_out","","html-keyboard-response","153","263642","0.0-1.0-197.0-0.0","0","0","53042","","null","","","null","21","","","","","","","","","","","","","","","",""
"","ITI","","html-keyboard-response","154","264647","0.0-1.0-198.0","0","0","53042","","null","","","null","21","","","","","","","","","","","","","","","NaN",""
"","S1","","html-keyboard-response","155","264908","0.0-1.0-200.0","0","0","53042","","null","","","null","22","","","","","","","","","","","","","","","",""
"","ISI","","html-keyboard-response","156","265914","0.0-1.0-201.0","0","0","53042","","null","","","null","22","NaN","","","","","","","","","","","","","","",""
"","S2","","html-keyboard-response","157","266168","0.0-1.0-202.0","0","0","53042","","null","","","null","22","","NaN","","","","","","","","","","","","","",""
"","response","","html-keyboard-response","158","267313","0.0-1.0-203.0-0.0","0","0","53042","","1142","","","68","22","","","1","22","training","adjacent","EF","5","6","M.jpg","O.jpg","1","1","1","",""
"","feedback","","html-keyboard-response","159","268324","0.0-1.0-204.0-0.0","0","0","53042","","null","","","null","22","","","","","","","","","","","","","","","",""
"","ITI","","html-keyboard-response","160","269339","0.0-1.0-207.0","0","0","53042","","null","","","null","22","","","","","","","","","","","","","","","NaN",""
"","S1","","html-keyboard-response","161","269600","0.0-1.0-209.0","0","0","53042","","null","","","null","23","","","","","","","","","","","","","","","",""
"","ISI","","html-keyboard-response","162","270923","0.0-1.0-210.0","0","0","53042","","null","","","null","23","NaN","","","","","","","","","","","","","","",""
"","S2","","html-keyboard-response","163","271194","0.0-1.0-211.0","0","0","53042","","null","","","null","23","","NaN","","","","","","","","","","","","","",""
"","response","","html-keyboard-response","164","271909","0.0-1.0-212.0-0.0","0","0","53042","","709","","","68","23","","","1","23","training","adjacent","CD","3","4","Q.jpg","N.jpg","1","1","1","",""
"","feedback","","html-keyboard-response","165","272923","0.0-1.0-213.0-0.0","0","0","53042","","null","","","null","23","","","","","","","","","","","","","","","",""
"","ITI","","html-keyboard-response","166","273940","0.0-1.0-216.0","0","0","53042","","null","","","null","23","","","","","","","","","","","","","","","NaN",""
"","S1","","html-keyboard-response","167","274198","0.0-1.0-218.0","0","0","53042","","null","","","null","24","","","","","","","","","","","","","","","",""
"","ISI","","html-keyboard-response","168","275216","0.0-1.0-219.0","0","0","53042","","null","","","null","24","NaN","","","","","","","","","","","","","","",""
"","S2","","html-keyboard-response","169","275478","0.0-1.0-220.0","0","0","53042","","null","","","null","24","","NaN","","","","","","","","","","","","","",""
"","response","","html-keyboard-response","170","276237","0.0-1.0-221.0-0.0","0","0","53042","","756","","","68","24","","","1","24","training","adjacent","FG","6","7","O.jpg","L.jpg","1","1","1","",""
"","feedback","","html-keyboard-response","171","277252","0.0-1.0-222.0-0.0","0","0","53042","","null","","","null","24","","","","","","","","","","","","","","","",""
"","ITI","","html-keyboard-response","172","278268","0.0-1.0-225.0","0","0","53042","","null","","","null","24","","","","","","","","","","","","","","","NaN",""
"","S1","","html-keyboard-response","173","278523","0.0-1.0-227.0","0","0","53042","","null","","","null","25","","","","","","","","","","","","","","","",""
"","ISI","","html-keyboard-response","174","279535","0.0-1.0-228.0","0","0","53042","","null","","","null","25","NaN","","","","","","","","","","","","","","",""
"","S2","","html-keyboard-response","175","279799","0.0-1.0-229.0","0","0","53042","","null","","","null","25","","NaN","","","","","","","","","","","","","",""
"","response","","html-keyboard-response","176","280558","0.0-1.0-230.0-0.0","0","0","53042","","757","","","68","25","","","1","25","training","adjacent","DC","4","3","N.jpg","Q.jpg","1","0","0","",""
"","feedback","","html-keyboard-response","177","281564","0.0-1.0-231.0-0.0","0","0","53042","","null","","","null","25","","","","","","","","","","","","","","","",""
"","time_out","","html-keyboard-response","178","283581","0.0-1.0-233.0-0.0","0","0","53042","","null","","","null","25","","","","","","","","","","","","","","","",""
"","ITI","","html-keyboard-response","179","285305","0.0-1.0-234.0","0","0","53042","","null","","","null","25","","","","","","","","","","","","","","","NaN",""
"","S1","","html-keyboard-response","180","285570","0.0-1.0-236.0","0","0","53042","","null","","","null","26","","","","","","","","","","","","","","","",""
"","ISI","","html-keyboard-response","181","286585","0.0-1.0-237.0","0","0","53042","","null","","","null","26","NaN","","","","","","","","","","","","","","",""
"","S2","","html-keyboard-response","182","286856","0.0-1.0-238.0","0","0","53042","","null","","","null","26","","NaN","","","","","","","","","","","","","",""
"","response","","html-keyboard-response","183","287246","0.0-1.0-239.0-0.0","0","0","53042","","385","","","68","26","","","1","26","training","adjacent","FE","6","5","O.jpg","M.jpg","1","0","0","",""
"","feedback","","html-keyboard-response","184","288263","0.0-1.0-240.0-0.0","0","0","53042","","null","","","null","26","","","","","","","","","","","","","","","",""
"","time_out","","html-keyboard-response","185","290277","0.0-1.0-242.0-0.0","0","0","53042","","null","","","null","26","","","","","","","","","","","","","","","",""
"","ITI","","html-keyboard-response","186","291282","0.0-1.0-243.0","0","0","53042","","null","","","null","26","","","","","","","","","","","","","","","NaN",""
"","S1","","html-keyboard-response","187","291547","0.0-1.0-245.0","0","0","53042","","null","","","null","27","","","","","","","","","","","","","","","",""
"","ISI","","html-keyboard-response","188","292563","0.0-1.0-246.0","0","0","53042","","null","","","null","27","NaN","","","","","","","","","","","","","","",""
"","S2","","html-keyboard-response","189","292829","0.0-1.0-247.0","0","0","53042","","null","","","null","27","","NaN","","","","","","","","","","","","","",""
"","response","","html-keyboard-response","190","293230","0.0-1.0-248.0-0.0","0","0","53042","","397","","","75","27","","","1","27","training","adjacent","DC","4","3","N.jpg","Q.jpg","0","0","1","",""
"","feedback","","html-keyboard-response","191","294241","0.0-1.0-249.0-0.0","0","0","53042","","null","","","null","27","","","","","","","","","","","","","","","",""
"","ITI","","html-keyboard-response","192","295817","0.0-1.0-252.0","0","0","53042","","null","","","null","27","","","","","","","","","","","","","","","NaN",""
"","S1","","html-keyboard-response","193","296086","0.0-1.0-254.0","0","0","53042","","null","","","null","28","","","","","","","","","","","","","","","",""
"","ISI","","html-keyboard-response","194","297093","0.0-1.0-255.0","0","0","53042","","null","","","null","28","NaN","","","","","","","","","","","","","","",""
"","S2","","html-keyboard-response","195","297362","0.0-1.0-256.0","0","0","53042","","null","","","null","28","","NaN","","","","","","","","","","","","","",""
"","response","","html-keyboard-response","196","298403","0.0-1.0-257.0-0.0","0","0","53042","","1036","","","68","28","","","1","28","training","adjacent","FG","6","7","O.jpg","L.jpg","1","1","1","",""
"","feedback","","html-keyboard-response","197","299408","0.0-1.0-258.0-0.0","0","0","53042","","null","","","null","28","","","","","","","","","","","","","","","",""
"","ITI","","html-keyboard-response","198","300410","0.0-1.0-261.0","0","0","53042","","null","","","null","28","","","","","","","","","","","","","","","NaN",""
"","S1","","html-keyboard-response","199","300680","0.0-1.0-263.0","0","0","53042","","null","","","null","29","","","","","","","","","","","","","","","",""
"","ISI","","html-keyboard-response","200","301687","0.0-1.0-264.0","0","0","53042","","null","","","null","29","NaN","","","","","","","","","","","","","","",""
"","S2","","html-keyboard-response","201","301946","0.0-1.0-265.0","0","0","53042","","null","","","null","29","","NaN","","","","","","","","","","","","","",""
"","response","","html-keyboard-response","202","303003","0.0-1.0-266.0-0.0","0","0","53042","","1052","","","68","29","","","1","29","training","adjacent","DE","4","5","N.jpg","M.jpg","1","1","1","",""
"","feedback","","html-keyboard-response","203","304014","0.0-1.0-267.0-0.0","0","0","53042","","null","","","null","29","","","","","","","","","","","","","","","",""
"","ITI","","html-keyboard-response","204","305036","0.0-1.0-270.0","0","0","53042","","null","","","null","29","","","","","","","","","","","","","","","NaN",""
"","S1","","html-keyboard-response","205","305291","0.0-1.0-272.0","0","0","53042","","null","","","null","30","","","","","","","","","","","","","","","",""
"","ISI","","html-keyboard-response","206","306300","0.0-1.0-273.0","0","0","53042","","null","","","null","30","NaN","","","","","","","","","","","","","","",""
"","S2","","html-keyboard-response","207","306568","0.0-1.0-274.0","0","0","53042","","null","","","null","30","","NaN","","","","","","","","","","","","","",""
"","response","","html-keyboard-response","208","307180","0.0-1.0-275.0-0.0","0","0","53042","","609","","","68","30","","","1","30","training","adjacent","AB","1","2","P.jpg","R.jpg","1","1","1","",""
"","feedback","","html-keyboard-response","209","308195","0.0-1.0-276.0-0.0","0","0","53042","","null","","","null","30","","","","","","","","","","","","","","","",""
"","ITI","","html-keyboard-response","210","309213","0.0-1.0-279.0","0","0","53042","","null","","","null","30","","","","","","","","","","","","","","","NaN",""
"","S1","","html-keyboard-response","211","309477","0.0-1.0-281.0","0","0","53042","","null","","","null","31","","","","","","","","","","","","","","","",""
"","ISI","","html-keyboard-response","212","310489","0.0-1.0-282.0","0","0","53042","","null","","","null","31","NaN","","","","","","","","","","","","","","",""
"","S2","","html-keyboard-response","213","310756","0.0-1.0-283.0","0","0","53042","","null","","","null","31","","NaN","","","","","","","","","","","","","",""
"","response","","html-keyboard-response","214","311065","0.0-1.0-284.0-0.0","0","0","53042","","305","","","75","31","","","1","31","training","adjacent","GF","7","6","L.jpg","O.jpg","0","0","1","",""
"","feedback","","html-keyboard-response","215","312079","0.0-1.0-285.0-0.0","0","0","53042","","null","","","null","31","","","","","","","","","","","","","","","",""
"","ITI","","html-keyboard-response","216","313084","0.0-1.0-288.0","0","0","53042","","null","","","null","31","","","","","","","","","","","","","","","NaN",""
"","S1","","html-keyboard-response","217","313340","0.0-1.0-290.0","0","0","53042","","null","","","null","32","","","","","","","","","","","","","","","",""
"","ISI","","html-keyboard-response","218","314349","0.0-1.0-291.0","0","0","53042","","null","","","null","32","NaN","","","","","","","","","","","","","","",""
"","S2","","html-keyboard-response","219","314608","0.0-1.0-292.0","0","0","53042","","null","","","null","32","","NaN","","","","","","","","","","","","","",""
"","response","","html-keyboard-response","220","315054","0.0-1.0-293.0-0.0","0","0","53042","","441","","","75","32","","","1","32","training","adjacent","CB","3","2","Q.jpg","R.jpg","0","0","1","",""
"","feedback","","html-keyboard-response","221","316559","0.0-1.0-294.0-0.0","0","0","53042","","null","","","null","32","","","","","","","","","","","","","","","",""
"","ITI","","html-keyboard-response","222","317581","0.0-1.0-297.0","0","0","53042","","null","","","null","32","","","","","","","","","","","","","","","NaN",""
"","S1","","html-keyboard-response","223","317840","0.0-1.0-299.0","0","0","53042","","null","","","null","33","","","","","","","","","","","","","","","",""
"","ISI","","html-keyboard-response","224","318849","0.0-1.0-300.0","0","0","53042","","null","","","null","33","NaN","","","","","","","","","","","","","","",""
"","S2","","html-keyboard-response","225","319106","0.0-1.0-301.0","0","0","53042","","null","","","null","33","","NaN","","","","","","","","","","","","","",""
"","response","","html-keyboard-response","226","319535","0.0-1.0-302.0-0.0","0","0","53042","","425","","","68","33","","","1","33","training","adjacent","BC","2","3","R.jpg","Q.jpg","1","1","1","",""
"","feedback","","html-keyboard-response","227","320542","0.0-1.0-303.0-0.0","0","0","53042","","null","","","null","33","","","","","","","","","","","","","","","",""
"","ITI","","html-keyboard-response","228","321557","0.0-1.0-306.0","0","0","53042","","null","","","null","33","","","","","","","","","","","","","","","NaN",""
"","S1","","html-keyboard-response","229","321822","0.0-1.0-308.0","0","0","53042","","null","","","null","34","","","","","","","","","","","","","","","",""
"","ISI","","html-keyboard-response","230","322836","0.0-1.0-309.0","0","0","53042","","null","","","null","34","NaN","","","","","","","","","","","","","","",""
"","S2","","html-keyboard-response","231","323101","0.0-1.0-310.0","0","0","53042","","null","","","null","34","","NaN","","","","","","","","","","","","","",""
"","response","","html-keyboard-response","232","323882","0.0-1.0-311.0-0.0","0","0","53042","","777","","","68","34","","","1","34","training","adjacent","DC","4","3","N.jpg","Q.jpg","1","0","0","",""
"","feedback","","html-keyboard-response","233","324902","0.0-1.0-312.0-0.0","0","0","53042","","null","","","null","34","","","","","","","","","","","","","","","",""
"","time_out","","html-keyboard-response","234","326915","0.0-1.0-314.0-0.0","0","0","53042","","null","","","null","34","","","","","","","","","","","","","","","",""
"","ITI","","html-keyboard-response","235","327931","0.0-1.0-315.0","0","0","53042","","null","","","null","34","","","","","","","","","","","","","","","NaN",""
"","S1","","html-keyboard-response","236","328190","0.0-1.0-317.0","0","0","53042","","null","","","null","35","","","","","","","","","","","","","","","",""
"","ISI","","html-keyboard-response","237","329200","0.0-1.0-318.0","0","0","53042","","null","","","null","35","NaN","","","","","","","","","","","","","","",""
"","S2","","html-keyboard-response","238","329464","0.0-1.0-319.0","0","0","53042","","null","","","null","35","","NaN","","","","","","","","","","","","","",""
"","response","","html-keyboard-response","239","329952","0.0-1.0-320.0-0.0","0","0","53042","","485","","","75","35","","","1","35","training","adjacent","GF","7","6","L.jpg","O.jpg","0","0","1","",""
"","feedback","","html-keyboard-response","240","331166","0.0-1.0-321.0-0.0","0","0","53042","","null","","","null","35","","","","","","","","","","","","","","","",""
"","ITI","","html-keyboard-response","241","332185","0.0-1.0-324.0","0","0","53042","","null","","","null","35","","","","","","","","","","","","","","","NaN",""
"","S1","","html-keyboard-response","242","332451","0.0-1.0-326.0","0","0","53042","","null","","","null","36","","","","","","","","","","","","","","","",""
"","ISI","","html-keyboard-response","243","333461","0.0-1.0-327.0","0","0","53042","","null","","","null","36","NaN","","","","","","","","","","","","","","",""
"","S2","","html-keyboard-response","244","333717","0.0-1.0-328.0","0","0","53042","","null","","","null","36","","NaN","","","","","","","","","","","","","",""
"","response","","html-keyboard-response","245","333993","0.0-1.0-329.0-0.0","0","0","53042","","273","","","68","36","","","1","36","training","adjacent","FE","6","5","O.jpg","M.jpg","1","0","0","",""
"","feedback","","html-keyboard-response","246","335012","0.0-1.0-330.0-0.0","0","0","53042","","null","","","null","36","","","","","","","","","","","","","","","",""
"","time_out","","html-keyboard-response","247","337023","0.0-1.0-332.0-0.0","0","0","53042","","null","","","null","36","","","","","","","","","","","","","","","",""
"","ITI","","html-keyboard-response","248","338036","0.0-1.0-333.0","0","0","53042","","null","","","null","36","","","","","","","","","","","","","","","NaN",""
"","S1","","html-keyboard-response","249","338303","0.0-1.0-335.0","0","0","53042","","null","","","null","37","","","","","","","","","","","","","","","",""
"","ISI","","html-keyboard-response","250","339306","0.0-1.0-336.0","0","0","53042","","null","","","null","37","NaN","","","","","","","","","","","","","","",""
"","S2","","html-keyboard-response","251","339566","0.0-1.0-337.0","0","0","53042","","null","","","null","37","","NaN","","","","","","","","","","","","","",""
"","response","","html-keyboard-response","252","340059","0.0-1.0-338.0-0.0","0","0","53042","","488","","","75","37","","","1","37","training","adjacent","EF","5","6","M.jpg","O.jpg","0","1","0","",""
"","feedback","","html-keyboard-response","253","341074","0.0-1.0-339.0-0.0","0","0","53042","","null","","","null","37","","","","","","","","","","","","","","","",""
"","time_out","","html-keyboard-response","254","343085","0.0-1.0-341.0-0.0","0","0","53042","","null","","","null","37","","","","","","","","","","","","","","","",""
"","ITI","","html-keyboard-response","255","344092","0.0-1.0-342.0","0","0","53042","","null","","","null","37","","","","","","","","","","","","","","","NaN",""
"","S1","","html-keyboard-response","256","344364","0.0-1.0-344.0","0","0","53042","","null","","","null","38","","","","","","","","","","","","","","","",""
"","ISI","","html-keyboard-response","257","345373","0.0-1.0-345.0","0","0","53042","","null","","","null","38","NaN","","","","","","","","","","","","","","",""
"","S2","","html-keyboard-response","258","345645","0.0-1.0-346.0","0","0","53042","","null","","","null","38","","NaN","","","","","","","","","","","","","",""
"","response","","html-keyboard-response","259","346175","0.0-1.0-347.0-0.0","0","0","53042","","523","","","68","38","","","1","38","training","adjacent","BA","2","1","R.jpg","P.jpg","1","0","0","",""
"","feedback","","html-keyboard-response","260","347187","0.0-1.0-348.0-0.0","0","0","53042","","null","","","null","38","","","","","","","","","","","","","","","",""
"","time_out","","html-keyboard-response","261","349202","0.0-1.0-350.0-0.0","0","0","53042","","null","","","null","38","","","","","","","","","","","","","","","",""
"","ITI","","html-keyboard-response","262","350213","0.0-1.0-351.0","0","0","53042","","null","","","null","38","","","","","","","","","","","","","","","NaN",""
"","S1","","html-keyboard-response","263","350481","0.0-1.0-353.0","0","0","53042","","null","","","null","39","","","","","","","","","","","","","","","",""
"","ISI","","html-keyboard-response","264","351491","0.0-1.0-354.0","0","0","53042","","null","","","null","39","NaN","","","","","","","","","","","","","","",""
"","S2","","html-keyboard-response","265","351755","0.0-1.0-355.0","0","0","53042","","null","","","null","39","","NaN","","","","","","","","","","","","","",""
"","response","","html-keyboard-response","266","352471","0.0-1.0-356.0-0.0","0","0","53042","","710","","","75","39","","","1","39","training","adjacent","DE","4","5","N.jpg","M.jpg","0","1","0","",""
"","feedback","","html-keyboard-response","267","353484","0.0-1.0-357.0-0.0","0","0","53042","","null","","","null","39","","","","","","","","","","","","","","","",""
"","time_out","","html-keyboard-response","268","355492","0.0-1.0-359.0-0.0","0","0","53042","","null","","","null","39","","","","","","","","","","","","","","","",""
"","ITI","","html-keyboard-response","269","356509","0.0-1.0-360.0","0","0","53042","","null","","","null","39","","","","","","","","","","","","","","","NaN",""
"","S1","","html-keyboard-response","270","356770","0.0-1.0-362.0","0","0","53042","","null","","","null","40","","","","","","","","","","","","","","","",""
"","ISI","","html-keyboard-response","271","358066","0.0-1.0-363.0","0","0","53042","","null","","","null","40","NaN","","","","","","","","","","","","","","",""
"","S2","","html-keyboard-response","272","358334","0.0-1.0-364.0","0","0","53042","","null","","","null","40","","NaN","","","","","","","","","","","","","",""
"","response","","html-keyboard-response","273","358970","0.0-1.0-365.0-0.0","0","0","53042","","628","","","75","40","","","1","40","training","adjacent","CB","3","2","Q.jpg","R.jpg","0","0","1","",""
"","feedback","","html-keyboard-response","274","359979","0.0-1.0-366.0-0.0","0","0","53042","","null","","","null","40","","","","","","","","","","","","","","","",""
"","ITI","","html-keyboard-response","275","360995","0.0-1.0-369.0","0","0","53042","","null","","","null","40","","","","","","","","","","","","","","","NaN",""
"","S1","","html-keyboard-response","276","361257","0.0-1.0-371.0","0","0","53042","","null","","","null","41","","","","","","","","","","","","","","","",""
"","ISI","","html-keyboard-response","277","362263","0.0-1.0-372.0","0","0","53042","","null","","","null","41","NaN","","","","","","","","","","","","","","",""
"","S2","","html-keyboard-response","278","362520","0.0-1.0-373.0","0","0","53042","","null","","","null","41","","NaN","","","","","","","","","","","","","",""
"","response","","html-keyboard-response","279","363259","0.0-1.0-374.0-0.0","0","0","53042","","736","","","75","41","","","1","41","training","adjacent","BC","2","3","R.jpg","Q.jpg","0","1","0","",""
"","feedback","","html-keyboard-response","280","364267","0.0-1.0-375.0-0.0","0","0","53042","","null","","","null","41","","","","","","","","","","","","","","","",""
"","time_out","","html-keyboard-response","281","366279","0.0-1.0-377.0-0.0","0","0","53042","","null","","","null","41","","","","","","","","","","","","","","","",""
"","ITI","","html-keyboard-response","282","367286","0.0-1.0-378.0","0","0","53042","","null","","","null","41","","","","","","","","","","","","","","","NaN",""
"","S1","","html-keyboard-response","283","367544","0.0-1.0-380.0","0","0","53042","","null","","","null","42","","","","","","","","","","","","","","","",""
"","ISI","","html-keyboard-response","284","368549","0.0-1.0-381.0","0","0","53042","","null","","","null","42","NaN","","","","","","","","","","","","","","",""
"","S2","","html-keyboard-response","285","368813","0.0-1.0-382.0","0","0","53042","","null","","","null","42","","NaN","","","","","","","","","","","","","",""
"","response","","html-keyboard-response","286","369418","0.0-1.0-383.0-0.0","0","0","53042","","601","","","75","42","","","1","42","training","adjacent","EF","5","6","M.jpg","O.jpg","0","1","0","",""
"","feedback","","html-keyboard-response","287","370428","0.0-1.0-384.0-0.0","0","0","53042","","null","","","null","42","","","","","","","","","","","","","","","",""
"","time_out","","html-keyboard-response","288","372435","0.0-1.0-386.0-0.0","0","0","53042","","null","","","null","42","","","","","","","","","","","","","","","",""
"","ITI","","html-keyboard-response","289","373442","0.0-1.0-387.0","0","0","53042","","null","","","null","42","","","","","","","","","","","","","","","NaN",""
"","S1","","html-keyboard-response","290","373698","0.0-1.0-389.0","0","0","53042","","null","","","null","43","","","","","","","","","","","","","","","",""
"","ISI","","html-keyboard-response","291","374706","0.0-1.0-390.0","0","0","53042","","null","","","null","43","NaN","","","","","","","","","","","","","","",""
"","S2","","html-keyboard-response","292","374971","0.0-1.0-391.0","0","0","53042","","null","","","null","43","","NaN","","","","","","","","","","","","","",""
"","response","","html-keyboard-response","293","375137","0.0-1.0-392.0-0.0","0","0","53042","","161","","","68","43","","","1","43","training","adjacent","FG","6","7","O.jpg","L.jpg","1","1","1","",""
"","feedback","","html-keyboard-response","294","376152","0.0-1.0-393.0-0.0","0","0","53042","","null","","","null","43","","","","","","","","","","","","","","","",""
"","ITI","","html-keyboard-response","295","377317","0.0-1.0-396.0","0","0","53042","","null","","","null","43","","","","","","","","","","","","","","","NaN",""
"","S1","","html-keyboard-response","296","377580","0.0-1.0-398.0","0","0","53042","","null","","","null","44","","","","","","","","","","","","","","","",""
"","ISI","","html-keyboard-response","297","378587","0.0-1.0-399.0","0","0","53042","","null","","","null","44","NaN","","","","","","","","","","","","","","",""
"","S2","","html-keyboard-response","298","378854","0.0-1.0-400.0","0","0","53042","","null","","","null","44","","NaN","","","","","","","","","","","","","",""
"","response","","html-keyboard-response","299","379504","0.0-1.0-401.0-0.0","0","0","53042","","646","","","68","44","","","1","44","training","adjacent","AB","1","2","P.jpg","R.jpg","1","1","1","",""
"","feedback","","html-keyboard-response","300","380511","0.0-1.0-402.0-0.0","0","0","53042","","null","","","null","44","","","","","","","","","","","","","","","",""
"","ITI","","html-keyboard-response","301","381518","0.0-1.0-405.0","0","0","53042","","null","","","null","44","","","","","","","","","","","","","","","NaN",""
"","S1","","html-keyboard-response","302","381773","0.0-1.0-407.0","0","0","53042","","null","","","null","45","","","","","","","","","","","","","","","",""
"","ISI","","html-keyboard-response","303","382791","0.0-1.0-408.0","0","0","53042","","null","","","null","45","NaN","","","","","","","","","","","","","","",""
"","S2","","html-keyboard-response","304","383051","0.0-1.0-409.0","0","0","53042","","null","","","null","45","","NaN","","","","","","","","","","","","","",""
"","response","","html-keyboard-response","305","383497","0.0-1.0-410.0-0.0","0","0","53042","","442","","","68","45","","","1","45","training","adjacent","DE","4","5","N.jpg","M.jpg","1","1","1","",""
"","feedback","","html-keyboard-response","306","384516","0.0-1.0-411.0-0.0","0","0","53042","","null","","","null","45","","","","","","","","","","","","","","","",""
"","ITI","","html-keyboard-response","307","385528","0.0-1.0-414.0","0","0","53042","","null","","","null","45","","","","","","","","","","","","","","","NaN",""
"","S1","","html-keyboard-response","308","385791","0.0-1.0-416.0","0","0","53042","","null","","","null","46","","","","","","","","","","","","","","","",""
"","ISI","","html-keyboard-response","309","386800","0.0-1.0-417.0","0","0","53042","","null","","","null","46","NaN","","","","","","","","","","","","","","",""
"","S2","","html-keyboard-response","310","387069","0.0-1.0-418.0","0","0","53042","","null","","","null","46","","NaN","","","","","","","","","","","","","",""
"","response","","html-keyboard-response","311","387387","0.0-1.0-419.0-0.0","0","0","53042","","314","","","68","46","","","1","46","training","adjacent","FE","6","5","O.jpg","M.jpg","1","0","0","",""
"","feedback","","html-keyboard-response","312","388403","0.0-1.0-420.0-0.0","0","0","53042","","null","","","null","46","","","","","","","","","","","","","","","",""
"","time_out","","html-keyboard-response","313","390408","0.0-1.0-422.0-0.0","0","0","53042","","null","","","null","46","","","","","","","","","","","","","","","",""
"","ITI","","html-keyboard-response","314","391411","0.0-1.0-423.0","0","0","53042","","null","","","null","46","","","","","","","","","","","","","","","NaN",""
"","S1","","html-keyboard-response","315","391666","0.0-1.0-425.0","0","0","53042","","null","","","null","47","","","","","","","","","","","","","","","",""
"","ISI","","html-keyboard-response","316","392679","0.0-1.0-426.0","0","0","53042","","null","","","null","47","NaN","","","","","","","","","","","","","","",""
"","S2","","html-keyboard-response","317","392938","0.0-1.0-427.0","0","0","53042","","null","","","null","47","","NaN","","","","","","","","","","","","","",""
"","response","","html-keyboard-response","318","393840","0.0-1.0-428.0-0.0","0","0","53042","","899","","","68","47","","","1","47","training","adjacent","CD","3","4","Q.jpg","N.jpg","1","1","1","",""
"","feedback","","html-keyboard-response","319","394856","0.0-1.0-429.0-0.0","0","0","53042","","null","","","null","47","","","","","","","","","","","","","","","",""
"","ITI","","html-keyboard-response","320","395873","0.0-1.0-432.0","0","0","53042","","null","","","null","47","","","","","","","","","","","","","","","NaN",""
"","block_over","","html-keyboard-response","321","520077","0.0-1.0-433.0-0.0","0","0","53042","","124197","","","32","47","","","","","","","","","","","","","","","",""
"","S1","","html-keyboard-response","322","520340","0.0-1.0-434.0","0","0","53042","","null","","","null","48","","","","","","","","","","","","","","","",""
"","ISI","","html-keyboard-response","323","521344","0.0-1.0-435.0","0","0","53042","","null","","","null","48","NaN","","","","","","","","","","","","","","",""
"","S2","","html-keyboard-response","324","521603","0.0-1.0-436.0","0","0","53042","","null","","","null","48","","NaN","","","","","","","","","","","","","",""
"","response","","html-keyboard-response","325","522392","0.0-1.0-437.0-0.0","0","0","53042","","784","","","75","48","","","2","48","training","adjacent","BA","2","1","R.jpg","P.jpg","0","0","1","",""
"","feedback","","html-keyboard-response","326","523413","0.0-1.0-438.0-0.0","0","0","53042","","null","","","null","48","","","","","","","","","","","","","","","",""
"","ITI","","html-keyboard-response","327","524430","0.0-1.0-441.0","0","0","53042","","null","","","null","48","","","","","","","","","","","","","","","NaN",""
"","S1","","html-keyboard-response","328","524695","0.0-1.0-443.0","0","0","53042","","null","","","null","49","","","","","","","","","","","","","","","",""
"","ISI","","html-keyboard-response","329","525706","0.0-1.0-444.0","0","0","53042","","null","","","null","49","NaN","","","","","","","","","","","","","","",""
"","S2","","html-keyboard-response","330","525963","0.0-1.0-445.0","0","0","53042","","null","","","null","49","","NaN","","","","","","","","","","","","","",""
"","response","","html-keyboard-response","331","526428","0.0-1.0-446.0-0.0","0","0","53042","","460","","","68","49","","","2","49","training","adjacent","AB","1","2","P.jpg","R.jpg","1","1","1","",""
"","feedback","","html-keyboard-response","332","527442","0.0-1.0-447.0-0.0","0","0","53042","","null","","","null","49","","","","","","","","","","","","","","","",""
"","ITI","","html-keyboard-response","333","528461","0.0-1.0-450.0","0","0","53042","","null","","","null","49","","","","","","","","","","","","","","","NaN",""
"","S1","","html-keyboard-response","334","528716","0.0-1.0-452.0","0","0","53042","","null","","","null","50","","","","","","","","","","","","","","","",""
"","ISI","","html-keyboard-response","335","529721","0.0-1.0-453.0","0","0","53042","","null","","","null","50","NaN","","","","","","","","","","","","","","",""
"","S2","","html-keyboard-response","336","529978","0.0-1.0-454.0","0","0","53042","","null","","","null","50","","NaN","","","","","","","","","","","","","",""
"","response","","html-keyboard-response","337","530405","0.0-1.0-455.0-0.0","0","0","53042","","424","","","75","50","","","2","50","training","adjacent","EF","5","6","M.jpg","O.jpg","0","1","0","",""
"","feedback","","html-keyboard-response","338","531410","0.0-1.0-456.0-0.0","0","0","53042","","null","","","null","50","","","","","","","","","","","","","","","",""
"","time_out","","html-keyboard-response","339","533418","0.0-1.0-458.0-0.0","0","0","53042","","null","","","null","50","","","","","","","","","","","","","","","",""
"","ITI","","html-keyboard-response","340","534422","0.0-1.0-459.0","0","0","53042","","null","","","null","50","","","","","","","","","","","","","","","NaN",""
"","S1","","html-keyboard-response","341","534679","0.0-1.0-461.0","0","0","53042","","null","","","null","51","","","","","","","","","","","","","","","",""
"","ISI","","html-keyboard-response","342","535683","0.0-1.0-462.0","0","0","53042","","null","","","null","51","NaN","","","","","","","","","","","","","","",""
"","S2","","html-keyboard-response","343","535949","0.0-1.0-463.0","0","0","53042","","null","","","null","51","","NaN","","","","","","","","","","","","","",""
"","response","","html-keyboard-response","344","536619","0.0-1.0-464.0-0.0","0","0","53042","","665","","","75","51","","","2","51","training","adjacent","FE","6","5","O.jpg","M.jpg","0","0","1","",""
"","feedback","","html-keyboard-response","345","537626","0.0-1.0-465.0-0.0","0","0","53042","","null","","","null","51","","","","","","","","","","","","","","","",""
"","ITI","","html-keyboard-response","346","538640","0.0-1.0-468.0","0","0","53042","","null","","","null","51","","","","","","","","","","","","","","","NaN",""
"","S1","","html-keyboard-response","347","538907","0.0-1.0-470.0","0","0","53042","","null","","","null","52","","","","","","","","","","","","","","","",""
"","ISI","","html-keyboard-response","348","539920","0.0-1.0-471.0","0","0","53042","","null","","","null","52","NaN","","","","","","","","","","","","","","",""
"","S2","","html-keyboard-response","349","540176","0.0-1.0-472.0","0","0","53042","","null","","","null","52","","NaN","","","","","","","","","","","","","",""
"","response","","html-keyboard-response","350","540543","0.0-1.0-473.0-0.0","0","0","53042","","363","","","68","52","","","2","52","training","adjacent","FG","6","7","O.jpg","L.jpg","1","1","1","",""
"","feedback","","html-keyboard-response","351","541558","0.0-1.0-474.0-0.0","0","0","53042","","null","","","null","52","","","","","","","","","","","","","","","",""
"","ITI","","html-keyboard-response","352","542575","0.0-1.0-477.0","0","0","53042","","null","","","null","52","","","","","","","","","","","","","","","NaN",""
"","S1","","html-keyboard-response","353","542830","0.0-1.0-479.0","0","0","53042","","null","","","null","53","","","","","","","","","","","","","","","",""
"","ISI","","html-keyboard-response","354","543836","0.0-1.0-480.0","0","0","53042","","null","","","null","53","NaN","","","","","","","","","","","","","","",""
"","S2","","html-keyboard-response","355","544102","0.0-1.0-481.0","0","0","53042","","null","","","null","53","","NaN","","","","","","","","","","","","","",""
"","response","","html-keyboard-response","356","544762","0.0-1.0-482.0-0.0","0","0","53042","","655","","","68","53","","","2","53","training","adjacent","DE","4","5","N.jpg","M.jpg","1","1","1","",""
"","feedback","","html-keyboard-response","357","545782","0.0-1.0-483.0-0.0","0","0","53042","","null","","","null","53","","","","","","","","","","","","","","","",""
"","ITI","","html-keyboard-response","358","546787","0.0-1.0-486.0","0","0","53042","","null","","","null","53","","","","","","","","","","","","","","","NaN",""
"","S1","","html-keyboard-response","359","547046","0.0-1.0-488.0","0","0","53042","","null","","","null","54","","","","","","","","","","","","","","","",""
"","ISI","","html-keyboard-response","360","548050","0.0-1.0-489.0","0","0","53042","","null","","","null","54","NaN","","","","","","","","","","","","","","",""
"","S2","","html-keyboard-response","361","548306","0.0-1.0-490.0","0","0","53042","","null","","","null","54","","NaN","","","","","","","","","","","","","",""
"","response","","html-keyboard-response","362","548596","0.0-1.0-491.0-0.0","0","0","53042","","287","","","75","54","","","2","54","training","adjacent","GF","7","6","L.jpg","O.jpg","0","0","1","",""
"","feedback","","html-keyboard-response","363","549602","0.0-1.0-492.0-0.0","0","0","53042","","null","","","null","54","","","","","","","","","","","","","","","",""
"","ITI","","html-keyboard-response","364","550614","0.0-1.0-495.0","0","0","53042","","null","","","null","54","","","","","","","","","","","","","","","NaN",""
"","S1","","html-keyboard-response","365","550878","0.0-1.0-497.0","0","0","53042","","null","","","null","55","","","","","","","","","","","","","","","",""
"","ISI","","html-keyboard-response","366","551898","0.0-1.0-498.0","0","0","53042","","null","","","null","55","NaN","","","","","","","","","","","","","","",""
"","S2","","html-keyboard-response","367","552157","0.0-1.0-499.0","0","0","53042","","null","","","null","55","","NaN","","","","","","","","","","","","","",""
"","response","","html-keyboard-response","368","552495","0.0-1.0-500.0-0.0","0","0","53042","","336","","","75","55","","","2","55","training","adjacent","GF","7","6","L.jpg","O.jpg","0","0","1","",""
"","feedback","","html-keyboard-response","369","553508","0.0-1.0-501.0-0.0","0","0","53042","","null","","","null","55","","","","","","","","","","","","","","","",""
"","ITI","","html-keyboard-response","370","554516","0.0-1.0-504.0","0","0","53042","","null","","","null","55","","","","","","","","","","","","","","","NaN",""
"","S1","","html-keyboard-response","371","554783","0.0-1.0-506.0","0","0","53042","","null","","","null","56","","","","","","","","","","","","","","","",""
"","ISI","","html-keyboard-response","372","555798","0.0-1.0-507.0","0","0","53042","","null","","","null","56","NaN","","","","","","","","","","","","","","",""
"","S2","","html-keyboard-response","373","556062","0.0-1.0-508.0","0","0","53042","","null","","","null","56","","NaN","","","","","","","","","","","","","",""
"","response","","html-keyboard-response","374","556225","0.0-1.0-509.0-0.0","0","0","53042","","159","","","68","56","","","2","56","training","adjacent","FE","6","5","O.jpg","M.jpg","1","0","0","",""
"","feedback","","html-keyboard-response","375","557239","0.0-1.0-510.0-0.0","0","0","53042","","null","","","null","56","","","","","","","","","","","","","","","",""
"","time_out","","html-keyboard-response","376","559256","0.0-1.0-512.0-0.0","0","0","53042","","null","","","null","56","","","","","","","","","","","","","","","",""
"","ITI","","html-keyboard-response","377","560267","0.0-1.0-513.0","0","0","53042","","null","","","null","56","","","","","","","","","","","","","","","NaN",""
"","S1","","html-keyboard-response","378","560532","0.0-1.0-515.0","0","0","53042","","null","","","null","57","","","","","","","","","","","","","","","",""
"","ISI","","html-keyboard-response","379","561546","0.0-1.0-516.0","0","0","53042","","null","","","null","57","NaN","","","","","","","","","","","","","","",""
"","S2","","html-keyboard-response","380","561803","0.0-1.0-517.0","0","0","53042","","null","","","null","57","","NaN","","","","","","","","","","","","","",""
"","response","","html-keyboard-response","381","562305","0.0-1.0-518.0-0.0","0","0","53042","","498","","","68","57","","","2","57","training","adjacent","BC","2","3","R.jpg","Q.jpg","1","1","1","",""
"","feedback","","html-keyboard-response","382","563320","0.0-1.0-519.0-0.0","0","0","53042","","null","","","null","57","","","","","","","","","","","","","","","",""
"","ITI","","html-keyboard-response","383","564338","0.0-1.0-522.0","0","0","53042","","null","","","null","57","","","","","","","","","","","","","","","NaN",""
"","S1","","html-keyboard-response","384","564598","0.0-1.0-524.0","0","0","53042","","null","","","null","58","","","","","","","","","","","","","","","",""
"","ISI","","html-keyboard-response","385","565614","0.0-1.0-525.0","0","0","53042","","null","","","null","58","NaN","","","","","","","","","","","","","","",""
"","S2","","html-keyboard-response","386","565875","0.0-1.0-526.0","0","0","53042","","null","","","null","58","","NaN","","","","","","","","","","","","","",""
"","response","","html-keyboard-response","387","566370","0.0-1.0-527.0-0.0","0","0","53042","","490","","","68","58","","","2","58","training","adjacent","BA","2","1","R.jpg","P.jpg","1","0","0","",""
"","feedback","","html-keyboard-response","388","567387","0.0-1.0-528.0-0.0","0","0","53042","","null","","","null","58","","","","","","","","","","","","","","","",""
"","time_out","","html-keyboard-response","389","569400","0.0-1.0-530.0-0.0","0","0","53042","","null","","","null","58","","","","","","","","","","","","","","","",""
"","ITI","","html-keyboard-response","390","570409","0.0-1.0-531.0","0","0","53042","","null","","","null","58","","","","","","","","","","","","","","","NaN",""
"","S1","","html-keyboard-response","391","570665","0.0-1.0-533.0","0","0","53042","","null","","","null","59","","","","","","","","","","","","","","","",""
"","ISI","","html-keyboard-response","392","571673","0.0-1.0-534.0","0","0","53042","","null","","","null","59","NaN","","","","","","","","","","","","","","",""
"","S2","","html-keyboard-response","393","571935","0.0-1.0-535.0","0","0","53042","","null","","","null","59","","NaN","","","","","","","","","","","","","",""
"","response","","html-keyboard-response","394","572674","0.0-1.0-536.0-0.0","0","0","53042","","737","","","68","59","","","2","59","training","adjacent","ED","5","4","M.jpg","N.jpg","1","0","0","",""
"","feedback","","html-keyboard-response","395","573689","0.0-1.0-537.0-0.0","0","0","53042","","null","","","null","59","","","","","","","","","","","","","","","",""
"","time_out","","html-keyboard-response","396","575700","0.0-1.0-539.0-0.0","0","0","53042","","null","","","null","59","","","","","","","","","","","","","","","",""
"","ITI","","html-keyboard-response","397","576706","0.0-1.0-540.0","0","0","53042","","null","","","null","59","","","","","","","","","","","","","","","NaN",""
"","S1","","html-keyboard-response","398","576967","0.0-1.0-542.0","0","0","53042","","null","","","null","60","","","","","","","","","","","","","","","",""
"","ISI","","html-keyboard-response","399","577972","0.0-1.0-543.0","0","0","53042","","null","","","null","60","NaN","","","","","","","","","","","","","","",""
"","S2","","html-keyboard-response","400","578238","0.0-1.0-544.0","0","0","53042","","null","","","null","60","","NaN","","","","","","","","","","","","","",""
"","response","","html-keyboard-response","401","579095","0.0-1.0-545.0-0.0","0","0","53042","","854","","","68","60","","","2","60","training","adjacent","BC","2","3","R.jpg","Q.jpg","1","1","1","",""
"","feedback","","html-keyboard-response","402","580114","0.0-1.0-546.0-0.0","0","0","53042","","null","","","null","60","","","","","","","","","","","","","","","",""
"","ITI","","html-keyboard-response","403","581125","0.0-1.0-549.0","0","0","53042","","null","","","null","60","","","","","","","","","","","","","","","NaN",""
"","S1","","html-keyboard-response","404","581385","0.0-1.0-551.0","0","0","53042","","null","","","null","61","","","","","","","","","","","","","","","",""
"","ISI","","html-keyboard-response","405","582391","0.0-1.0-552.0","0","0","53042","","null","","","null","61","NaN","","","","","","","","","","","","","","",""
"","S2","","html-keyboard-response","406","582645","0.0-1.0-553.0","0","0","53042","","null","","","null","61","","NaN","","","","","","","","","","","","","",""
"","response","","html-keyboard-response","407","583205","0.0-1.0-554.0-0.0","0","0","53042","","556","","","75","61","","","2","61","training","adjacent","ED","5","4","M.jpg","N.jpg","0","0","1","",""
"","feedback","","html-keyboard-response","408","584213","0.0-1.0-555.0-0.0","0","0","53042","","null","","","null","61","","","","","","","","","","","","","","","",""
"","ITI","","html-keyboard-response","409","585224","0.0-1.0-558.0","0","0","53042","","null","","","null","61","","","","","","","","","","","","","","","NaN",""
"","S1","","html-keyboard-response","410","585481","0.0-1.0-560.0","0","0","53042","","null","","","null","62","","","","","","","","","","","","","","","",""
"","ISI","","html-keyboard-response","411","586487","0.0-1.0-561.0","0","0","53042","","null","","","null","62","NaN","","","","","","","","","","","","","","",""
"","S2","","html-keyboard-response","412","586758","0.0-1.0-562.0","0","0","53042","","null","","","null","62","","NaN","","","","","","","","","","","","","",""
"","response","","html-keyboard-response","413","587379","0.0-1.0-563.0-0.0","0","0","53042","","617","","","68","62","","","2","62","training","adjacent","DC","4","3","N.jpg","Q.jpg","1","0","0","",""
"","feedback","","html-keyboard-response","414","588402","0.0-1.0-564.0-0.0","0","0","53042","","null","","","null","62","","","","","","","","","","","","","","","",""
"","time_out","","html-keyboard-response","415","590417","0.0-1.0-566.0-0.0","0","0","53042","","null","","","null","62","","","","","","","","","","","","","","","",""
"","ITI","","html-keyboard-response","416","591420","0.0-1.0-567.0","0","0","53042","","null","","","null","62","","","","","","","","","","","","","","","NaN",""
"","S1","","html-keyboard-response","417","591679","0.0-1.0-569.0","0","0","53042","","null","","","null","63","","","","","","","","","","","","","","","",""
"","ISI","","html-keyboard-response","418","592692","0.0-1.0-570.0","0","0","53042","","null","","","null","63","NaN","","","","","","","","","","","","","","",""
"","S2","","html-keyboard-response","419","592946","0.0-1.0-571.0","0","0","53042","","null","","","null","63","","NaN","","","","","","","","","","","","","",""
"","response","","html-keyboard-response","420","593235","0.0-1.0-572.0-0.0","0","0","53042","","284","","","68","63","","","2","63","training","adjacent","FG","6","7","O.jpg","L.jpg","1","1","1","",""
"","feedback","","html-keyboard-response","421","594242","0.0-1.0-573.0-0.0","0","0","53042","","null","","","null","63","","","","","","","","","","","","","","","",""
"","ITI","","html-keyboard-response","422","595249","0.0-1.0-576.0","0","0","53042","","null","","","null","63","","","","","","","","","","","","","","","NaN",""
"","S1","","html-keyboard-response","423","595511","0.0-1.0-578.0","0","0","53042","","null","","","null","64","","","","","","","","","","","","","","","",""
"","ISI","","html-keyboard-response","424","596522","0.0-1.0-579.0","0","0","53042","","null","","","null","64","NaN","","","","","","","","","","","","","","",""
"","S2","","html-keyboard-response","425","596784","0.0-1.0-580.0","0","0","53042","","null","","","null","64","","NaN","","","","","","","","","","","","","",""
"","response","","html-keyboard-response","426","597723","0.0-1.0-581.0-0.0","0","0","53042","","937","","","75","64","","","2","64","training","adjacent","DE","4","5","N.jpg","M.jpg","0","1","0","",""
"","feedback","","html-keyboard-response","427","598740","0.0-1.0-582.0-0.0","0","0","53042","","null","","","null","64","","","","","","","","","","","","","","","",""
"","time_out","","html-keyboard-response","428","600756","0.0-1.0-584.0-0.0","0","0","53042","","null","","","null","64","","","","","","","","","","","","","","","",""
"","ITI","","html-keyboard-response","429","601760","0.0-1.0-585.0","0","0","53042","","null","","","null","64","","","","","","","","","","","","","","","NaN",""
"","S1","","html-keyboard-response","430","602024","0.0-1.0-587.0","0","0","53042","","null","","","null","65","","","","","","","","","","","","","","","",""
"","ISI","","html-keyboard-response","431","603035","0.0-1.0-588.0","0","0","53042","","null","","","null","65","NaN","","","","","","","","","","","","","","",""
"","S2","","html-keyboard-response","432","603301","0.0-1.0-589.0","0","0","53042","","null","","","null","65","","NaN","","","","","","","","","","","","","",""
"","response","","html-keyboard-response","433","604353","0.0-1.0-590.0-0.0","0","0","53042","","1048","","","68","65","","","2","65","training","adjacent","CB","3","2","Q.jpg","R.jpg","1","0","0","",""
"","feedback","","html-keyboard-response","434","605360","0.0-1.0-591.0-0.0","0","0","53042","","null","","","null","65","","","","","","","","","","","","","","","",""
"","time_out","","html-keyboard-response","435","607371","0.0-1.0-593.0-0.0","0","0","53042","","null","","","null","65","","","","","","","","","","","","","","","",""
"","ITI","","html-keyboard-response","436","608390","0.0-1.0-594.0","0","0","53042","","null","","","null","65","","","","","","","","","","","","","","","NaN",""
"","S1","","html-keyboard-response","437","608657","0.0-1.0-596.0","0","0","53042","","null","","","null","66","","","","","","","","","","","","","","","",""
"","ISI","","html-keyboard-response","438","609673","0.0-1.0-597.0","0","0","53042","","null","","","null","66","NaN","","","","","","","","","","","","","","",""
"","S2","","html-keyboard-response","439","609934","0.0-1.0-598.0","0","0","53042","","null","","","null","66","","NaN","","","","","","","","","","","","","",""
"","response","","html-keyboard-response","440","610989","0.0-1.0-599.0-0.0","0","0","53042","","1050","","","68","66","","","2","66","training","adjacent","DC","4","3","N.jpg","Q.jpg","1","0","0","",""
"","feedback","","html-keyboard-response","441","611999","0.0-1.0-600.0-0.0","0","0","53042","","null","","","null","66","","","","","","","","","","","","","","","",""
"","time_out","","html-keyboard-response","442","614014","0.0-1.0-602.0-0.0","0","0","53042","","null","","","null","66","","","","","","","","","","","","","","","",""
"","ITI","","html-keyboard-response","443","616201","0.0-1.0-603.0","0","0","53042","","null","","","null","66","","","","","","","","","","","","","","","NaN",""
"","S1","","html-keyboard-response","444","616473","0.0-1.0-605.0","0","0","53042","","null","","","null","67","","","","","","","","","","","","","","","",""
"","ISI","","html-keyboard-response","445","617482","0.0-1.0-606.0","0","0","53042","","null","","","null","67","NaN","","","","","","","","","","","","","","",""
"","S2","","html-keyboard-response","446","617743","0.0-1.0-607.0","0","0","53042","","null","","","null","67","","NaN","","","","","","","","","","","","","",""
"","response","","html-keyboard-response","447","618967","0.0-1.0-608.0-0.0","0","0","53042","","1219","","","68","67","","","2","67","training","adjacent","BC","2","3","R.jpg","Q.jpg","1","1","1","",""
"","feedback","","html-keyboard-response","448","619984","0.0-1.0-609.0-0.0","0","0","53042","","null","","","null","67","","","","","","","","","","","","","","","",""
"","ITI","","html-keyboard-response","449","620993","0.0-1.0-612.0","0","0","53042","","null","","","null","67","","","","","","","","","","","","","","","NaN",""
"","S1","","html-keyboard-response","450","621260","0.0-1.0-614.0","0","0","53042","","null","","","null","68","","","","","","","","","","","","","","","",""
"","ISI","","html-keyboard-response","451","622280","0.0-1.0-615.0","0","0","53042","","null","","","null","68","NaN","","","","","","","","","","","","","","",""
"","S2","","html-keyboard-response","452","622537","0.0-1.0-616.0","0","0","53042","","null","","","null","68","","NaN","","","","","","","","","","","","","",""
"","response","","html-keyboard-response","453","623106","0.0-1.0-617.0-0.0","0","0","53042","","565","","","75","68","","","2","68","training","adjacent","EF","5","6","M.jpg","O.jpg","0","1","0","",""
"","feedback","","html-keyboard-response","454","624113","0.0-1.0-618.0-0.0","0","0","53042","","null","","","null","68","","","","","","","","","","","","","","","",""
"","time_out","","html-keyboard-response","455","626131","0.0-1.0-620.0-0.0","0","0","53042","","null","","","null","68","","","","","","","","","","","","","","","",""
"","ITI","","html-keyboard-response","456","627140","0.0-1.0-621.0","0","0","53042","","null","","","null","68","","","","","","","","","","","","","","","NaN",""
"","S1","","html-keyboard-response","457","627394","0.0-1.0-623.0","0","0","53042","","null","","","null","69","","","","","","","","","","","","","","","",""
"","ISI","","html-keyboard-response","458","628406","0.0-1.0-624.0","0","0","53042","","null","","","null","69","NaN","","","","","","","","","","","","","","",""
"","S2","","html-keyboard-response","459","628672","0.0-1.0-625.0","0","0","53042","","null","","","null","69","","NaN","","","","","","","","","","","","","",""
"","response","","html-keyboard-response","460","629417","0.0-1.0-626.0-0.0","0","0","53042","","741","","","75","69","","","2","69","training","adjacent","DE","4","5","N.jpg","M.jpg","0","1","0","",""
"","feedback","","html-keyboard-response","461","630429","0.0-1.0-627.0-0.0","0","0","53042","","null","","","null","69","","","","","","","","","","","","","","","",""
"","time_out","","html-keyboard-response","462","632441","0.0-1.0-629.0-0.0","0","0","53042","","null","","","null","69","","","","","","","","","","","","","","","",""
"","ITI","","html-keyboard-response","463","633446","0.0-1.0-630.0","0","0","53042","","null","","","null","69","","","","","","","","","","","","","","","NaN",""
"","S1","","html-keyboard-response","464","633704","0.0-1.0-632.0","0","0","53042","","null","","","null","70","","","","","","","","","","","","","","","",""
"","ISI","","html-keyboard-response","465","634717","0.0-1.0-633.0","0","0","53042","","null","","","null","70","NaN","","","","","","","","","","","","","","",""
"","S2","","html-keyboard-response","466","634983","0.0-1.0-634.0","0","0","53042","","null","","","null","70","","NaN","","","","","","","","","","","","","",""
"","response","","html-keyboard-response","467","636253","0.0-1.0-635.0-0.0","0","0","53042","","1267","","","75","70","","","2","70","training","adjacent","EF","5","6","M.jpg","O.jpg","0","1","0","",""
"","feedback","","html-keyboard-response","468","637260","0.0-1.0-636.0-0.0","0","0","53042","","null","","","null","70","","","","","","","","","","","","","","","",""
"","time_out","","html-keyboard-response","469","639268","0.0-1.0-638.0-0.0","0","0","53042","","null","","","null","70","","","","","","","","","","","","","","","",""
"","ITI","","html-keyboard-response","470","640282","0.0-1.0-639.0","0","0","53042","","null","","","null","70","","","","","","","","","","","","","","","NaN",""
"","S1","","html-keyboard-response","471","640550","0.0-1.0-641.0","0","0","53042","","null","","","null","71","","","","","","","","","","","","","","","",""
"","ISI","","html-keyboard-response","472","641563","0.0-1.0-642.0","0","0","53042","","null","","","null","71","NaN","","","","","","","","","","","","","","",""
"","S2","","html-keyboard-response","473","641819","0.0-1.0-643.0","0","0","53042","","null","","","null","71","","NaN","","","","","","","","","","","","","",""
"","response","","html-keyboard-response","474","642193","0.0-1.0-644.0-0.0","0","0","53042","","371","","","68","71","","","2","71","training","adjacent","FE","6","5","O.jpg","M.jpg","1","0","0","",""
"","feedback","","html-keyboard-response","475","643199","0.0-1.0-645.0-0.0","0","0","53042","","null","","","null","71","","","","","","","","","","","","","","","",""
"","time_out","","html-keyboard-response","476","645216","0.0-1.0-647.0-0.0","0","0","53042","","null","","","null","71","","","","","","","","","","","","","","","",""
"","ITI","","html-keyboard-response","477","646229","0.0-1.0-648.0","0","0","53042","","null","","","null","71","","","","","","","","","","","","","","","NaN",""
"","S1","","html-keyboard-response","478","646484","0.0-1.0-650.0","0","0","53042","","null","","","null","72","","","","","","","","","","","","","","","",""
"","ISI","","html-keyboard-response","479","647492","0.0-1.0-651.0","0","0","53042","","null","","","null","72","NaN","","","","","","","","","","","","","","",""
"","S2","","html-keyboard-response","480","647759","0.0-1.0-652.0","0","0","53042","","null","","","null","72","","NaN","","","","","","","","","","","","","",""
"","response","","html-keyboard-response","481","648418","0.0-1.0-653.0-0.0","0","0","53042","","654","","","75","72","","","2","72","training","adjacent","BA","2","1","R.jpg","P.jpg","0","0","1","",""
"","feedback","","html-keyboard-response","482","649435","0.0-1.0-654.0-0.0","0","0","53042","","null","","","null","72","","","","","","","","","","","","","","","",""
"","ITI","","html-keyboard-response","483","650441","0.0-1.0-657.0","0","0","53042","","null","","","null","72","","","","","","","","","","","","","","","NaN",""
"","S1","","html-keyboard-response","484","650701","0.0-1.0-659.0","0","0","53042","","null","","","null","73","","","","","","","","","","","","","","","",""
"","ISI","","html-keyboard-response","485","651706","0.0-1.0-660.0","0","0","53042","","null","","","null","73","NaN","","","","","","","","","","","","","","",""
"","S2","","html-keyboard-response","486","651964","0.0-1.0-661.0","0","0","53042","","null","","","null","73","","NaN","","","","","","","","","","","","","",""
"","response","","html-keyboard-response","487","653727","0.0-1.0-662.0-0.0","0","0","53042","","null","","","null","73","","","2","73","training","adjacent","CD","3","4","Q.jpg","N.jpg","NaN","1","0","",""
"","too_slow_prompt","","html-keyboard-response","488","654736","0.0-1.0-664.0-0.0","1","0","53042","","null","","","null","","","","","","","","","","","","","","","","",""
"","time_out","","html-keyboard-response","489","656743","0.0-1.0-665.0-0.0","0","0","53042","","null","","","null","73","","","","","","","","","","","","","","","",""
"","ITI","","html-keyboard-response","490","657758","0.0-1.0-666.0","0","0","53042","","null","","","null","73","","","","","","","","","","","","","","","NaN",""
"","S1","","html-keyboard-response","491","658018","0.0-1.0-668.0","0","0","53042","","null","","","null","74","","","","","","","","","","","","","","","",""
"","ISI","","html-keyboard-response","492","659029","0.0-1.0-669.0","0","0","53042","","null","","","null","74","NaN","","","","","","","","","","","","","","",""
"","S2","","html-keyboard-response","493","659297","0.0-1.0-670.0","0","0","53042","","null","","","null","74","","NaN","","","","","","","","","","","","","",""
"","response","","html-keyboard-response","494","660006","0.0-1.0-671.0-0.0","0","0","53042","","702","","","68","74","","","2","74","training","adjacent","BA","2","1","R.jpg","P.jpg","1","0","0","",""
"","feedback","","html-keyboard-response","495","661014","0.0-1.0-672.0-0.0","0","0","53042","","null","","","null","74","","","","","","","","","","","","","","","",""
"","time_out","","html-keyboard-response","496","663021","0.0-1.0-674.0-0.0","0","0","53042","","null","","","null","74","","","","","","","","","","","","","","","",""
"","ITI","","html-keyboard-response","497","664035","0.0-1.0-675.0","0","0","53042","","null","","","null","74","","","","","","","","","","","","","","","NaN",""
"","S1","","html-keyboard-response","498","664300","0.0-1.0-677.0","0","0","53042","","null","","","null","75","","","","","","","","","","","","","","","",""
"","ISI","","html-keyboard-response","499","665311","0.0-1.0-678.0","0","0","53042","","null","","","null","75","NaN","","","","","","","","","","","","","","",""
"","S2","","html-keyboard-response","500","665572","0.0-1.0-679.0","0","0","53042","","null","","","null","75","","NaN","","","","","","","","","","","","","",""
"","response","","html-keyboard-response","501","666394","0.0-1.0-680.0-0.0","0","0","53042","","816","","","75","75","","","2","75","training","adjacent","CD","3","4","Q.jpg","N.jpg","0","1","0","",""
"","feedback","","html-keyboard-response","502","667405","0.0-1.0-681.0-0.0","0","0","53042","","null","","","null","75","","","","","","","","","","","","","","","",""
"","time_out","","html-keyboard-response","503","669414","0.0-1.0-683.0-0.0","0","0","53042","","null","","","null","75","","","","","","","","","","","","","","","",""
"","ITI","","html-keyboard-response","504","670426","0.0-1.0-684.0","0","0","53042","","null","","","null","75","","","","","","","","","","","","","","","NaN",""
"","S1","","html-keyboard-response","505","670692","0.0-1.0-686.0","0","0","53042","","null","","","null","76","","","","","","","","","","","","","","","",""
"","ISI","","html-keyboard-response","506","671698","0.0-1.0-687.0","0","0","53042","","null","","","null","76","NaN","","","","","","","","","","","","","","",""
"","S2","","html-keyboard-response","507","671958","0.0-1.0-688.0","0","0","53042","","null","","","null","76","","NaN","","","","","","","","","","","","","",""
"","response","","html-keyboard-response","508","672306","0.0-1.0-689.0-0.0","0","0","53042","","346","","","68","76","","","2","76","training","adjacent","AB","1","2","P.jpg","R.jpg","1","1","1","",""
"","feedback","","html-keyboard-response","509","673324","0.0-1.0-690.0-0.0","0","0","53042","","null","","","null","76","","","","","","","","","","","","","","","",""
"","ITI","","html-keyboard-response","510","674335","0.0-1.0-693.0","0","0","53042","","null","","","null","76","","","","","","","","","","","","","","","NaN",""
"","S1","","html-keyboard-response","511","674599","0.0-1.0-695.0","0","0","53042","","null","","","null","77","","","","","","","","","","","","","","","",""
"","ISI","","html-keyboard-response","512","675605","0.0-1.0-696.0","0","0","53042","","null","","","null","77","NaN","","","","","","","","","","","","","","",""
"","S2","","html-keyboard-response","513","675865","0.0-1.0-697.0","0","0","53042","","null","","","null","77","","NaN","","","","","","","","","","","","","",""
"","response","","html-keyboard-response","514","676224","0.0-1.0-698.0-0.0","0","0","53042","","356","","","75","77","","","2","77","training","adjacent","EF","5","6","M.jpg","O.jpg","0","1","0","",""
"","feedback","","html-keyboard-response","515","677240","0.0-1.0-699.0-0.0","0","0","53042","","null","","","null","77","","","","","","","","","","","","","","","",""
"","time_out","","html-keyboard-response","516","679256","0.0-1.0-701.0-0.0","0","0","53042","","null","","","null","77","","","","","","","","","","","","","","","",""
"","ITI","","html-keyboard-response","517","680268","0.0-1.0-702.0","0","0","53042","","null","","","null","77","","","","","","","","","","","","","","","NaN",""
"","S1","","html-keyboard-response","518","680530","0.0-1.0-704.0","0","0","53042","","null","","","null","78","","","","","","","","","","","","","","","",""
"","ISI","","html-keyboard-response","519","681539","0.0-1.0-705.0","0","0","53042","","null","","","null","78","NaN","","","","","","","","","","","","","","",""
"","S2","","html-keyboard-response","520","681803","0.0-1.0-706.0","0","0","53042","","null","","","null","78","","NaN","","","","","","","","","","","","","",""
"","response","","html-keyboard-response","521","682134","0.0-1.0-707.0-0.0","0","0","53042","","327","","","68","78","","","2","78","training","adjacent","DC","4","3","N.jpg","Q.jpg","1","0","0","",""
"","feedback","","html-keyboard-response","522","683139","0.0-1.0-708.0-0.0","0","0","53042","","null","","","null","78","","","","","","","","","","","","","","","",""
"","time_out","","html-keyboard-response","523","685153","0.0-1.0-710.0-0.0","0","0","53042","","null","","","null","78","","","","","","","","","","","","","","","",""
"","ITI","","html-keyboard-response","524","686168","0.0-1.0-711.0","0","0","53042","","null","","","null","78","","","","","","","","","","","","","","","NaN",""
"","S1","","html-keyboard-response","525","686432","0.0-1.0-713.0","0","0","53042","","null","","","null","79","","","","","","","","","","","","","","","",""
"","ISI","","html-keyboard-response","526","687448","0.0-1.0-714.0","0","0","53042","","null","","","null","79","NaN","","","","","","","","","","","","","","",""
"","S2","","html-keyboard-response","527","687706","0.0-1.0-715.0","0","0","53042","","null","","","null","79","","NaN","","","","","","","","","","","","","",""
"","response","","html-keyboard-response","528","688305","0.0-1.0-716.0-0.0","0","0","53042","","596","","","75","79","","","2","79","training","adjacent","BC","2","3","R.jpg","Q.jpg","0","1","0","",""
"","feedback","","html-keyboard-response","529","689315","0.0-1.0-717.0-0.0","0","0","53042","","null","","","null","79","","","","","","","","","","","","","","","",""
"","time_out","","html-keyboard-response","530","691330","0.0-1.0-719.0-0.0","0","0","53042","","null","","","null","79","","","","","","","","","","","","","","","",""
"","ITI","","html-keyboard-response","531","692339","0.0-1.0-720.0","0","0","53042","","null","","","null","79","","","","","","","","","","","","","","","NaN",""
"","S1","","html-keyboard-response","532","692598","0.0-1.0-722.0","0","0","53042","","null","","","null","80","","","","","","","","","","","","","","","",""
"","ISI","","html-keyboard-response","533","693617","0.0-1.0-723.0","0","0","53042","","null","","","null","80","NaN","","","","","","","","","","","","","","",""
"","S2","","html-keyboard-response","534","693883","0.0-1.0-724.0","0","0","53042","","null","","","null","80","","NaN","","","","","","","","","","","","","",""
"","response","","html-keyboard-response","535","694445","0.0-1.0-725.0-0.0","0","0","53042","","559","","","68","80","","","2","80","training","adjacent","ED","5","4","M.jpg","N.jpg","1","0","0","",""
"","feedback","","html-keyboard-response","536","695454","0.0-1.0-726.0-0.0","0","0","53042","","null","","","null","80","","","","","","","","","","","","","","","",""
"","time_out","","html-keyboard-response","537","697458","0.0-1.0-728.0-0.0","0","0","53042","","null","","","null","80","","","","","","","","","","","","","","","",""
"","ITI","","html-keyboard-response","538","698468","0.0-1.0-729.0","0","0","53042","","null","","","null","80","","","","","","","","","","","","","","","NaN",""
"","S1","","html-keyboard-response","539","698734","0.0-1.0-731.0","0","0","53042","","null","","","null","81","","","","","","","","","","","","","","","",""
"","ISI","","html-keyboard-response","540","699744","0.0-1.0-732.0","0","0","53042","","null","","","null","81","NaN","","","","","","","","","","","","","","",""
"","S2","","html-keyboard-response","541","700003","0.0-1.0-733.0","0","0","53042","","null","","","null","81","","NaN","","","","","","","","","","","","","",""
"","response","","html-keyboard-response","542","700588","0.0-1.0-734.0-0.0","0","0","53042","","581","","","75","81","","","2","81","training","adjacent","CB","3","2","Q.jpg","R.jpg","0","0","1","",""
"","feedback","","html-keyboard-response","543","701599","0.0-1.0-735.0-0.0","0","0","53042","","null","","","null","81","","","","","","","","","","","","","","","",""
"","ITI","","html-keyboard-response","544","702615","0.0-1.0-738.0","0","0","53042","","null","","","null","81","","","","","","","","","","","","","","","NaN",""
"","S1","","html-keyboard-response","545","702880","0.0-1.0-740.0","0","0","53042","","null","","","null","82","","","","","","","","","","","","","","","",""
"","ISI","","html-keyboard-response","546","703890","0.0-1.0-741.0","0","0","53042","","null","","","null","82","NaN","","","","","","","","","","","","","","",""
"","S2","","html-keyboard-response","547","704151","0.0-1.0-742.0","0","0","53042","","null","","","null","82","","NaN","","","","","","","","","","","","","",""
"","response","","html-keyboard-response","548","704744","0.0-1.0-743.0-0.0","0","0","53042","","584","","","75","82","","","2","82","training","adjacent","CD","3","4","Q.jpg","N.jpg","0","1","0","",""
"","feedback","","html-keyboard-response","549","705756","0.0-1.0-744.0-0.0","0","0","53042","","null","","","null","82","","","","","","","","","","","","","","","",""
"","time_out","","html-keyboard-response","550","707774","0.0-1.0-746.0-0.0","0","0","53042","","null","","","null","82","","","","","","","","","","","","","","","",""
"","ITI","","html-keyboard-response","551","708786","0.0-1.0-747.0","0","0","53042","","null","","","null","82","","","","","","","","","","","","","","","NaN",""
"","S1","","html-keyboard-response","552","709052","0.0-1.0-749.0","0","0","53042","","null","","","null","83","","","","","","","","","","","","","","","",""
"","ISI","","html-keyboard-response","553","710063","0.0-1.0-750.0","0","0","53042","","null","","","null","83","NaN","","","","","","","","","","","","","","",""
"","S2","","html-keyboard-response","554","710328","0.0-1.0-751.0","0","0","53042","","null","","","null","83","","NaN","","","","","","","","","","","","","",""
"","response","","html-keyboard-response","555","710611","0.0-1.0-752.0-0.0","0","0","53042","","277","","","68","83","","","2","83","training","adjacent","FG","6","7","O.jpg","L.jpg","1","1","1","",""
"","feedback","","html-keyboard-response","556","711624","0.0-1.0-753.0-0.0","0","0","53042","","null","","","null","83","","","","","","","","","","","","","","","",""
"","ITI","","html-keyboard-response","557","712630","0.0-1.0-756.0","0","0","53042","","null","","","null","83","","","","","","","","","","","","","","","NaN",""
"","S1","","html-keyboard-response","558","712892","0.0-1.0-758.0","0","0","53042","","null","","","null","84","","","","","","","","","","","","","","","",""
"","ISI","","html-keyboard-response","559","713904","0.0-1.0-759.0","0","0","53042","","null","","","null","84","NaN","","","","","","","","","","","","","","",""
"","S2","","html-keyboard-response","560","714158","0.0-1.0-760.0","0","0","53042","","null","","","null","84","","NaN","","","","","","","","","","","","","",""
"","response","","html-keyboard-response","561","715357","0.0-1.0-761.0-0.0","0","0","53042","","1195","","","68","84","","","2","84","training","adjacent","DC","4","3","N.jpg","Q.jpg","1","0","0","",""
"","feedback","","html-keyboard-response","562","716373","0.0-1.0-762.0-0.0","0","0","53042","","null","","","null","84","","","","","","","","","","","","","","","",""
"","time_out","","html-keyboard-response","563","718384","0.0-1.0-764.0-0.0","0","0","53042","","null","","","null","84","","","","","","","","","","","","","","","",""
"","ITI","","html-keyboard-response","564","719400","0.0-1.0-765.0","0","0","53042","","null","","","null","84","","","","","","","","","","","","","","","NaN",""
"","S1","","html-keyboard-response","565","719666","0.0-1.0-767.0","0","0","53042","","null","","","null","85","","","","","","","","","","","","","","","",""
"","ISI","","html-keyboard-response","566","720677","0.0-1.0-768.0","0","0","53042","","null","","","null","85","NaN","","","","","","","","","","","","","","",""
"","S2","","html-keyboard-response","567","720941","0.0-1.0-769.0","0","0","53042","","null","","","null","85","","NaN","","","","","","","","","","","","","",""
"","response","","html-keyboard-response","568","721408","0.0-1.0-770.0-0.0","0","0","53042","","464","","","75","85","","","2","85","training","adjacent","AB","1","2","P.jpg","R.jpg","0","1","0","",""
"","feedback","","html-keyboard-response","569","722420","0.0-1.0-771.0-0.0","0","0","53042","","null","","","null","85","","","","","","","","","","","","","","","",""
"","time_out","","html-keyboard-response","570","724435","0.0-1.0-773.0-0.0","0","0","53042","","null","","","null","85","","","","","","","","","","","","","","","",""
"","ITI","","html-keyboard-response","571","725437","0.0-1.0-774.0","0","0","53042","","null","","","null","85","","","","","","","","","","","","","","","NaN",""
"","S1","","html-keyboard-response","572","725703","0.0-1.0-776.0","0","0","53042","","null","","","null","86","","","","","","","","","","","","","","","",""
"","ISI","","html-keyboard-response","573","726720","0.0-1.0-777.0","0","0","53042","","null","","","null","86","NaN","","","","","","","","","","","","","","",""
"","S2","","html-keyboard-response","574","726980","0.0-1.0-778.0","0","0","53042","","null","","","null","86","","NaN","","","","","","","","","","","","","",""
"","response","","html-keyboard-response","575","727293","0.0-1.0-779.0-0.0","0","0","53042","","308","","","68","86","","","2","86","training","adjacent","FG","6","7","O.jpg","L.jpg","1","1","1","",""
"","feedback","","html-keyboard-response","576","728301","0.0-1.0-780.0-0.0","0","0","53042","","null","","","null","86","","","","","","","","","","","","","","","",""
"","ITI","","html-keyboard-response","577","729313","0.0-1.0-783.0","0","0","53042","","null","","","null","86","","","","","","","","","","","","","","","NaN",""
"","S1","","html-keyboard-response","578","729568","0.0-1.0-785.0","0","0","53042","","null","","","null","87","","","","","","","","","","","","","","","",""
"","ISI","","html-keyboard-response","579","730574","0.0-1.0-786.0","0","0","53042","","null","","","null","87","NaN","","","","","","","","","","","","","","",""
"","S2","","html-keyboard-response","580","730836","0.0-1.0-787.0","0","0","53042","","null","","","null","87","","NaN","","","","","","","","","","","","","",""
