"success","ttype","start_time","trial_type","trial_index","time_elapsed","internal_node_id","warning","missed_checkup","PID","view_history","rt","responses","repeat_instructions","key_press","index","keypress_isi","keypress_S2","block","trial_num","phase","group_type","pair_type","S1_stim","S2_stim","S1_img","S2_img","S1_chosen","S1_higher","accuracy","keypress_iti","total_bonus_tally"
"true","full_screen","d08052022hr1608","fullscreen","0","60455","0.0-0.0","0","0","48769","","","","","","","","","","","","","","","","","","","","","",""
"","instructions","","instructions","1","185010","0.0-1.0-0.0-0.0","0","0","48769","[{""page_index"":0,""viewing_time"":47139},{""page_index"":1,""viewing_time"":49643},{""page_index"":2,""viewing_time"":21431},{""page_index"":3,""viewing_time"":6339}]","124552","","","","","","","","","","","","","","","","","","","",""
"","comprehension_check","","survey-multi-choice","2","243715","0.0-1.0-0.0-1.0","0","0","48769","","58702","{""Q0"":""True"",""Q1"":""K"",""Q2"":""Only while the second image is shown"",""Q3"":""Green mark"",""Q4"":""either D or K""}","1","","","","","","","","","","","","","","","","","",""
"","missed_instruction_checkup","","html-keyboard-response","3","247735","0.0-1.0-0.0-2.0-0.0","0","1","48769","","4017","","","32","","","","","","","","","","","","","","","","",""
"","instructions","","instructions","4","348148","0.0-1.0-0.1-0.1","0","0","48769","[{""page_index"":0,""viewing_time"":25609},{""page_index"":1,""viewing_time"":60117},{""page_index"":2,""viewing_time"":13699},{""page_index"":3,""viewing_time"":986}]","100411","","","","","","","","","","","","","","","","","","","",""
"","comprehension_check","","survey-multi-choice","5","367550","0.0-1.0-0.1-1.1","0","0","48769","","19399","{""Q0"":""True"",""Q1"":""K"",""Q2"":""Once the second image appears and while the screen 'MAKE A CHOICE' is shown"",""Q3"":""Green mark"",""Q4"":""either D or K""}","0","","","","","","","","","","","","","","","","","",""
"","start_exp","","html-keyboard-response","6","390414","0.0-1.0-1.0","0","0","48769","","22863","","","32","","","","","","","","","","","","","","","","",""
"","S1","","html-keyboard-response","7","390667","0.0-1.0-2.0","0","0","48769","","null","","","null","0","","","","","","","","","","","","","","","",""
"","ISI","","html-keyboard-response","8","392670","0.0-1.0-3.0","0","0","48769","","null","","","null","0","NaN","","","","","","","","","","","","","","",""
"","S2","","html-keyboard-response","9","392929","0.0-1.0-4.0","0","0","48769","","null","","","null","0","","NaN","","","","","","","","","","","","","",""
"","response","","html-keyboard-response","10","393927","0.0-1.0-5.0-0.0","0","0","48769","","995","","","68","0","","","1","0","training","adjacent","GF","7","6","O.jpg","N.jpg","0","0","1","",""
"","feedback","","html-keyboard-response","11","394931","0.0-1.0-6.0-0.0","0","0","48769","","null","","","null","0","","","","","","","","","","","","","","","",""
"","ITI","","html-keyboard-response","12","395934","0.0-1.0-9.0","0","0","48769","","null","","","null","0","","","","","","","","","","","","","","","NaN",""
"","S1","","html-keyboard-response","13","396188","0.0-1.0-11.0","0","0","48769","","null","","","null","1","","","","","","","","","","","","","","","",""
"","ISI","","html-keyboard-response","14","398191","0.0-1.0-12.0","0","0","48769","","null","","","null","1","NaN","","","","","","","","","","","","","","",""
"","S2","","html-keyboard-response","15","398444","0.0-1.0-13.0","0","0","48769","","null","","","null","1","","NaN","","","","","","","","","","","","","",""
"","response","","html-keyboard-response","16","398908","0.0-1.0-14.0-0.0","0","0","48769","","462","","","75","1","","","1","1","training","adjacent","EF","5","6","Q.jpg","N.jpg","1","1","1","",""
"","feedback","","html-keyboard-response","17","399911","0.0-1.0-15.0-0.0","0","0","48769","","null","","","null","1","","","","","","","","","","","","","","","",""
"","ITI","","html-keyboard-response","18","400914","0.0-1.0-18.0","0","0","48769","","null","","","null","1","","","","","","","","","","","","","","","NaN",""
"","S1","","html-keyboard-response","19","401168","0.0-1.0-20.0","0","0","48769","","null","","","null","2","","","","","","","","","","","","","","","",""
"","ISI","","html-keyboard-response","20","403171","0.0-1.0-21.0","0","0","48769","","null","","","null","2","NaN","","","","","","","","","","","","","","",""
"","S2","","html-keyboard-response","21","403425","0.0-1.0-22.0","0","0","48769","","null","","","null","2","","NaN","","","","","","","","","","","","","",""
"","response","","html-keyboard-response","22","404564","0.0-1.0-23.0-0.0","0","0","48769","","1137","","","68","2","","","1","2","training","adjacent","GF","7","6","O.jpg","N.jpg","0","0","1","",""
"","feedback","","html-keyboard-response","23","405567","0.0-1.0-24.0-0.0","0","0","48769","","null","","","null","2","","","","","","","","","","","","","","","",""
"","ITI","","html-keyboard-response","24","406570","0.0-1.0-27.0","0","0","48769","","null","","","null","2","","","","","","","","","","","","","","","NaN",""
"","S1","","html-keyboard-response","25","406823","0.0-1.0-29.0","0","0","48769","","null","","","null","3","","","","","","","","","","","","","","","",""
"","ISI","","html-keyboard-response","26","408826","0.0-1.0-30.0","0","0","48769","","null","","","null","3","NaN","","","","","","","","","","","","","","",""
"","S2","","html-keyboard-response","27","409079","0.0-1.0-31.0","0","0","48769","","null","","","null","3","","NaN","","","","","","","","","","","","","",""
"","response","","html-keyboard-response","28","409942","0.0-1.0-32.0-0.0","0","0","48769","","861","","","75","3","","","1","3","training","adjacent","GF","7","6","O.jpg","N.jpg","1","0","0","",""
"","feedback","","html-keyboard-response","29","410946","0.0-1.0-33.0-0.0","0","0","48769","","null","","","null","3","","","","","","","","","","","","","","","",""
"","time_out","","html-keyboard-response","30","412949","0.0-1.0-35.0-0.0","0","0","48769","","null","","","null","3","","","","","","","","","","","","","","","",""
"","ITI","","html-keyboard-response","31","413952","0.0-1.0-36.0","0","0","48769","","null","","","null","3","","","","","","","","","","","","","","","NaN",""
"","S1","","html-keyboard-response","32","414205","0.0-1.0-38.0","0","0","48769","","null","","","null","4","","","","","","","","","","","","","","","",""
"","ISI","","html-keyboard-response","33","416209","0.0-1.0-39.0","0","0","48769","","null","","","null","4","NaN","","","","","","","","","","","","","","",""
"","S2","","html-keyboard-response","34","416462","0.0-1.0-40.0","0","0","48769","","null","","","null","4","","NaN","","","","","","","","","","","","","",""
"","response","","html-keyboard-response","35","417294","0.0-1.0-41.0-0.0","0","0","48769","","830","","","75","4","","","1","4","training","adjacent","DE","4","5","L.jpg","Q.jpg","1","1","1","",""
"","feedback","","html-keyboard-response","36","418298","0.0-1.0-42.0-0.0","0","0","48769","","null","","","null","4","","","","","","","","","","","","","","","",""
"","ITI","","html-keyboard-response","37","419300","0.0-1.0-45.0","0","0","48769","","null","","","null","4","","","","","","","","","","","","","","","NaN",""
"","S1","","html-keyboard-response","38","419568","0.0-1.0-47.0","0","0","48769","","null","","","null","5","","","","","","","","","","","","","","","",""
"","ISI","","html-keyboard-response","39","421572","0.0-1.0-48.0","0","0","48769","","null","","","null","5","NaN","","","","","","","","","","","","","","",""
"","S2","","html-keyboard-response","40","421825","0.0-1.0-49.0","0","0","48769","","null","","","null","5","","NaN","","","","","","","","","","","","","",""
"","response","","html-keyboard-response","41","422430","0.0-1.0-50.0-0.0","0","0","48769","","602","","","68","5","","","1","5","training","adjacent","CB","3","2","P.jpg","M.jpg","0","0","1","",""
"","feedback","","html-keyboard-response","42","423433","0.0-1.0-51.0-0.0","0","0","48769","","null","","","null","5","","","","","","","","","","","","","","","",""
"","ITI","","html-keyboard-response","43","424437","0.0-1.0-54.0","0","0","48769","","null","","","null","5","","","","","","","","","","","","","","","NaN",""
"","S1","","html-keyboard-response","44","424689","0.0-1.0-56.0","0","0","48769","","null","","","null","6","","","","","","","","","","","","","","","",""
"","ISI","","html-keyboard-response","45","426693","0.0-1.0-57.0","0","0","48769","","null","","","null","6","NaN","","","","","","","","","","","","","","",""
"","S2","","html-keyboard-response","46","426945","0.0-1.0-58.0","0","0","48769","","null","","","null","6","","NaN","","","","","","","","","","","","","",""
"","response","","html-keyboard-response","47","427574","0.0-1.0-59.0-0.0","0","0","48769","","626","","","68","6","","","1","6","training","adjacent","CB","3","2","P.jpg","M.jpg","0","0","1","",""
"","feedback","","html-keyboard-response","48","428577","0.0-1.0-60.0-0.0","0","0","48769","","null","","","null","6","","","","","","","","","","","","","","","",""
"","ITI","","html-keyboard-response","49","429579","0.0-1.0-63.0","0","0","48769","","null","","","null","6","","","","","","","","","","","","","","","NaN",""
"","S1","","html-keyboard-response","50","429833","0.0-1.0-65.0","0","0","48769","","null","","","null","7","","","","","","","","","","","","","","","",""
"","ISI","","html-keyboard-response","51","431835","0.0-1.0-66.0","0","0","48769","","null","","","null","7","NaN","","","","","","","","","","","","","","",""
"","S2","","html-keyboard-response","52","432088","0.0-1.0-67.0","0","0","48769","","null","","","null","7","","NaN","","","","","","","","","","","","","",""
"","response","","html-keyboard-response","53","432621","0.0-1.0-68.0-0.0","0","0","48769","","532","","","68","7","","","1","7","training","adjacent","ED","5","4","Q.jpg","L.jpg","0","0","1","",""
"","feedback","","html-keyboard-response","54","433625","0.0-1.0-69.0-0.0","0","0","48769","","null","","","null","7","","","","","","","","","","","","","","","",""
"","ITI","","html-keyboard-response","55","434628","0.0-1.0-72.0","0","0","48769","","null","","","null","7","","","","","","","","","","","","","","","NaN",""
"","S1","","html-keyboard-response","56","434881","0.0-1.0-74.0","0","0","48769","","null","","","null","8","","","","","","","","","","","","","","","",""
"","ISI","","html-keyboard-response","57","436883","0.0-1.0-75.0","0","0","48769","","null","","","null","8","NaN","","","","","","","","","","","","","","",""
"","S2","","html-keyboard-response","58","437136","0.0-1.0-76.0","0","0","48769","","null","","","null","8","","NaN","","","","","","","","","","","","","",""
"","response","","html-keyboard-response","59","437485","0.0-1.0-77.0-0.0","0","0","48769","","347","","","75","8","","","1","8","training","adjacent","FG","6","7","N.jpg","O.jpg","1","1","1","",""
"","feedback","","html-keyboard-response","60","438489","0.0-1.0-78.0-0.0","0","0","48769","","null","","","null","8","","","","","","","","","","","","","","","",""
"","ITI","","html-keyboard-response","61","439493","0.0-1.0-81.0","0","0","48769","","null","","","null","8","","","","","","","","","","","","","","","NaN",""
"","S1","","html-keyboard-response","62","439746","0.0-1.0-83.0","0","0","48769","","null","","","null","9","","","","","","","","","","","","","","","",""
"","ISI","","html-keyboard-response","63","441749","0.0-1.0-84.0","0","0","48769","","null","","","null","9","NaN","","","","","","","","","","","","","","",""
"","S2","","html-keyboard-response","64","442002","0.0-1.0-85.0","0","0","48769","","null","","","null","9","","NaN","","","","","","","","","","","","","",""
"","response","","html-keyboard-response","65","442573","0.0-1.0-86.0-0.0","0","0","48769","","569","","","75","9","","","1","9","training","adjacent","DE","4","5","L.jpg","Q.jpg","1","1","1","",""
"","feedback","","html-keyboard-response","66","443576","0.0-1.0-87.0-0.0","0","0","48769","","null","","","null","9","","","","","","","","","","","","","","","",""
"","ITI","","html-keyboard-response","67","444579","0.0-1.0-90.0","0","0","48769","","null","","","null","9","","","","","","","","","","","","","","","NaN",""
"","S1","","html-keyboard-response","68","444833","0.0-1.0-92.0","0","0","48769","","null","","","null","10","","","","","","","","","","","","","","","",""
"","ISI","","html-keyboard-response","69","446835","0.0-1.0-93.0","0","0","48769","","null","","","null","10","NaN","","","","","","","","","","","","","","",""
"","S2","","html-keyboard-response","70","447088","0.0-1.0-94.0","0","0","48769","","null","","","null","10","","NaN","","","","","","","","","","","","","",""
"","response","","html-keyboard-response","71","447798","0.0-1.0-95.0-0.0","0","0","48769","","708","","","68","10","","","1","10","training","adjacent","GF","7","6","O.jpg","N.jpg","0","0","1","",""
"","feedback","","html-keyboard-response","72","448801","0.0-1.0-96.0-0.0","0","0","48769","","null","","","null","10","","","","","","","","","","","","","","","",""
"","ITI","","html-keyboard-response","73","449804","0.0-1.0-99.0","0","0","48769","","null","","","null","10","","","","","","","","","","","","","","","NaN",""
"","S1","","html-keyboard-response","74","450057","0.0-1.0-101.0","0","0","48769","","null","","","null","11","","","","","","","","","","","","","","","",""
"","ISI","","html-keyboard-response","75","452060","0.0-1.0-102.0","0","0","48769","","null","","","null","11","NaN","","","","","","","","","","","","","","",""
"","S2","","html-keyboard-response","76","452314","0.0-1.0-103.0","0","0","48769","","null","","","null","11","","NaN","","","","","","","","","","","","","",""
"","response","","html-keyboard-response","77","452710","0.0-1.0-104.0-0.0","0","0","48769","","394","","","68","11","","","1","11","training","adjacent","ED","5","4","Q.jpg","L.jpg","0","0","1","",""
"","feedback","","html-keyboard-response","78","453713","0.0-1.0-105.0-0.0","0","0","48769","","null","","","null","11","","","","","","","","","","","","","","","",""
"","ITI","","html-keyboard-response","79","454717","0.0-1.0-108.0","0","0","48769","","null","","","null","11","","","","","","","","","","","","","","","NaN",""
"","S1","","html-keyboard-response","80","454970","0.0-1.0-110.0","0","0","48769","","null","","","null","12","","","","","","","","","","","","","","","",""
"","ISI","","html-keyboard-response","81","456973","0.0-1.0-111.0","0","0","48769","","null","","","null","12","NaN","","","","","","","","","","","","","","",""
"","S2","","html-keyboard-response","82","457227","0.0-1.0-112.0","0","0","48769","","null","","","null","12","","NaN","","","","","","","","","","","","","",""
"","response","","html-keyboard-response","83","457637","0.0-1.0-113.0-0.0","0","0","48769","","408","","","68","12","","","1","12","training","adjacent","CD","3","4","P.jpg","L.jpg","0","1","0","",""
"","feedback","","html-keyboard-response","84","458640","0.0-1.0-114.0-0.0","0","0","48769","","null","","","null","12","","","","","","","","","","","","","","","",""
"","time_out","","html-keyboard-response","85","460642","0.0-1.0-116.0-0.0","0","0","48769","","null","","","null","12","","","","","","","","","","","","","","","",""
"","ITI","","html-keyboard-response","86","461646","0.0-1.0-117.0","0","0","48769","","null","","","null","12","","","","","","","","","","","","","","","NaN",""
"","S1","","html-keyboard-response","87","461899","0.0-1.0-119.0","0","0","48769","","null","","","null","13","","","","","","","","","","","","","","","",""
"","ISI","","html-keyboard-response","88","463901","0.0-1.0-120.0","0","0","48769","","null","","","null","13","NaN","","","","","","","","","","","","","","",""
"","S2","","html-keyboard-response","89","464155","0.0-1.0-121.0","0","0","48769","","null","","","null","13","","NaN","","","","","","","","","","","","","",""
"","response","","html-keyboard-response","90","464741","0.0-1.0-122.0-0.0","0","0","48769","","584","","","75","13","","","1","13","training","adjacent","DC","4","3","L.jpg","P.jpg","1","0","0","",""
"","feedback","","html-keyboard-response","91","465744","0.0-1.0-123.0-0.0","0","0","48769","","null","","","null","13","","","","","","","","","","","","","","","",""
"","time_out","","html-keyboard-response","92","467746","0.0-1.0-125.0-0.0","0","0","48769","","null","","","null","13","","","","","","","","","","","","","","","",""
"","ITI","","html-keyboard-response","93","468749","0.0-1.0-126.0","0","0","48769","","null","","","null","13","","","","","","","","","","","","","","","NaN",""
"","S1","","html-keyboard-response","94","469007","0.0-1.0-128.0","0","0","48769","","null","","","null","14","","","","","","","","","","","","","","","",""
"","ISI","","html-keyboard-response","95","471009","0.0-1.0-129.0","0","0","48769","","null","","","null","14","NaN","","","","","","","","","","","","","","",""
"","S2","","html-keyboard-response","96","471262","0.0-1.0-130.0","0","0","48769","","null","","","null","14","","NaN","","","","","","","","","","","","","",""
"","response","","html-keyboard-response","97","472189","0.0-1.0-131.0-0.0","0","0","48769","","925","","","68","14","","","1","14","training","adjacent","FE","6","5","N.jpg","Q.jpg","0","0","1","",""
"","feedback","","html-keyboard-response","98","473193","0.0-1.0-132.0-0.0","0","0","48769","","null","","","null","14","","","","","","","","","","","","","","","",""
"","ITI","","html-keyboard-response","99","474196","0.0-1.0-135.0","0","0","48769","","null","","","null","14","","","","","","","","","","","","","","","NaN",""
"","S1","","html-keyboard-response","100","474449","0.0-1.0-137.0","0","0","48769","","null","","","null","15","","","","","","","","","","","","","","","",""
"","ISI","","html-keyboard-response","101","476451","0.0-1.0-138.0","0","0","48769","","null","","","null","15","NaN","","","","","","","","","","","","","","",""
"","S2","","html-keyboard-response","102","476703","0.0-1.0-139.0","0","0","48769","","null","","","null","15","","NaN","","","","","","","","","","","","","",""
"","response","","html-keyboard-response","103","476989","0.0-1.0-140.0-0.0","0","0","48769","","284","","","75","15","","","1","15","training","adjacent","FE","6","5","N.jpg","Q.jpg","1","0","0","",""
"","feedback","","html-keyboard-response","104","477993","0.0-1.0-141.0-0.0","0","0","48769","","null","","","null","15","","","","","","","","","","","","","","","",""
"","time_out","","html-keyboard-response","105","479995","0.0-1.0-143.0-0.0","0","0","48769","","null","","","null","15","","","","","","","","","","","","","","","",""
"","ITI","","html-keyboard-response","106","480998","0.0-1.0-144.0","0","0","48769","","null","","","null","15","","","","","","","","","","","","","","","NaN",""
"","S1","","html-keyboard-response","107","481251","0.0-1.0-146.0","0","0","48769","","null","","","null","16","","","","","","","","","","","","","","","",""
"","ISI","","html-keyboard-response","108","483253","0.0-1.0-147.0","0","0","48769","","null","","","null","16","NaN","","","","","","","","","","","","","","",""
"","S2","","html-keyboard-response","109","483505","0.0-1.0-148.0","0","0","48769","","null","","","null","16","","NaN","","","","","","","","","","","","","",""
"","response","","html-keyboard-response","110","484133","0.0-1.0-149.0-0.0","0","0","48769","","626","","","68","16","","","1","16","training","adjacent","BA","2","1","M.jpg","R.jpg","0","0","1","",""
"","feedback","","html-keyboard-response","111","485137","0.0-1.0-150.0-0.0","0","0","48769","","null","","","null","16","","","","","","","","","","","","","","","",""
"","ITI","","html-keyboard-response","112","486140","0.0-1.0-153.0","0","0","48769","","null","","","null","16","","","","","","","","","","","","","","","NaN",""
"","S1","","html-keyboard-response","113","486394","0.0-1.0-155.0","0","0","48769","","null","","","null","17","","","","","","","","","","","","","","","",""
"","ISI","","html-keyboard-response","114","488396","0.0-1.0-156.0","0","0","48769","","null","","","null","17","NaN","","","","","","","","","","","","","","",""
"","S2","","html-keyboard-response","115","488650","0.0-1.0-157.0","0","0","48769","","null","","","null","17","","NaN","","","","","","","","","","","","","",""
"","response","","html-keyboard-response","116","489382","0.0-1.0-158.0-0.0","0","0","48769","","731","","","68","17","","","1","17","training","adjacent","CB","3","2","P.jpg","M.jpg","0","0","1","",""
"","feedback","","html-keyboard-response","117","490385","0.0-1.0-159.0-0.0","0","0","48769","","null","","","null","17","","","","","","","","","","","","","","","",""
"","ITI","","html-keyboard-response","118","491388","0.0-1.0-162.0","0","0","48769","","null","","","null","17","","","","","","","","","","","","","","","NaN",""
"","S1","","html-keyboard-response","119","491640","0.0-1.0-164.0","0","0","48769","","null","","","null","18","","","","","","","","","","","","","","","",""
"","ISI","","html-keyboard-response","120","493642","0.0-1.0-165.0","0","0","48769","","null","","","null","18","NaN","","","","","","","","","","","","","","",""
"","S2","","html-keyboard-response","121","493896","0.0-1.0-166.0","0","0","48769","","null","","","null","18","","NaN","","","","","","","","","","","","","",""
"","response","","html-keyboard-response","122","494981","0.0-1.0-167.0-0.0","0","0","48769","","1084","","","68","18","","","1","18","training","adjacent","EF","5","6","Q.jpg","N.jpg","0","1","0","",""
"","feedback","","html-keyboard-response","123","495984","0.0-1.0-168.0-0.0","0","0","48769","","null","","","null","18","","","","","","","","","","","","","","","",""
"","time_out","","html-keyboard-response","124","497987","0.0-1.0-170.0-0.0","0","0","48769","","null","","","null","18","","","","","","","","","","","","","","","",""
"","ITI","","html-keyboard-response","125","498989","0.0-1.0-171.0","0","0","48769","","null","","","null","18","","","","","","","","","","","","","","","NaN",""
"","S1","","html-keyboard-response","126","499242","0.0-1.0-173.0","0","0","48769","","null","","","null","19","","","","","","","","","","","","","","","",""
"","ISI","","html-keyboard-response","127","501244","0.0-1.0-174.0","0","0","48769","","null","","","null","19","NaN","","","","","","","","","","","","","","",""
"","S2","","html-keyboard-response","128","501498","0.0-1.0-175.0","0","0","48769","","null","","","null","19","","NaN","","","","","","","","","","","","","",""
"","response","","html-keyboard-response","129","501988","0.0-1.0-176.0-0.0","0","0","48769","","488","","","68","19","","","1","19","training","adjacent","AB","1","2","R.jpg","M.jpg","0","1","0","",""
"","feedback","","html-keyboard-response","130","502990","0.0-1.0-177.0-0.0","0","0","48769","","null","","","null","19","","","","","","","","","","","","","","","",""
"","time_out","","html-keyboard-response","131","504993","0.0-1.0-179.0-0.0","0","0","48769","","null","","","null","19","","","","","","","","","","","","","","","",""
"","ITI","","html-keyboard-response","132","505996","0.0-1.0-180.0","0","0","48769","","null","","","null","19","","","","","","","","","","","","","","","NaN",""
"","S1","","html-keyboard-response","133","506250","0.0-1.0-182.0","0","0","48769","","null","","","null","20","","","","","","","","","","","","","","","",""
"","ISI","","html-keyboard-response","134","508253","0.0-1.0-183.0","0","0","48769","","null","","","null","20","NaN","","","","","","","","","","","","","","",""
"","S2","","html-keyboard-response","135","508506","0.0-1.0-184.0","0","0","48769","","null","","","null","20","","NaN","","","","","","","","","","","","","",""
"","response","","html-keyboard-response","136","509068","0.0-1.0-185.0-0.0","0","0","48769","","560","","","68","20","","","1","20","training","adjacent","AB","1","2","R.jpg","M.jpg","0","1","0","",""
"","feedback","","html-keyboard-response","137","510071","0.0-1.0-186.0-0.0","0","0","48769","","null","","","null","20","","","","","","","","","","","","","","","",""
"","time_out","","html-keyboard-response","138","512073","0.0-1.0-188.0-0.0","0","0","48769","","null","","","null","20","","","","","","","","","","","","","","","",""
"","ITI","","html-keyboard-response","139","513076","0.0-1.0-189.0","0","0","48769","","null","","","null","20","","","","","","","","","","","","","","","NaN",""
"","S1","","html-keyboard-response","140","513329","0.0-1.0-191.0","0","0","48769","","null","","","null","21","","","","","","","","","","","","","","","",""
"","ISI","","html-keyboard-response","141","515332","0.0-1.0-192.0","0","0","48769","","1129","","","75","21","k","","","","","","","","","","","","","","",""
"","S2","","html-keyboard-response","142","515587","0.0-1.0-193.0","0","0","48769","","null","","","null","21","","NaN","","","","","","","","","","","","","",""
"","response","","html-keyboard-response","143","515654","0.0-1.0-194.0-0.0","0","0","48769","","65","","","75","21","","","1","21","training","adjacent","DC","4","3","L.jpg","P.jpg","1","0","0","",""
"","feedback","","html-keyboard-response","144","516656","0.0-1.0-195.0-0.0","0","0","48769","","null","","","null","21","","","","","","","","","","","","","","","",""
"","time_out","","html-keyboard-response","145","518660","0.0-1.0-197.0-0.0","0","0","48769","","null","","","null","21","","","","","","","","","","","","","","","",""
"","ITI","","html-keyboard-response","146","519664","0.0-1.0-198.0","0","0","48769","","null","","","null","21","","","","","","","","","","","","","","","NaN",""
"","S1","","html-keyboard-response","147","519916","0.0-1.0-200.0","0","0","48769","","null","","","null","22","","","","","","","","","","","","","","","",""
"","ISI","","html-keyboard-response","148","521918","0.0-1.0-201.0","0","0","48769","","null","","","null","22","NaN","","","","","","","","","","","","","","",""
"","S2","","html-keyboard-response","149","522172","0.0-1.0-202.0","0","0","48769","","null","","","null","22","","NaN","","","","","","","","","","","","","",""
"","response","","html-keyboard-response","150","522838","0.0-1.0-203.0-0.0","0","0","48769","","664","","","68","22","","","1","22","training","adjacent","CB","3","2","P.jpg","M.jpg","0","0","1","",""
"","feedback","","html-keyboard-response","151","523842","0.0-1.0-204.0-0.0","0","0","48769","","null","","","null","22","","","","","","","","","","","","","","","",""
"","ITI","","html-keyboard-response","152","524846","0.0-1.0-207.0","0","0","48769","","null","","","null","22","","","","","","","","","","","","","","","NaN",""
"","S1","","html-keyboard-response","153","525099","0.0-1.0-209.0","0","0","48769","","null","","","null","23","","","","","","","","","","","","","","","",""
"","ISI","","html-keyboard-response","154","527101","0.0-1.0-210.0","0","0","48769","","null","","","null","23","NaN","","","","","","","","","","","","","","",""
"","S2","","html-keyboard-response","155","527355","0.0-1.0-211.0","0","0","48769","","null","","","null","23","","NaN","","","","","","","","","","","","","",""
"","response","","html-keyboard-response","156","528452","0.0-1.0-212.0-0.0","0","0","48769","","1095","","","68","23","","","1","23","training","adjacent","EF","5","6","Q.jpg","N.jpg","0","1","0","",""
"","feedback","","html-keyboard-response","157","529455","0.0-1.0-213.0-0.0","0","0","48769","","null","","","null","23","","","","","","","","","","","","","","","",""
"","time_out","","html-keyboard-response","158","531458","0.0-1.0-215.0-0.0","0","0","48769","","null","","","null","23","","","","","","","","","","","","","","","",""
"","ITI","","html-keyboard-response","159","532462","0.0-1.0-216.0","0","0","48769","","null","","","null","23","","","","","","","","","","","","","","","NaN",""
"","S1","","html-keyboard-response","160","532715","0.0-1.0-218.0","0","0","48769","","null","","","null","24","","","","","","","","","","","","","","","",""
"","ISI","","html-keyboard-response","161","534718","0.0-1.0-219.0","0","0","48769","","null","","","null","24","NaN","","","","","","","","","","","","","","",""
"","S2","","html-keyboard-response","162","534798","0.0-1.0-220.0","0","0","48769","","77","","","68","24","","d","1","24","training","adjacent","BA","2","1","M.jpg","R.jpg","0","0","1","",""
"","feedback","","html-keyboard-response","163","535800","0.0-1.0-222.0-0.0","0","0","48769","","null","","","null","24","","","","","","","","","","","","","","","",""
"","ITI","","html-keyboard-response","164","536803","0.0-1.0-225.0","0","0","48769","","null","","","null","24","","","","","","","","","","","","","","","NaN",""
"","S1","","html-keyboard-response","165","537055","0.0-1.0-227.0","0","0","48769","","null","","","null","25","","","","","","","","","","","","","","","",""
"","ISI","","html-keyboard-response","166","539058","0.0-1.0-228.0","0","0","48769","","null","","","null","25","NaN","","","","","","","","","","","","","","",""
"","S2","","html-keyboard-response","167","539311","0.0-1.0-229.0","0","0","48769","","null","","","null","25","","NaN","","","","","","","","","","","","","",""
"","response","","html-keyboard-response","168","539934","0.0-1.0-230.0-0.0","0","0","48769","","621","","","68","25","","","1","25","training","adjacent","AB","1","2","R.jpg","M.jpg","0","1","0","",""
"","feedback","","html-keyboard-response","169","540952","0.0-1.0-231.0-0.0","0","0","48769","","null","","","null","25","","","","","","","","","","","","","","","",""
"","time_out","","html-keyboard-response","170","542956","0.0-1.0-233.0-0.0","0","0","48769","","null","","","null","25","","","","","","","","","","","","","","","",""
"","ITI","","html-keyboard-response","171","543959","0.0-1.0-234.0","0","0","48769","","null","","","null","25","","","","","","","","","","","","","","","NaN",""
"","S1","","html-keyboard-response","172","544211","0.0-1.0-236.0","0","0","48769","","null","","","null","26","","","","","","","","","","","","","","","",""
"","ISI","","html-keyboard-response","173","546215","0.0-1.0-237.0","0","0","48769","","1761","","","75","26","k","","","","","","","","","","","","","","",""
"","S2","","html-keyboard-response","174","546468","0.0-1.0-238.0","0","0","48769","","null","","","null","26","","NaN","","","","","","","","","","","","","",""
"","response","","html-keyboard-response","175","546925","0.0-1.0-239.0-0.0","0","0","48769","","455","","","75","26","","","1","26","training","adjacent","FE","6","5","N.jpg","Q.jpg","1","0","0","",""
"","feedback","","html-keyboard-response","176","547928","0.0-1.0-240.0-0.0","0","0","48769","","null","","","null","26","","","","","","","","","","","","","","","",""
"","time_out","","html-keyboard-response","177","549931","0.0-1.0-242.0-0.0","0","0","48769","","null","","","null","26","","","","","","","","","","","","","","","",""
"","ITI","","html-keyboard-response","178","550934","0.0-1.0-243.0","0","0","48769","","null","","","null","26","","","","","","","","","","","","","","","NaN",""
"","S1","","html-keyboard-response","179","551187","0.0-1.0-245.0","0","0","48769","","null","","","null","27","","","","","","","","","","","","","","","",""
"","ISI","","html-keyboard-response","180","553190","0.0-1.0-246.0","0","0","48769","","null","","","null","27","NaN","","","","","","","","","","","","","","",""
"","S2","","html-keyboard-response","181","553443","0.0-1.0-247.0","0","0","48769","","null","","","null","27","","NaN","","","","","","","","","","","","","",""
"","response","","html-keyboard-response","182","553861","0.0-1.0-248.0-0.0","0","0","48769","","416","","","75","27","","","1","27","training","adjacent","FE","6","5","N.jpg","Q.jpg","1","0","0","",""
"","feedback","","html-keyboard-response","183","554866","0.0-1.0-249.0-0.0","0","0","48769","","null","","","null","27","","","","","","","","","","","","","","","",""
"","time_out","","html-keyboard-response","184","556869","0.0-1.0-251.0-0.0","0","0","48769","","null","","","null","27","","","","","","","","","","","","","","","",""
"","ITI","","html-keyboard-response","185","557872","0.0-1.0-252.0","0","0","48769","","null","","","null","27","","","","","","","","","","","","","","","NaN",""
"","S1","","html-keyboard-response","186","558125","0.0-1.0-254.0","0","0","48769","","null","","","null","28","","","","","","","","","","","","","","","",""
"","ISI","","html-keyboard-response","187","560128","0.0-1.0-255.0","0","0","48769","","null","","","null","28","NaN","","","","","","","","","","","","","","",""
"","S2","","html-keyboard-response","188","560382","0.0-1.0-256.0","0","0","48769","","null","","","null","28","","NaN","","","","","","","","","","","","","",""
"","response","","html-keyboard-response","189","561149","0.0-1.0-257.0-0.0","0","0","48769","","764","","","68","28","","","1","28","training","adjacent","EF","5","6","Q.jpg","N.jpg","0","1","0","",""
"","feedback","","html-keyboard-response","190","562152","0.0-1.0-258.0-0.0","0","0","48769","","null","","","null","28","","","","","","","","","","","","","","","",""
"","time_out","","html-keyboard-response","191","564156","0.0-1.0-260.0-0.0","0","0","48769","","null","","","null","28","","","","","","","","","","","","","","","",""
"","ITI","","html-keyboard-response","192","565159","0.0-1.0-261.0","0","0","48769","","null","","","null","28","","","","","","","","","","","","","","","NaN",""
"","S1","","html-keyboard-response","193","565413","0.0-1.0-263.0","0","0","48769","","null","","","null","29","","","","","","","","","","","","","","","",""
"","ISI","","html-keyboard-response","194","567414","0.0-1.0-264.0","0","0","48769","","null","","","null","29","NaN","","","","","","","","","","","","","","",""
"","S2","","html-keyboard-response","195","567668","0.0-1.0-265.0","0","0","48769","","null","","","null","29","","NaN","","","","","","","","","","","","","",""
"","response","","html-keyboard-response","196","568038","0.0-1.0-266.0-0.0","0","0","48769","","368","","","68","29","","","1","29","training","adjacent","FG","6","7","N.jpg","O.jpg","0","1","0","",""
"","feedback","","html-keyboard-response","197","569040","0.0-1.0-267.0-0.0","0","0","48769","","null","","","null","29","","","","","","","","","","","","","","","",""
"","time_out","","html-keyboard-response","198","571044","0.0-1.0-269.0-0.0","0","0","48769","","null","","","null","29","","","","","","","","","","","","","","","",""
"","ITI","","html-keyboard-response","199","572047","0.0-1.0-270.0","0","0","48769","","null","","","null","29","","","","","","","","","","","","","","","NaN",""
"","S1","","html-keyboard-response","200","572300","0.0-1.0-272.0","0","0","48769","","null","","","null","30","","","","","","","","","","","","","","","",""
"","ISI","","html-keyboard-response","201","574303","0.0-1.0-273.0","0","0","48769","","null","","","null","30","NaN","","","","","","","","","","","","","","",""
"","S2","","html-keyboard-response","202","574557","0.0-1.0-274.0","0","0","48769","","null","","","null","30","","NaN","","","","","","","","","","","","","",""
"","response","","html-keyboard-response","203","574910","0.0-1.0-275.0-0.0","0","0","48769","","351","","","68","30","","","1","30","training","adjacent","CD","3","4","P.jpg","L.jpg","0","1","0","",""
"","feedback","","html-keyboard-response","204","575913","0.0-1.0-276.0-0.0","0","0","48769","","null","","","null","30","","","","","","","","","","","","","","","",""
"","time_out","","html-keyboard-response","205","577917","0.0-1.0-278.0-0.0","0","0","48769","","null","","","null","30","","","","","","","","","","","","","","","",""
"","ITI","","html-keyboard-response","206","578920","0.0-1.0-279.0","0","0","48769","","null","","","null","30","","","","","","","","","","","","","","","NaN",""
"","S1","","html-keyboard-response","207","579174","0.0-1.0-281.0","0","0","48769","","null","","","null","31","","","","","","","","","","","","","","","",""
"","ISI","","html-keyboard-response","208","581177","0.0-1.0-282.0","0","0","48769","","null","","","null","31","NaN","","","","","","","","","","","","","","",""
"","S2","","html-keyboard-response","209","581430","0.0-1.0-283.0","0","0","48769","","null","","","null","31","","NaN","","","","","","","","","","","","","",""
"","response","","html-keyboard-response","210","582014","0.0-1.0-284.0-0.0","0","0","48769","","582","","","68","31","","","1","31","training","adjacent","ED","5","4","Q.jpg","L.jpg","0","0","1","",""
"","feedback","","html-keyboard-response","211","583018","0.0-1.0-285.0-0.0","0","0","48769","","null","","","null","31","","","","","","","","","","","","","","","",""
"","ITI","","html-keyboard-response","212","584021","0.0-1.0-288.0","0","0","48769","","null","","","null","31","","","","","","","","","","","","","","","NaN",""
"","S1","","html-keyboard-response","213","584273","0.0-1.0-290.0","0","0","48769","","null","","","null","32","","","","","","","","","","","","","","","",""
"","ISI","","html-keyboard-response","214","586276","0.0-1.0-291.0","0","0","48769","","null","","","null","32","NaN","","","","","","","","","","","","","","",""
"","S2","","html-keyboard-response","215","586530","0.0-1.0-292.0","0","0","48769","","null","","","null","32","","NaN","","","","","","","","","","","","","",""
"","response","","html-keyboard-response","216","586958","0.0-1.0-293.0-0.0","0","0","48769","","427","","","68","32","","","1","32","training","adjacent","BA","2","1","M.jpg","R.jpg","0","0","1","",""
"","feedback","","html-keyboard-response","217","587961","0.0-1.0-294.0-0.0","0","0","48769","","null","","","null","32","","","","","","","","","","","","","","","",""
"","ITI","","html-keyboard-response","218","588964","0.0-1.0-297.0","0","0","48769","","null","","","null","32","","","","","","","","","","","","","","","NaN",""
"","S1","","html-keyboard-response","219","589216","0.0-1.0-299.0","0","0","48769","","null","","","null","33","","","","","","","","","","","","","","","",""
"","ISI","","html-keyboard-response","220","591218","0.0-1.0-300.0","0","0","48769","","null","","","null","33","NaN","","","","","","","","","","","","","","",""
"","S2","","html-keyboard-response","221","591471","0.0-1.0-301.0","0","0","48769","","null","","","null","33","","NaN","","","","","","","","","","","","","",""
"","response","","html-keyboard-response","222","591925","0.0-1.0-302.0-0.0","0","0","48769","","452","","","68","33","","","1","33","training","adjacent","ED","5","4","Q.jpg","L.jpg","0","0","1","",""
"","feedback","","html-keyboard-response","223","592928","0.0-1.0-303.0-0.0","0","0","48769","","null","","","null","33","","","","","","","","","","","","","","","",""
"","ITI","","html-keyboard-response","224","593931","0.0-1.0-306.0","0","0","48769","","null","","","null","33","","","","","","","","","","","","","","","NaN",""
"","S1","","html-keyboard-response","225","594185","0.0-1.0-308.0","0","0","48769","","null","","","null","34","","","","","","","","","","","","","","","",""
"","ISI","","html-keyboard-response","226","596187","0.0-1.0-309.0","0","0","48769","","null","","","null","34","NaN","","","","","","","","","","","","","","",""
"","S2","","html-keyboard-response","227","596441","0.0-1.0-310.0","0","0","48769","","null","","","null","34","","NaN","","","","","","","","","","","","","",""
"","response","","html-keyboard-response","228","597549","0.0-1.0-311.0-0.0","0","0","48769","","1106","","","68","34","","","1","34","training","adjacent","BC","2","3","M.jpg","P.jpg","0","1","0","",""
"","feedback","","html-keyboard-response","229","598553","0.0-1.0-312.0-0.0","0","0","48769","","null","","","null","34","","","","","","","","","","","","","","","",""
"","time_out","","html-keyboard-response","230","600555","0.0-1.0-314.0-0.0","0","0","48769","","null","","","null","34","","","","","","","","","","","","","","","",""
"","ITI","","html-keyboard-response","231","601558","0.0-1.0-315.0","0","0","48769","","null","","","null","34","","","","","","","","","","","","","","","NaN",""
"","S1","","html-keyboard-response","232","601811","0.0-1.0-317.0","0","0","48769","","null","","","null","35","","","","","","","","","","","","","","","",""
"","ISI","","html-keyboard-response","233","603814","0.0-1.0-318.0","0","0","48769","","null","","","null","35","NaN","","","","","","","","","","","","","","",""
"","S2","","html-keyboard-response","234","604068","0.0-1.0-319.0","0","0","48769","","null","","","null","35","","NaN","","","","","","","","","","","","","",""
"","response","","html-keyboard-response","235","604470","0.0-1.0-320.0-0.0","0","0","48769","","399","","","75","35","","","1","35","training","adjacent","FG","6","7","N.jpg","O.jpg","1","1","1","",""
"","feedback","","html-keyboard-response","236","605474","0.0-1.0-321.0-0.0","0","0","48769","","null","","","null","35","","","","","","","","","","","","","","","",""
"","ITI","","html-keyboard-response","237","606477","0.0-1.0-324.0","0","0","48769","","null","","","null","35","","","","","","","","","","","","","","","NaN",""
"","S1","","html-keyboard-response","238","606729","0.0-1.0-326.0","0","0","48769","","null","","","null","36","","","","","","","","","","","","","","","",""
"","ISI","","html-keyboard-response","239","608731","0.0-1.0-327.0","0","0","48769","","null","","","null","36","NaN","","","","","","","","","","","","","","",""
"","S2","","html-keyboard-response","240","608983","0.0-1.0-328.0","0","0","48769","","null","","","null","36","","NaN","","","","","","","","","","","","","",""
"","response","","html-keyboard-response","241","609406","0.0-1.0-329.0-0.0","0","0","48769","","421","","","75","36","","","1","36","training","adjacent","BC","2","3","M.jpg","P.jpg","1","1","1","",""
"","feedback","","html-keyboard-response","242","610410","0.0-1.0-330.0-0.0","0","0","48769","","null","","","null","36","","","","","","","","","","","","","","","",""
"","ITI","","html-keyboard-response","243","611413","0.0-1.0-333.0","0","0","48769","","null","","","null","36","","","","","","","","","","","","","","","NaN",""
"","S1","","html-keyboard-response","244","611666","0.0-1.0-335.0","0","0","48769","","null","","","null","37","","","","","","","","","","","","","","","",""
"","ISI","","html-keyboard-response","245","613668","0.0-1.0-336.0","0","0","48769","","null","","","null","37","NaN","","","","","","","","","","","","","","",""
"","S2","","html-keyboard-response","246","613921","0.0-1.0-337.0","0","0","48769","","null","","","null","37","","NaN","","","","","","","","","","","","","",""
"","response","","html-keyboard-response","247","614350","0.0-1.0-338.0-0.0","0","0","48769","","426","","","68","37","","","1","37","training","adjacent","CD","3","4","P.jpg","L.jpg","0","1","0","",""
"","feedback","","html-keyboard-response","248","615353","0.0-1.0-339.0-0.0","0","0","48769","","null","","","null","37","","","","","","","","","","","","","","","",""
"","time_out","","html-keyboard-response","249","617356","0.0-1.0-341.0-0.0","0","0","48769","","null","","","null","37","","","","","","","","","","","","","","","",""
"","ITI","","html-keyboard-response","250","618360","0.0-1.0-342.0","0","0","48769","","null","","","null","37","","","","","","","","","","","","","","","NaN",""
"","S1","","html-keyboard-response","251","618613","0.0-1.0-344.0","0","0","48769","","null","","","null","38","","","","","","","","","","","","","","","",""
"","ISI","","html-keyboard-response","252","620617","0.0-1.0-345.0","0","0","48769","","918","","","68","38","d","","","","","","","","","","","","","","",""
"","S2","","html-keyboard-response","253","620870","0.0-1.0-346.0","0","0","48769","","null","","","null","38","","NaN","","","","","","","","","","","","","",""
"","response","","html-keyboard-response","254","621533","0.0-1.0-347.0-0.0","0","0","48769","","662","","","75","38","","","1","38","training","adjacent","BA","2","1","M.jpg","R.jpg","1","0","0","",""
"","feedback","","html-keyboard-response","255","622537","0.0-1.0-348.0-0.0","0","0","48769","","null","","","null","38","","","","","","","","","","","","","","","",""
"","time_out","","html-keyboard-response","256","624540","0.0-1.0-350.0-0.0","0","0","48769","","null","","","null","38","","","","","","","","","","","","","","","",""
"","ITI","","html-keyboard-response","257","625543","0.0-1.0-351.0","0","0","48769","","null","","","null","38","","","","","","","","","","","","","","","NaN",""
"","S1","","html-keyboard-response","258","625796","0.0-1.0-353.0","0","0","48769","","null","","","null","39","","","","","","","","","","","","","","","",""
"","ISI","","html-keyboard-response","259","627799","0.0-1.0-354.0","0","0","48769","","null","","","null","39","NaN","","","","","","","","","","","","","","",""
"","S2","","html-keyboard-response","260","628053","0.0-1.0-355.0","0","0","48769","","null","","","null","39","","NaN","","","","","","","","","","","","","",""
"","response","","html-keyboard-response","261","628694","0.0-1.0-356.0-0.0","0","0","48769","","639","","","68","39","","","1","39","training","adjacent","DC","4","3","L.jpg","P.jpg","0","0","1","",""
"","feedback","","html-keyboard-response","262","629696","0.0-1.0-357.0-0.0","0","0","48769","","null","","","null","39","","","","","","","","","","","","","","","",""
"","ITI","","html-keyboard-response","263","630700","0.0-1.0-360.0","0","0","48769","","null","","","null","39","","","","","","","","","","","","","","","NaN",""
"","S1","","html-keyboard-response","264","630953","0.0-1.0-362.0","0","0","48769","","null","","","null","40","","","","","","","","","","","","","","","",""
"","ISI","","html-keyboard-response","265","632957","0.0-1.0-363.0","0","0","48769","","null","","","null","40","NaN","","","","","","","","","","","","","","",""
"","S2","","html-keyboard-response","266","633209","0.0-1.0-364.0","0","0","48769","","null","","","null","40","","NaN","","","","","","","","","","","","","",""
"","response","","html-keyboard-response","267","634318","0.0-1.0-365.0-0.0","0","0","48769","","1107","","","68","40","","","1","40","training","adjacent","CD","3","4","P.jpg","L.jpg","0","1","0","",""
"","feedback","","html-keyboard-response","268","635334","0.0-1.0-366.0-0.0","0","0","48769","","null","","","null","40","","","","","","","","","","","","","","","",""
"","time_out","","html-keyboard-response","269","637337","0.0-1.0-368.0-0.0","0","0","48769","","null","","","null","40","","","","","","","","","","","","","","","",""
"","ITI","","html-keyboard-response","270","638340","0.0-1.0-369.0","0","0","48769","","null","","","null","40","","","","","","","","","","","","","","","NaN",""
"","S1","","html-keyboard-response","271","638593","0.0-1.0-371.0","0","0","48769","","null","","","null","41","","","","","","","","","","","","","","","",""
"","ISI","","html-keyboard-response","272","640595","0.0-1.0-372.0","0","0","48769","","null","","","null","41","NaN","","","","","","","","","","","","","","",""
"","S2","","html-keyboard-response","273","640849","0.0-1.0-373.0","0","0","48769","","null","","","null","41","","NaN","","","","","","","","","","","","","",""
"","response","","html-keyboard-response","274","641671","0.0-1.0-374.0-0.0","0","0","48769","","819","","","68","41","","","1","41","training","adjacent","DE","4","5","L.jpg","Q.jpg","0","1","0","",""
"","feedback","","html-keyboard-response","275","642675","0.0-1.0-375.0-0.0","0","0","48769","","null","","","null","41","","","","","","","","","","","","","","","",""
"","time_out","","html-keyboard-response","276","644678","0.0-1.0-377.0-0.0","0","0","48769","","null","","","null","41","","","","","","","","","","","","","","","",""
"","ITI","","html-keyboard-response","277","645681","0.0-1.0-378.0","0","0","48769","","null","","","null","41","","","","","","","","","","","","","","","NaN",""
"","S1","","html-keyboard-response","278","645935","0.0-1.0-380.0","0","0","48769","","null","","","null","42","","","","","","","","","","","","","","","",""
"","ISI","","html-keyboard-response","279","647938","0.0-1.0-381.0","0","0","48769","","null","","","null","42","NaN","","","","","","","","","","","","","","",""
"","S2","","html-keyboard-response","280","648190","0.0-1.0-382.0","0","0","48769","","null","","","null","42","","NaN","","","","","","","","","","","","","",""
"","response","","html-keyboard-response","281","649062","0.0-1.0-383.0-0.0","0","0","48769","","869","","","68","42","","","1","42","training","adjacent","DC","4","3","L.jpg","P.jpg","0","0","1","",""
"","feedback","","html-keyboard-response","282","650077","0.0-1.0-384.0-0.0","0","0","48769","","null","","","null","42","","","","","","","","","","","","","","","",""
"","ITI","","html-keyboard-response","283","651080","0.0-1.0-387.0","0","0","48769","","null","","","null","42","","","","","","","","","","","","","","","NaN",""
"","S1","","html-keyboard-response","284","651333","0.0-1.0-389.0","0","0","48769","","null","","","null","43","","","","","","","","","","","","","","","",""
"","ISI","","html-keyboard-response","285","653335","0.0-1.0-390.0","0","0","48769","","null","","","null","43","NaN","","","","","","","","","","","","","","",""
"","S2","","html-keyboard-response","286","653589","0.0-1.0-391.0","0","0","48769","","null","","","null","43","","NaN","","","","","","","","","","","","","",""
"","response","","html-keyboard-response","287","654446","0.0-1.0-392.0-0.0","0","0","48769","","855","","","75","43","","","1","43","training","adjacent","BC","2","3","M.jpg","P.jpg","1","1","1","",""
"","feedback","","html-keyboard-response","288","655449","0.0-1.0-393.0-0.0","0","0","48769","","null","","","null","43","","","","","","","","","","","","","","","",""
"","ITI","","html-keyboard-response","289","656453","0.0-1.0-396.0","0","0","48769","","null","","","null","43","","","","","","","","","","","","","","","NaN",""
"","S1","","html-keyboard-response","290","656706","0.0-1.0-398.0","0","0","48769","","null","","","null","44","","","","","","","","","","","","","","","",""
"","ISI","","html-keyboard-response","291","658710","0.0-1.0-399.0","0","0","48769","","553","","","68","44","d","","","","","","","","","","","","","","",""
"","S2","","html-keyboard-response","292","658977","0.0-1.0-400.0","0","0","48769","","null","","","null","44","","NaN","","","","","","","","","","","","","",""
"","response","","html-keyboard-response","293","658996","0.0-1.0-401.0-0.0","0","0","48769","","17","","","68","44","","","1","44","training","adjacent","FG","6","7","N.jpg","O.jpg","0","1","0","",""
"","feedback","","html-keyboard-response","294","659999","0.0-1.0-402.0-0.0","0","0","48769","","null","","","null","44","","","","","","","","","","","","","","","",""
"","time_out","","html-keyboard-response","295","662002","0.0-1.0-404.0-0.0","0","0","48769","","null","","","null","44","","","","","","","","","","","","","","","",""
"","ITI","","html-keyboard-response","296","663018","0.0-1.0-405.0","0","0","48769","","null","","","null","44","","","","","","","","","","","","","","","NaN",""
"","S1","","html-keyboard-response","297","663271","0.0-1.0-407.0","0","0","48769","","null","","","null","45","","","","","","","","","","","","","","","",""
"","ISI","","html-keyboard-response","298","665274","0.0-1.0-408.0","0","0","48769","","773","","","75","45","k","","","","","","","","","","","","","","",""
"","S2","","html-keyboard-response","299","665528","0.0-1.0-409.0","0","0","48769","","null","","","null","45","","NaN","","","","","","","","","","","","","",""
"","response","","html-keyboard-response","300","666430","0.0-1.0-410.0-0.0","0","0","48769","","899","","","68","45","","","1","45","training","adjacent","BC","2","3","M.jpg","P.jpg","0","1","0","",""
"","feedback","","html-keyboard-response","301","667432","0.0-1.0-411.0-0.0","0","0","48769","","null","","","null","45","","","","","","","","","","","","","","","",""
"","time_out","","html-keyboard-response","302","669434","0.0-1.0-413.0-0.0","0","0","48769","","null","","","null","45","","","","","","","","","","","","","","","",""
"","ITI","","html-keyboard-response","303","670437","0.0-1.0-414.0","0","0","48769","","null","","","null","45","","","","","","","","","","","","","","","NaN",""
"","S1","","html-keyboard-response","304","670690","0.0-1.0-416.0","0","0","48769","","null","","","null","46","","","","","","","","","","","","","","","",""
"","ISI","","html-keyboard-response","305","672693","0.0-1.0-417.0","0","0","48769","","null","","","null","46","NaN","","","","","","","","","","","","","","",""
"","S2","","html-keyboard-response","306","672947","0.0-1.0-418.0","0","0","48769","","null","","","null","46","","NaN","","","","","","","","","","","","","",""
"","response","","html-keyboard-response","307","673101","0.0-1.0-419.0-0.0","0","0","48769","","152","","","75","46","","","1","46","training","adjacent","AB","1","2","R.jpg","M.jpg","1","1","1","",""
"","feedback","","html-keyboard-response","308","674115","0.0-1.0-420.0-0.0","0","0","48769","","null","","","null","46","","","","","","","","","","","","","","","",""
"","ITI","","html-keyboard-response","309","675118","0.0-1.0-423.0","0","0","48769","","null","","","null","46","","","","","","","","","","","","","","","NaN",""
"","S1","","html-keyboard-response","310","675372","0.0-1.0-425.0","0","0","48769","","null","","","null","47","","","","","","","","","","","","","","","",""
"","ISI","","html-keyboard-response","311","677375","0.0-1.0-426.0","0","0","48769","","null","","","null","47","NaN","","","","","","","","","","","","","","",""
"","S2","","html-keyboard-response","312","677629","0.0-1.0-427.0","0","0","48769","","null","","","null","47","","NaN","","","","","","","","","","","","","",""
"","response","","html-keyboard-response","313","678126","0.0-1.0-428.0-0.0","0","0","48769","","495","","","68","47","","","1","47","training","adjacent","DE","4","5","L.jpg","Q.jpg","0","1","0","",""
"","feedback","","html-keyboard-response","314","679131","0.0-1.0-429.0-0.0","0","0","48769","","null","","","null","47","","","","","","","","","","","","","","","",""
"","time_out","","html-keyboard-response","315","681135","0.0-1.0-431.0-0.0","0","0","48769","","null","","","null","47","","","","","","","","","","","","","","","",""
"","ITI","","html-keyboard-response","316","682138","0.0-1.0-432.0","0","0","48769","","null","","","null","47","","","","","","","","","","","","","","","NaN",""
"","block_over","","html-keyboard-response","317","694614","0.0-1.0-433.0-0.0","0","0","48769","","12473","","","32","47","","","","","","","","","","","","","","","",""
"","S1","","html-keyboard-response","318","694868","0.0-1.0-434.0","0","0","48769","","null","","","null","48","","","","","","","","","","","","","","","",""
"","ISI","","html-keyboard-response","319","696872","0.0-1.0-435.0","0","0","48769","","null","","","null","48","NaN","","","","","","","","","","","","","","",""
"","S2","","html-keyboard-response","320","697126","0.0-1.0-436.0","0","0","48769","","null","","","null","48","","NaN","","","","","","","","","","","","","",""
"","response","","html-keyboard-response","321","697958","0.0-1.0-437.0-0.0","0","0","48769","","829","","","75","48","","","2","48","training","adjacent","DC","4","3","L.jpg","P.jpg","1","0","0","",""
"","feedback","","html-keyboard-response","322","698960","0.0-1.0-438.0-0.0","0","0","48769","","null","","","null","48","","","","","","","","","","","","","","","",""
"","time_out","","html-keyboard-response","323","700964","0.0-1.0-440.0-0.0","0","0","48769","","null","","","null","48","","","","","","","","","","","","","","","",""
"","ITI","","html-keyboard-response","324","701968","0.0-1.0-441.0","0","0","48769","","null","","","null","48","","","","","","","","","","","","","","","NaN",""
"","S1","","html-keyboard-response","325","702221","0.0-1.0-443.0","0","0","48769","","null","","","null","49","","","","","","","","","","","","","","","",""
"","ISI","","html-keyboard-response","326","704223","0.0-1.0-444.0","0","0","48769","","null","","","null","49","NaN","","","","","","","","","","","","","","",""
"","S2","","html-keyboard-response","327","704477","0.0-1.0-445.0","0","0","48769","","null","","","null","49","","NaN","","","","","","","","","","","","","",""
"","response","","html-keyboard-response","328","704902","0.0-1.0-446.0-0.0","0","0","48769","","423","","","75","49","","","2","49","training","adjacent","DC","4","3","L.jpg","P.jpg","1","0","0","",""
"","feedback","","html-keyboard-response","329","705906","0.0-1.0-447.0-0.0","0","0","48769","","null","","","null","49","","","","","","","","","","","","","","","",""
"","time_out","","html-keyboard-response","330","707909","0.0-1.0-449.0-0.0","0","0","48769","","null","","","null","49","","","","","","","","","","","","","","","",""
"","ITI","","html-keyboard-response","331","708911","0.0-1.0-450.0","0","0","48769","","null","","","null","49","","","","","","","","","","","","","","","NaN",""
"","S1","","html-keyboard-response","332","709163","0.0-1.0-452.0","0","0","48769","","null","","","null","50","","","","","","","","","","","","","","","",""
"","ISI","","html-keyboard-response","333","711165","0.0-1.0-453.0","0","0","48769","","null","","","null","50","NaN","","","","","","","","","","","","","","",""
"","S2","","html-keyboard-response","334","711418","0.0-1.0-454.0","0","0","48769","","null","","","null","50","","NaN","","","","","","","","","","","","","",""
"","response","","html-keyboard-response","335","711637","0.0-1.0-455.0-0.0","0","0","48769","","217","","","75","50","","","2","50","training","adjacent","BA","2","1","M.jpg","R.jpg","1","0","0","",""
"","feedback","","html-keyboard-response","336","712642","0.0-1.0-456.0-0.0","0","0","48769","","null","","","null","50","","","","","","","","","","","","","","","",""
"","time_out","","html-keyboard-response","337","714646","0.0-1.0-458.0-0.0","0","0","48769","","null","","","null","50","","","","","","","","","","","","","","","",""
"","ITI","","html-keyboard-response","338","715649","0.0-1.0-459.0","0","0","48769","","null","","","null","50","","","","","","","","","","","","","","","NaN",""
"","S1","","html-keyboard-response","339","715903","0.0-1.0-461.0","0","0","48769","","null","","","null","51","","","","","","","","","","","","","","","",""
"","ISI","","html-keyboard-response","340","717905","0.0-1.0-462.0","0","0","48769","","null","","","null","51","NaN","","","","","","","","","","","","","","",""
"","S2","","html-keyboard-response","341","718159","0.0-1.0-463.0","0","0","48769","","null","","","null","51","","NaN","","","","","","","","","","","","","",""
"","response","","html-keyboard-response","342","719207","0.0-1.0-464.0-0.0","0","0","48769","","1045","","","68","51","","","2","51","training","adjacent","CB","3","2","P.jpg","M.jpg","0","0","1","",""
"","feedback","","html-keyboard-response","343","720222","0.0-1.0-465.0-0.0","0","0","48769","","null","","","null","51","","","","","","","","","","","","","","","",""
"","ITI","","html-keyboard-response","344","721224","0.0-1.0-468.0","0","0","48769","","null","","","null","51","","","","","","","","","","","","","","","NaN",""
"","S1","","html-keyboard-response","345","721476","0.0-1.0-470.0","0","0","48769","","null","","","null","52","","","","","","","","","","","","","","","",""
"","ISI","","html-keyboard-response","346","723479","0.0-1.0-471.0","0","0","48769","","null","","","null","52","NaN","","","","","","","","","","","","","","",""
"","S2","","html-keyboard-response","347","723733","0.0-1.0-472.0","0","0","48769","","null","","","null","52","","NaN","","","","","","","","","","","","","",""
"","response","","html-keyboard-response","348","724611","0.0-1.0-473.0-0.0","0","0","48769","","877","","","75","52","","","2","52","training","adjacent","GF","7","6","O.jpg","N.jpg","1","0","0","",""
"","feedback","","html-keyboard-response","349","725614","0.0-1.0-474.0-0.0","0","0","48769","","null","","","null","52","","","","","","","","","","","","","","","",""
"","time_out","","html-keyboard-response","350","727617","0.0-1.0-476.0-0.0","0","0","48769","","null","","","null","52","","","","","","","","","","","","","","","",""
"","ITI","","html-keyboard-response","351","728620","0.0-1.0-477.0","0","0","48769","","null","","","null","52","","","","","","","","","","","","","","","NaN",""
"","S1","","html-keyboard-response","352","728873","0.0-1.0-479.0","0","0","48769","","null","","","null","53","","","","","","","","","","","","","","","",""
"","ISI","","html-keyboard-response","353","730876","0.0-1.0-480.0","0","0","48769","","null","","","null","53","NaN","","","","","","","","","","","","","","",""
"","S2","","html-keyboard-response","354","731129","0.0-1.0-481.0","0","0","48769","","null","","","null","53","","NaN","","","","","","","","","","","","","",""
"","response","","html-keyboard-response","355","731406","0.0-1.0-482.0-0.0","0","0","48769","","274","","","68","53","","","2","53","training","adjacent","ED","5","4","Q.jpg","L.jpg","0","0","1","",""
"","feedback","","html-keyboard-response","356","732408","0.0-1.0-483.0-0.0","0","0","48769","","null","","","null","53","","","","","","","","","","","","","","","",""
"","ITI","","html-keyboard-response","357","733411","0.0-1.0-486.0","0","0","48769","","null","","","null","53","","","","","","","","","","","","","","","NaN",""
"","S1","","html-keyboard-response","358","733664","0.0-1.0-488.0","0","0","48769","","null","","","null","54","","","","","","","","","","","","","","","",""
"","ISI","","html-keyboard-response","359","735667","0.0-1.0-489.0","0","0","48769","","null","","","null","54","NaN","","","","","","","","","","","","","","",""
"","S2","","html-keyboard-response","360","735921","0.0-1.0-490.0","0","0","48769","","null","","","null","54","","NaN","","","","","","","","","","","","","",""
"","response","","html-keyboard-response","361","736460","0.0-1.0-491.0-0.0","0","0","48769","","538","","","68","54","","","2","54","training","adjacent","EF","5","6","Q.jpg","N.jpg","0","1","0","",""
"","feedback","","html-keyboard-response","362","737462","0.0-1.0-492.0-0.0","0","0","48769","","null","","","null","54","","","","","","","","","","","","","","","",""
"","time_out","","html-keyboard-response","363","739466","0.0-1.0-494.0-0.0","0","0","48769","","null","","","null","54","","","","","","","","","","","","","","","",""
"","ITI","","html-keyboard-response","364","740469","0.0-1.0-495.0","0","0","48769","","null","","","null","54","","","","","","","","","","","","","","","NaN",""
"","S1","","html-keyboard-response","365","740722","0.0-1.0-497.0","0","0","48769","","null","","","null","55","","","","","","","","","","","","","","","",""
"","ISI","","html-keyboard-response","366","742726","0.0-1.0-498.0","0","0","48769","","null","","","null","55","NaN","","","","","","","","","","","","","","",""
"","S2","","html-keyboard-response","367","742980","0.0-1.0-499.0","0","0","48769","","null","","","null","55","","NaN","","","","","","","","","","","","","",""
"","response","","html-keyboard-response","368","743478","0.0-1.0-500.0-0.0","0","0","48769","","496","","","75","55","","","2","55","training","adjacent","DC","4","3","L.jpg","P.jpg","1","0","0","",""
"","feedback","","html-keyboard-response","369","744483","0.0-1.0-501.0-0.0","0","0","48769","","null","","","null","55","","","","","","","","","","","","","","","",""
"","time_out","","html-keyboard-response","370","746486","0.0-1.0-503.0-0.0","0","0","48769","","null","","","null","55","","","","","","","","","","","","","","","",""
"","ITI","","html-keyboard-response","371","747489","0.0-1.0-504.0","0","0","48769","","null","","","null","55","","","","","","","","","","","","","","","NaN",""
"","S1","","html-keyboard-response","372","747742","0.0-1.0-506.0","0","0","48769","","null","","","null","56","","","","","","","","","","","","","","","",""
"","ISI","","html-keyboard-response","373","749745","0.0-1.0-507.0","0","0","48769","","null","","","null","56","NaN","","","","","","","","","","","","","","",""
"","S2","","html-keyboard-response","374","749998","0.0-1.0-508.0","0","0","48769","","null","","","null","56","","NaN","","","","","","","","","","","","","",""
"","response","","html-keyboard-response","375","750182","0.0-1.0-509.0-0.0","0","0","48769","","181","","","68","56","","","2","56","training","adjacent","CD","3","4","P.jpg","L.jpg","0","1","0","",""
"","feedback","","html-keyboard-response","376","751186","0.0-1.0-510.0-0.0","0","0","48769","","null","","","null","56","","","","","","","","","","","","","","","",""
"","time_out","","html-keyboard-response","377","753189","0.0-1.0-512.0-0.0","0","0","48769","","null","","","null","56","","","","","","","","","","","","","","","",""
"","ITI","","html-keyboard-response","378","754192","0.0-1.0-513.0","0","0","48769","","null","","","null","56","","","","","","","","","","","","","","","NaN",""
"","S1","","html-keyboard-response","379","754445","0.0-1.0-515.0","0","0","48769","","null","","","null","57","","","","","","","","","","","","","","","",""
"","ISI","","html-keyboard-response","380","756448","0.0-1.0-516.0","0","0","48769","","503","","","68","57","d","","","","","","","","","","","","","","",""
"","S2","","html-keyboard-response","381","756707","0.0-1.0-517.0","0","0","48769","","null","","","null","57","","NaN","","","","","","","","","","","","","",""
"","response","","html-keyboard-response","382","757086","0.0-1.0-518.0-0.0","0","0","48769","","376","","","75","57","","","2","57","training","adjacent","DE","4","5","L.jpg","Q.jpg","1","1","1","",""
"","feedback","","html-keyboard-response","383","758089","0.0-1.0-519.0-0.0","0","0","48769","","null","","","null","57","","","","","","","","","","","","","","","",""
"","ITI","","html-keyboard-response","384","759092","0.0-1.0-522.0","0","0","48769","","null","","","null","57","","","","","","","","","","","","","","","NaN",""
"","S1","","html-keyboard-response","385","759346","0.0-1.0-524.0","0","0","48769","","null","","","null","58","","","","","","","","","","","","","","","",""
"","ISI","","html-keyboard-response","386","761349","0.0-1.0-525.0","0","0","48769","","null","","","null","58","NaN","","","","","","","","","","","","","","",""
"","S2","","html-keyboard-response","387","761603","0.0-1.0-526.0","0","0","48769","","null","","","null","58","","NaN","","","","","","","","","","","","","",""
"","response","","html-keyboard-response","388","761757","0.0-1.0-527.0-0.0","0","0","48769","","152","","","75","58","","","2","58","training","adjacent","FE","6","5","N.jpg","Q.jpg","1","0","0","",""
"","feedback","","html-keyboard-response","389","762760","0.0-1.0-528.0-0.0","0","0","48769","","null","","","null","58","","","","","","","","","","","","","","","",""
"","time_out","","html-keyboard-response","390","764762","0.0-1.0-530.0-0.0","0","0","48769","","null","","","null","58","","","","","","","","","","","","","","","",""
"","ITI","","html-keyboard-response","391","765766","0.0-1.0-531.0","0","0","48769","","null","","","null","58","","","","","","","","","","","","","","","NaN",""
"","S1","","html-keyboard-response","392","766019","0.0-1.0-533.0","0","0","48769","","null","","","null","59","","","","","","","","","","","","","","","",""
"","ISI","","html-keyboard-response","393","768021","0.0-1.0-534.0","0","0","48769","","null","","","null","59","NaN","","","","","","","","","","","","","","",""
"","S2","","html-keyboard-response","394","768289","0.0-1.0-535.0","0","0","48769","","null","","","null","59","","NaN","","","","","","","","","","","","","",""
"","response","","html-keyboard-response","395","769045","0.0-1.0-536.0-0.0","0","0","48769","","755","","","75","59","","","2","59","training","adjacent","DE","4","5","L.jpg","Q.jpg","1","1","1","",""
"","feedback","","html-keyboard-response","396","770049","0.0-1.0-537.0-0.0","0","0","48769","","null","","","null","59","","","","","","","","","","","","","","","",""
"","ITI","","html-keyboard-response","397","771052","0.0-1.0-540.0","0","0","48769","","null","","","null","59","","","","","","","","","","","","","","","NaN",""
"","S1","","html-keyboard-response","398","771306","0.0-1.0-542.0","0","0","48769","","null","","","null","60","","","","","","","","","","","","","","","",""
"","ISI","","html-keyboard-response","399","773309","0.0-1.0-543.0","0","0","48769","","null","","","null","60","NaN","","","","","","","","","","","","","","",""
"","S2","","html-keyboard-response","400","773562","0.0-1.0-544.0","0","0","48769","","null","","","null","60","","NaN","","","","","","","","","","","","","",""
"","response","","html-keyboard-response","401","774172","0.0-1.0-545.0-0.0","0","0","48769","","608","","","68","60","","","2","60","training","adjacent","GF","7","6","O.jpg","N.jpg","0","0","1","",""
"","feedback","","html-keyboard-response","402","775176","0.0-1.0-546.0-0.0","0","0","48769","","null","","","null","60","","","","","","","","","","","","","","","",""
"","ITI","","html-keyboard-response","403","776179","0.0-1.0-549.0","0","0","48769","","null","","","null","60","","","","","","","","","","","","","","","NaN",""
"","S1","","html-keyboard-response","404","776432","0.0-1.0-551.0","0","0","48769","","null","","","null","61","","","","","","","","","","","","","","","",""
"","ISI","","html-keyboard-response","405","778435","0.0-1.0-552.0","0","0","48769","","null","","","null","61","NaN","","","","","","","","","","","","","","",""
"","S2","","html-keyboard-response","406","778690","0.0-1.0-553.0","0","0","48769","","null","","","null","61","","NaN","","","","","","","","","","","","","",""
"","response","","html-keyboard-response","407","779149","0.0-1.0-554.0-0.0","0","0","48769","","457","","","75","61","","","2","61","training","adjacent","BC","2","3","M.jpg","P.jpg","1","1","1","",""
"","feedback","","html-keyboard-response","408","780152","0.0-1.0-555.0-0.0","0","0","48769","","null","","","null","61","","","","","","","","","","","","","","","",""
"","ITI","","html-keyboard-response","409","781156","0.0-1.0-558.0","0","0","48769","","null","","","null","61","","","","","","","","","","","","","","","NaN",""
"","S1","","html-keyboard-response","410","781409","0.0-1.0-560.0","0","0","48769","","null","","","null","62","","","","","","","","","","","","","","","",""
"","ISI","","html-keyboard-response","411","783412","0.0-1.0-561.0","0","0","48769","","null","","","null","62","NaN","","","","","","","","","","","","","","",""
"","S2","","html-keyboard-response","412","783665","0.0-1.0-562.0","0","0","48769","","null","","","null","62","","NaN","","","","","","","","","","","","","",""
"","response","","html-keyboard-response","413","784621","0.0-1.0-563.0-0.0","0","0","48769","","954","","","75","62","","","2","62","training","adjacent","DE","4","5","L.jpg","Q.jpg","1","1","1","",""
"","feedback","","html-keyboard-response","414","785625","0.0-1.0-564.0-0.0","0","0","48769","","null","","","null","62","","","","","","","","","","","","","","","",""
"","ITI","","html-keyboard-response","415","786628","0.0-1.0-567.0","0","0","48769","","null","","","null","62","","","","","","","","","","","","","","","NaN",""
"","S1","","html-keyboard-response","416","786881","0.0-1.0-569.0","0","0","48769","","null","","","null","63","","","","","","","","","","","","","","","",""
"","ISI","","html-keyboard-response","417","788884","0.0-1.0-570.0","0","0","48769","","null","","","null","63","NaN","","","","","","","","","","","","","","",""
"","S2","","html-keyboard-response","418","789137","0.0-1.0-571.0","0","0","48769","","null","","","null","63","","NaN","","","","","","","","","","","","","",""
"","response","","html-keyboard-response","419","789862","0.0-1.0-572.0-0.0","0","0","48769","","723","","","68","63","","","2","63","training","adjacent","AB","1","2","R.jpg","M.jpg","0","1","0","",""
"","feedback","","html-keyboard-response","420","790865","0.0-1.0-573.0-0.0","0","0","48769","","null","","","null","63","","","","","","","","","","","","","","","",""
"","time_out","","html-keyboard-response","421","792869","0.0-1.0-575.0-0.0","0","0","48769","","null","","","null","63","","","","","","","","","","","","","","","",""
"","ITI","","html-keyboard-response","422","793872","0.0-1.0-576.0","0","0","48769","","null","","","null","63","","","","","","","","","","","","","","","NaN",""
"","S1","","html-keyboard-response","423","794126","0.0-1.0-578.0","0","0","48769","","null","","","null","64","","","","","","","","","","","","","","","",""
"","ISI","","html-keyboard-response","424","796129","0.0-1.0-579.0","0","0","48769","","null","","","null","64","NaN","","","","","","","","","","","","","","",""
"","S2","","html-keyboard-response","425","796383","0.0-1.0-580.0","0","0","48769","","null","","","null","64","","NaN","","","","","","","","","","","","","",""
"","response","","html-keyboard-response","426","797078","0.0-1.0-581.0-0.0","0","0","48769","","692","","","68","64","","","2","64","training","adjacent","CD","3","4","P.jpg","L.jpg","0","1","0","",""
"","feedback","","html-keyboard-response","427","798081","0.0-1.0-582.0-0.0","0","0","48769","","null","","","null","64","","","","","","","","","","","","","","","",""
"","time_out","","html-keyboard-response","428","800084","0.0-1.0-584.0-0.0","0","0","48769","","null","","","null","64","","","","","","","","","","","","","","","",""
"","ITI","","html-keyboard-response","429","801096","0.0-1.0-585.0","0","0","48769","","null","","","null","64","","","","","","","","","","","","","","","NaN",""
"","S1","","html-keyboard-response","430","801350","0.0-1.0-587.0","0","0","48769","","null","","","null","65","","","","","","","","","","","","","","","",""
"","ISI","","html-keyboard-response","431","803351","0.0-1.0-588.0","0","0","48769","","null","","","null","65","NaN","","","","","","","","","","","","","","",""
"","S2","","html-keyboard-response","432","803604","0.0-1.0-589.0","0","0","48769","","null","","","null","65","","NaN","","","","","","","","","","","","","",""
"","response","","html-keyboard-response","433","804223","0.0-1.0-590.0-0.0","0","0","48769","","616","","","75","65","","","2","65","training","adjacent","BA","2","1","M.jpg","R.jpg","1","0","0","",""
"","feedback","","html-keyboard-response","434","805227","0.0-1.0-591.0-0.0","0","0","48769","","null","","","null","65","","","","","","","","","","","","","","","",""
"","time_out","","html-keyboard-response","435","807230","0.0-1.0-593.0-0.0","0","0","48769","","null","","","null","65","","","","","","","","","","","","","","","",""
"","ITI","","html-keyboard-response","436","808233","0.0-1.0-594.0","0","0","48769","","null","","","null","65","","","","","","","","","","","","","","","NaN",""
"","S1","","html-keyboard-response","437","808487","0.0-1.0-596.0","0","0","48769","","null","","","null","66","","","","","","","","","","","","","","","",""
"","ISI","","html-keyboard-response","438","810490","0.0-1.0-597.0","0","0","48769","","null","","","null","66","NaN","","","","","","","","","","","","","","",""
"","S2","","html-keyboard-response","439","810744","0.0-1.0-598.0","0","0","48769","","null","","","null","66","","NaN","","","","","","","","","","","","","",""
"","response","","html-keyboard-response","440","811741","0.0-1.0-599.0-0.0","0","0","48769","","995","","","68","66","","","2","66","training","adjacent","CD","3","4","P.jpg","L.jpg","0","1","0","",""
"","feedback","","html-keyboard-response","441","812743","0.0-1.0-600.0-0.0","0","0","48769","","null","","","null","66","","","","","","","","","","","","","","","",""
"","time_out","","html-keyboard-response","442","814746","0.0-1.0-602.0-0.0","0","0","48769","","null","","","null","66","","","","","","","","","","","","","","","",""
"","ITI","","html-keyboard-response","443","815750","0.0-1.0-603.0","0","0","48769","","null","","","null","66","","","","","","","","","","","","","","","NaN",""
"","S1","","html-keyboard-response","444","816007","0.0-1.0-605.0","0","0","48769","","null","","","null","67","","","","","","","","","","","","","","","",""
"","ISI","","html-keyboard-response","445","818010","0.0-1.0-606.0","0","0","48769","","null","","","null","67","NaN","","","","","","","","","","","","","","",""
"","S2","","html-keyboard-response","446","818264","0.0-1.0-607.0","0","0","48769","","null","","","null","67","","NaN","","","","","","","","","","","","","",""
"","response","","html-keyboard-response","447","818910","0.0-1.0-608.0-0.0","0","0","48769","","643","","","75","67","","","2","67","training","adjacent","FE","6","5","N.jpg","Q.jpg","1","0","0","",""
"","feedback","","html-keyboard-response","448","819914","0.0-1.0-609.0-0.0","0","0","48769","","null","","","null","67","","","","","","","","","","","","","","","",""
"","time_out","","html-keyboard-response","449","821917","0.0-1.0-611.0-0.0","0","0","48769","","null","","","null","67","","","","","","","","","","","","","","","",""
"","ITI","","html-keyboard-response","450","822920","0.0-1.0-612.0","0","0","48769","","null","","","null","67","","","","","","","","","","","","","","","NaN",""
"","S1","","html-keyboard-response","451","823187","0.0-1.0-614.0","0","0","48769","","null","","","null","68","","","","","","","","","","","","","","","",""
"","ISI","","html-keyboard-response","452","825189","0.0-1.0-615.0","0","0","48769","","null","","","null","68","NaN","","","","","","","","","","","","","","",""
"","S2","","html-keyboard-response","453","825443","0.0-1.0-616.0","0","0","48769","","null","","","null","68","","NaN","","","","","","","","","","","","","",""
"","response","","html-keyboard-response","454","826470","0.0-1.0-617.0-0.0","0","0","48769","","1025","","","75","68","","","2","68","training","adjacent","GF","7","6","O.jpg","N.jpg","1","0","0","",""
"","feedback","","html-keyboard-response","455","827473","0.0-1.0-618.0-0.0","0","0","48769","","null","","","null","68","","","","","","","","","","","","","","","",""
"","time_out","","html-keyboard-response","456","829476","0.0-1.0-620.0-0.0","0","0","48769","","null","","","null","68","","","","","","","","","","","","","","","",""
"","ITI","","html-keyboard-response","457","830479","0.0-1.0-621.0","0","0","48769","","null","","","null","68","","","","","","","","","","","","","","","NaN",""
"","S1","","html-keyboard-response","458","830733","0.0-1.0-623.0","0","0","48769","","null","","","null","69","","","","","","","","","","","","","","","",""
"","ISI","","html-keyboard-response","459","832736","0.0-1.0-624.0","0","0","48769","","null","","","null","69","NaN","","","","","","","","","","","","","","",""
"","S2","","html-keyboard-response","460","832989","0.0-1.0-625.0","0","0","48769","","null","","","null","69","","NaN","","","","","","","","","","","","","",""
"","response","","html-keyboard-response","461","833550","0.0-1.0-626.0-0.0","0","0","48769","","559","","","75","69","","","2","69","training","adjacent","BC","2","3","M.jpg","P.jpg","1","1","1","",""
"","feedback","","html-keyboard-response","462","834554","0.0-1.0-627.0-0.0","0","0","48769","","null","","","null","69","","","","","","","","","","","","","","","",""
"","ITI","","html-keyboard-response","463","835557","0.0-1.0-630.0","0","0","48769","","null","","","null","69","","","","","","","","","","","","","","","NaN",""
"","S1","","html-keyboard-response","464","835810","0.0-1.0-632.0","0","0","48769","","null","","","null","70","","","","","","","","","","","","","","","",""
"","ISI","","html-keyboard-response","465","837812","0.0-1.0-633.0","0","0","48769","","null","","","null","70","NaN","","","","","","","","","","","","","","",""
"","S2","","html-keyboard-response","466","838066","0.0-1.0-634.0","0","0","48769","","null","","","null","70","","NaN","","","","","","","","","","","","","",""
"","response","","html-keyboard-response","467","838597","0.0-1.0-635.0-0.0","0","0","48769","","529","","","68","70","","","2","70","training","adjacent","FE","6","5","N.jpg","Q.jpg","0","0","1","",""
"","feedback","","html-keyboard-response","468","839602","0.0-1.0-636.0-0.0","0","0","48769","","null","","","null","70","","","","","","","","","","","","","","","",""
"","ITI","","html-keyboard-response","469","840606","0.0-1.0-639.0","0","0","48769","","null","","","null","70","","","","","","","","","","","","","","","NaN",""
"","S1","","html-keyboard-response","470","840859","0.0-1.0-641.0","0","0","48769","","null","","","null","71","","","","","","","","","","","","","","","",""
"","ISI","","html-keyboard-response","471","842861","0.0-1.0-642.0","0","0","48769","","null","","","null","71","NaN","","","","","","","","","","","","","","",""
"","S2","","html-keyboard-response","472","843115","0.0-1.0-643.0","0","0","48769","","null","","","null","71","","NaN","","","","","","","","","","","","","",""
"","response","","html-keyboard-response","473","843261","0.0-1.0-644.0-0.0","0","0","48769","","144","","","75","71","","","2","71","training","adjacent","BC","2","3","M.jpg","P.jpg","1","1","1","",""
"","feedback","","html-keyboard-response","474","844264","0.0-1.0-645.0-0.0","0","0","48769","","null","","","null","71","","","","","","","","","","","","","","","",""
"","ITI","","html-keyboard-response","475","845268","0.0-1.0-648.0","0","0","48769","","null","","","null","71","","","","","","","","","","","","","","","NaN",""
"","S1","","html-keyboard-response","476","845521","0.0-1.0-650.0","0","0","48769","","null","","","null","72","","","","","","","","","","","","","","","",""
"","ISI","","html-keyboard-response","477","847524","0.0-1.0-651.0","0","0","48769","","null","","","null","72","NaN","","","","","","","","","","","","","","",""
"","S2","","html-keyboard-response","478","847777","0.0-1.0-652.0","0","0","48769","","null","","","null","72","","NaN","","","","","","","","","","","","","",""
"","response","","html-keyboard-response","479","848039","0.0-1.0-653.0-0.0","0","0","48769","","259","","","68","72","","","2","72","training","adjacent","EF","5","6","Q.jpg","N.jpg","0","1","0","",""
"","feedback","","html-keyboard-response","480","849042","0.0-1.0-654.0-0.0","0","0","48769","","null","","","null","72","","","","","","","","","","","","","","","",""
"","time_out","","html-keyboard-response","481","851047","0.0-1.0-656.0-0.0","0","0","48769","","null","","","null","72","","","","","","","","","","","","","","","",""
"","ITI","","html-keyboard-response","482","852050","0.0-1.0-657.0","0","0","48769","","null","","","null","72","","","","","","","","","","","","","","","NaN",""
"","S1","","html-keyboard-response","483","852303","0.0-1.0-659.0","0","0","48769","","null","","","null","73","","","","","","","","","","","","","","","",""
"","ISI","","html-keyboard-response","484","854304","0.0-1.0-660.0","0","0","48769","","null","","","null","73","NaN","","","","","","","","","","","","","","",""
"","S2","","html-keyboard-response","485","854557","0.0-1.0-661.0","0","0","48769","","null","","","null","73","","NaN","","","","","","","","","","","","","",""
"","response","","html-keyboard-response","486","854919","0.0-1.0-662.0-0.0","0","0","48769","","359","","","75","73","","","2","73","training","adjacent","BC","2","3","M.jpg","P.jpg","1","1","1","",""
"","feedback","","html-keyboard-response","487","855922","0.0-1.0-663.0-0.0","0","0","48769","","null","","","null","73","","","","","","","","","","","","","","","",""
"","ITI","","html-keyboard-response","488","856941","0.0-1.0-666.0","0","0","48769","","null","","","null","73","","","","","","","","","","","","","","","NaN",""
"","S1","","html-keyboard-response","489","857202","0.0-1.0-668.0","0","0","48769","","null","","","null","74","","","","","","","","","","","","","","","",""
"","ISI","","html-keyboard-response","490","859219","0.0-1.0-669.0","0","0","48769","","null","","","null","74","NaN","","","","","","","","","","","","","","",""
"","S2","","html-keyboard-response","491","859472","0.0-1.0-670.0","0","0","48769","","null","","","null","74","","NaN","","","","","","","","","","","","","",""
"","response","","html-keyboard-response","492","860047","0.0-1.0-671.0-0.0","0","0","48769","","572","","","75","74","","","2","74","training","adjacent","BA","2","1","M.jpg","R.jpg","1","0","0","",""
"","feedback","","html-keyboard-response","493","861052","0.0-1.0-672.0-0.0","0","0","48769","","null","","","null","74","","","","","","","","","","","","","","","",""
"","time_out","","html-keyboard-response","494","863054","0.0-1.0-674.0-0.0","0","0","48769","","null","","","null","74","","","","","","","","","","","","","","","",""
"","ITI","","html-keyboard-response","495","864057","0.0-1.0-675.0","0","0","48769","","null","","","null","74","","","","","","","","","","","","","","","NaN",""
"","S1","","html-keyboard-response","496","864311","0.0-1.0-677.0","0","0","48769","","null","","","null","75","","","","","","","","","","","","","","","",""
"","ISI","","html-keyboard-response","497","866314","0.0-1.0-678.0","0","0","48769","","null","","","null","75","NaN","","","","","","","","","","","","","","",""
"","S2","","html-keyboard-response","498","866567","0.0-1.0-679.0","0","0","48769","","null","","","null","75","","NaN","","","","","","","","","","","","","",""
"","response","","html-keyboard-response","499","867087","0.0-1.0-680.0-0.0","0","0","48769","","518","","","68","75","","","2","75","training","adjacent","DC","4","3","L.jpg","P.jpg","0","0","1","",""
"","feedback","","html-keyboard-response","500","868090","0.0-1.0-681.0-0.0","0","0","48769","","null","","","null","75","","","","","","","","","","","","","","","",""
"","ITI","","html-keyboard-response","501","869092","0.0-1.0-684.0","0","0","48769","","null","","","null","75","","","","","","","","","","","","","","","NaN",""
"","S1","","html-keyboard-response","502","869346","0.0-1.0-686.0","0","0","48769","","null","","","null","76","","","","","","","","","","","","","","","",""
"","ISI","","html-keyboard-response","503","871349","0.0-1.0-687.0","0","0","48769","","null","","","null","76","NaN","","","","","","","","","","","","","","",""
"","S2","","html-keyboard-response","504","871603","0.0-1.0-688.0","0","0","48769","","null","","","null","76","","NaN","","","","","","","","","","","","","",""
"","response","","html-keyboard-response","505","872215","0.0-1.0-689.0-0.0","0","0","48769","","609","","","68","76","","","2","76","training","adjacent","DE","4","5","L.jpg","Q.jpg","0","1","0","",""
"","feedback","","html-keyboard-response","506","873218","0.0-1.0-690.0-0.0","0","0","48769","","null","","","null","76","","","","","","","","","","","","","","","",""
"","time_out","","html-keyboard-response","507","875222","0.0-1.0-692.0-0.0","0","0","48769","","null","","","null","76","","","","","","","","","","","","","","","",""
"","ITI","","html-keyboard-response","508","876226","0.0-1.0-693.0","0","0","48769","","null","","","null","76","","","","","","","","","","","","","","","NaN",""
"","S1","","html-keyboard-response","509","876478","0.0-1.0-695.0","0","0","48769","","null","","","null","77","","","","","","","","","","","","","","","",""
"","ISI","","html-keyboard-response","510","878480","0.0-1.0-696.0","0","0","48769","","null","","","null","77","NaN","","","","","","","","","","","","","","",""
"","S2","","html-keyboard-response","511","878732","0.0-1.0-697.0","0","0","48769","","null","","","null","77","","NaN","","","","","","","","","","","","","",""
"","response","","html-keyboard-response","512","879133","0.0-1.0-698.0-0.0","0","0","48769","","399","","","75","77","","","2","77","training","adjacent","FE","6","5","N.jpg","Q.jpg","1","0","0","",""
"","feedback","","html-keyboard-response","513","880136","0.0-1.0-699.0-0.0","0","0","48769","","null","","","null","77","","","","","","","","","","","","","","","",""
"","time_out","","html-keyboard-response","514","882139","0.0-1.0-701.0-0.0","0","0","48769","","null","","","null","77","","","","","","","","","","","","","","","",""
"","ITI","","html-keyboard-response","515","883142","0.0-1.0-702.0","0","0","48769","","null","","","null","77","","","","","","","","","","","","","","","NaN",""
"","S1","","html-keyboard-response","516","883396","0.0-1.0-704.0","0","0","48769","","null","","","null","78","","","","","","","","","","","","","","","",""
"","ISI","","html-keyboard-response","517","885399","0.0-1.0-705.0","0","0","48769","","null","","","null","78","NaN","","","","","","","","","","","","","","",""
"","S2","","html-keyboard-response","518","885652","0.0-1.0-706.0","0","0","48769","","null","","","null","78","","NaN","","","","","","","","","","","","","",""
"","response","","html-keyboard-response","519","886159","0.0-1.0-707.0-0.0","0","0","48769","","505","","","68","78","","","2","78","training","adjacent","AB","1","2","R.jpg","M.jpg","0","1","0","",""
"","feedback","","html-keyboard-response","520","887162","0.0-1.0-708.0-0.0","0","0","48769","","null","","","null","78","","","","","","","","","","","","","","","",""
"","time_out","","html-keyboard-response","521","889179","0.0-1.0-710.0-0.0","0","0","48769","","null","","","null","78","","","","","","","","","","","","","","","",""
"","ITI","","html-keyboard-response","522","890182","0.0-1.0-711.0","0","0","48769","","null","","","null","78","","","","","","","","","","","","","","","NaN",""
"","S1","","html-keyboard-response","523","890435","0.0-1.0-713.0","0","0","48769","","null","","","null","79","","","","","","","","","","","","","","","",""
"","ISI","","html-keyboard-response","524","892438","0.0-1.0-714.0","0","0","48769","","null","","","null","79","NaN","","","","","","","","","","","","","","",""
"","S2","","html-keyboard-response","525","892691","0.0-1.0-715.0","0","0","48769","","null","","","null","79","","NaN","","","","","","","","","","","","","",""
"","response","","html-keyboard-response","526","893060","0.0-1.0-716.0-0.0","0","0","48769","","368","","","75","79","","","2","79","training","adjacent","FG","6","7","N.jpg","O.jpg","1","1","1","",""
"","feedback","","html-keyboard-response","527","894062","0.0-1.0-717.0-0.0","0","0","48769","","null","","","null","79","","","","","","","","","","","","","","","",""
"","ITI","","html-keyboard-response","528","895065","0.0-1.0-720.0","0","0","48769","","null","","","null","79","","","","","","","","","","","","","","","NaN",""
"","S1","","html-keyboard-response","529","895318","0.0-1.0-722.0","0","0","48769","","null","","","null","80","","","","","","","","","","","","","","","",""
"","ISI","","html-keyboard-response","530","897320","0.0-1.0-723.0","0","0","48769","","null","","","null","80","NaN","","","","","","","","","","","","","","",""
"","S2","","html-keyboard-response","531","897574","0.0-1.0-724.0","0","0","48769","","null","","","null","80","","NaN","","","","","","","","","","","","","",""
"","response","","html-keyboard-response","532","898559","0.0-1.0-725.0-0.0","0","0","48769","","982","","","75","80","","","2","80","training","adjacent","EF","5","6","Q.jpg","N.jpg","1","1","1","",""
"","feedback","","html-keyboard-response","533","899563","0.0-1.0-726.0-0.0","0","0","48769","","null","","","null","80","","","","","","","","","","","","","","","",""
"","ITI","","html-keyboard-response","534","900567","0.0-1.0-729.0","0","0","48769","","null","","","null","80","","","","","","","","","","","","","","","NaN",""
"","S1","","html-keyboard-response","535","900821","0.0-1.0-731.0","0","0","48769","","null","","","null","81","","","","","","","","","","","","","","","",""
"","ISI","","html-keyboard-response","536","902824","0.0-1.0-732.0","0","0","48769","","null","","","null","81","NaN","","","","","","","","","","","","","","",""
"","S2","","html-keyboard-response","537","903079","0.0-1.0-733.0","0","0","48769","","null","","","null","81","","NaN","","","","","","","","","","","","","",""
"","response","","html-keyboard-response","538","904062","0.0-1.0-734.0-0.0","0","0","48769","","981","","","68","81","","","2","81","training","adjacent","AB","1","2","R.jpg","M.jpg","0","1","0","",""
"","feedback","","html-keyboard-response","539","905066","0.0-1.0-735.0-0.0","0","0","48769","","null","","","null","81","","","","","","","","","","","","","","","",""
"","time_out","","html-keyboard-response","540","907070","0.0-1.0-737.0-0.0","0","0","48769","","null","","","null","81","","","","","","","","","","","","","","","",""
"","ITI","","html-keyboard-response","541","908078","0.0-1.0-738.0","0","0","48769","","null","","","null","81","","","","","","","","","","","","","","","NaN",""
"","S1","","html-keyboard-response","542","908331","0.0-1.0-740.0","0","0","48769","","null","","","null","82","","","","","","","","","","","","","","","",""
"","ISI","","html-keyboard-response","543","910335","0.0-1.0-741.0","0","0","48769","","null","","","null","82","NaN","","","","","","","","","","","","","","",""
"","S2","","html-keyboard-response","544","910588","0.0-1.0-742.0","0","0","48769","","null","","","null","82","","NaN","","","","","","","","","","","","","",""
"","response","","html-keyboard-response","545","911024","0.0-1.0-743.0-0.0","0","0","48769","","434","","","68","82","","","2","82","training","adjacent","GF","7","6","O.jpg","N.jpg","0","0","1","",""
"","feedback","","html-keyboard-response","546","912026","0.0-1.0-744.0-0.0","0","0","48769","","null","","","null","82","","","","","","","","","","","","","","","",""
"","ITI","","html-keyboard-response","547","913030","0.0-1.0-747.0","0","0","48769","","null","","","null","82","","","","","","","","","","","","","","","NaN",""
"","S1","","html-keyboard-response","548","913283","0.0-1.0-749.0","0","0","48769","","null","","","null","83","","","","","","","","","","","","","","","",""
"","ISI","","html-keyboard-response","549","915285","0.0-1.0-750.0","0","0","48769","","null","","","null","83","NaN","","","","","","","","","","","","","","",""
"","S2","","html-keyboard-response","550","915538","0.0-1.0-751.0","0","0","48769","","null","","","null","83","","NaN","","","","","","","","","","","","","",""
"","response","","html-keyboard-response","551","916063","0.0-1.0-752.0-0.0","0","0","48769","","521","","","75","83","","","2","83","training","adjacent","ED","5","4","Q.jpg","L.jpg","1","0","0","",""
"","feedback","","html-keyboard-response","552","917077","0.0-1.0-753.0-0.0","0","0","48769","","null","","","null","83","","","","","","","","","","","","","","","",""
"","time_out","","html-keyboard-response","553","919081","0.0-1.0-755.0-0.0","0","0","48769","","null","","","null","83","","","","","","","","","","","","","","","",""
"","ITI","","html-keyboard-response","554","920086","0.0-1.0-756.0","0","0","48769","","null","","","null","83","","","","","","","","","","","","","","","NaN",""
"","S1","","html-keyboard-response","555","920339","0.0-1.0-758.0","0","0","48769","","null","","","null","84","","","","","","","","","","","","","","","",""
"","ISI","","html-keyboard-response","556","922343","0.0-1.0-759.0","0","0","48769","","null","","","null","84","NaN","","","","","","","","","","","","","","",""
"","S2","","html-keyboard-response","557","922597","0.0-1.0-760.0","0","0","48769","","null","","","null","84","","NaN","","","","","","","","","","","","","",""
"","response","","html-keyboard-response","558","923158","0.0-1.0-761.0-0.0","0","0","48769","","559","","","68","84","","","2","84","training","adjacent","FG","6","7","N.jpg","O.jpg","0","1","0","",""
"","feedback","","html-keyboard-response","559","924163","0.0-1.0-762.0-0.0","0","0","48769","","null","","","null","84","","","","","","","","","","","","","","","",""
"","time_out","","html-keyboard-response","560","926167","0.0-1.0-764.0-0.0","0","0","48769","","null","","","null","84","","","","","","","","","","","","","","","",""
"","ITI","","html-keyboard-response","561","927170","0.0-1.0-765.0","0","0","48769","","null","","","null","84","","","","","","","","","","","","","","","NaN",""
"","S1","","html-keyboard-response","562","927424","0.0-1.0-767.0","0","0","48769","","null","","","null","85","","","","","","","","","","","","","","","",""
"","ISI","","html-keyboard-response","563","929427","0.0-1.0-768.0","0","0","48769","","null","","","null","85","NaN","","","","","","","","","","","","","","",""
"","S2","","html-keyboard-response","564","929680","0.0-1.0-769.0","0","0","48769","","null","","","null","85","","NaN","","","","","","","","","","","","","",""
"","response","","html-keyboard-response","565","930078","0.0-1.0-770.0-0.0","0","0","48769","","397","","","68","85","","","2","85","training","adjacent","CB","3","2","P.jpg","M.jpg","0","0","1","",""
"","feedback","","html-keyboard-response","566","931081","0.0-1.0-771.0-0.0","0","0","48769","","null","","","null","85","","","","","","","","","","","","","","","",""
"","ITI","","html-keyboard-response","567","932083","0.0-1.0-774.0","0","0","48769","","null","","","null","85","","","","","","","","","","","","","","","NaN",""
"","S1","","html-keyboard-response","568","932337","0.0-1.0-776.0","0","0","48769","","null","","","null","86","","","","","","","","","","","","","","","",""
"","ISI","","html-keyboard-response","569","934340","0.0-1.0-777.0","0","0","48769","","null","","","null","86","NaN","","","","","","","","","","","","","","",""
"","S2","","html-keyboard-response","570","934593","0.0-1.0-778.0","0","0","48769","","null","","","null","86","","NaN","","","","","","","","","","","","","",""
"","response","","html-keyboard-response","571","935246","0.0-1.0-779.0-0.0","0","0","48769","","652","","","68","86","","","2","86","training","adjacent","ED","5","4","Q.jpg","L.jpg","0","0","1","",""
"","feedback","","html-keyboard-response","572","936251","0.0-1.0-780.0-0.0","0","0","48769","","null","","","null","86","","","","","","","","","","","","","","","",""
"","ITI","","html-keyboard-response","573","937269","0.0-1.0-783.0","0","0","48769","","null","","","null","86","","","","","","","","","","","","","","","NaN",""
"","S1","","html-keyboard-response","574","937522","0.0-1.0-785.0","0","0","48769","","null","","","null","87","","","","","","","","","","","","","","","",""
"","ISI","","html-keyboard-response","575","939524","0.0-1.0-786.0","0","0","48769","","null","","","null","87","NaN","","","","","","","","","","","","","","",""
"","S2","","html-keyboard-response","576","939777","0.0-1.0-787.0","0","0","48769","","null","","","null","87","","NaN","","","","","","","","","","","","","",""
"","response","","html-keyboard-response","577","941094","0.0-1.0-788.0-0.0","0","0","48769","","1316","","","68","87","","","2","87","training","adjacent","BA","2","1","M.jpg","R.jpg","0","0","1","",""
"","feedback","","html-keyboard-response","578","942098","0.0-1.0-789.0-0.0","0","0","48769","","null","","","null","87","","","","","","","","","","","","","","","",""
"","ITI","","html-keyboard-response","579","943103","0.0-1.0-792.0","0","0","48769","","null","","","null","87","","","","","","","","","","","","","","","NaN",""
"","S1","","html-keyboard-response","580","943356","0.0-1.0-794.0","0","0","48769","","null","","","null","88","","","","","","","","","","","","","","","",""
"","ISI","","html-keyboard-response","581","945359","0.0-1.0-795.0","0","0","48769","","null","","","null","88","NaN","","","","","","","","","","","","","","",""
