"success","ttype","start_time","trial_type","trial_index","time_elapsed","internal_node_id","warning","missed_checkup","PID","view_history","rt","responses","repeat_instructions","key_press","index","keypress_isi","keypress_S2","block","trial_num","phase","group_type","pair_type","S1_stim","S2_stim","S1_img","S2_img","S1_chosen","S1_higher","accuracy","keypress_iti","total_bonus_tally"
"true","full_screen","d03032023hr2123","fullscreen","0","5252","0.0-0.0","0","0","64270","","","","","","","","","","","","","","","","","","","","","",""
"","instructions","","instructions","1","14312","0.0-1.0-0.0-0.0","0","0","64270","[{""page_index"":0,""viewing_time"":3652},{""page_index"":1,""viewing_time"":1933},{""page_index"":2,""viewing_time"":1898},{""page_index"":3,""viewing_time"":1574}]","9057","","","","","","","","","","","","","","","","","","","",""
"","comprehension_check","","survey-multi-choice","2","28308","0.0-1.0-0.0-1.0","0","0","64270","","13992","{""Q0"":""True"",""Q1"":""D"",""Q2"":""Once the second image appears and while the screen 'MAKE A CHOICE' is shown"",""Q3"":""Green mark"",""Q4"":""either D or K""}","0","","","","","","","","","","","","","","","","","",""
"","start_exp","","html-keyboard-response","3","31038","0.0-1.0-1.0","0","0","64270","","2727","","","32","","","","","","","","","","","","","","","","",""
"","S1","","html-keyboard-response","4","31291","0.0-1.0-2.0","0","0","64270","","null","","","null","0","","","","","","","","","","","","","","","",""
"","ISI","","html-keyboard-response","5","31793","0.0-1.0-3.0","0","0","64270","","null","","","null","0","NaN","","","","","","","","","","","","","","",""
"","S2","","html-keyboard-response","6","32045","0.0-1.0-4.0","0","0","64270","","null","","","null","0","","NaN","","","","","","","","","","","","","",""
"","response","","html-keyboard-response","7","32377","0.0-1.0-5.0-0.0","0","0","64270","","331","","","68","0","","","1","0","training","adjacent","FE","6","5","Q.jpg","N.jpg","1","0","0","",""
"","feedback","","html-keyboard-response","8","33380","0.0-1.0-6.0-0.0","0","0","64270","","null","","","null","0","","","","","","","","","","","","","","","",""
"","time_out","","html-keyboard-response","9","35384","0.0-1.0-8.0-0.0","0","0","64270","","null","","","null","0","","","","","","","","","","","","","","","",""
"","ITI","","html-keyboard-response","10","36386","0.0-1.0-9.0","0","0","64270","","null","","","null","0","","","","","","","","","","","","","","","NaN",""
"","S1","","html-keyboard-response","11","36646","0.0-1.0-11.0","0","0","64270","","null","","","null","1","","","","","","","","","","","","","","","",""
"","ISI","","html-keyboard-response","12","37151","0.0-1.0-12.0","0","0","64270","","null","","","null","1","NaN","","","","","","","","","","","","","","",""
"","S2","","html-keyboard-response","13","37404","0.0-1.0-13.0","0","0","64270","","null","","","null","1","","NaN","","","","","","","","","","","","","",""
"","response","","html-keyboard-response","14","37710","0.0-1.0-14.0-0.0","0","0","64270","","304","","","75","1","","","1","1","training","adjacent","DE","4","5","R.jpg","N.jpg","0","1","0","",""
"","feedback","","html-keyboard-response","15","38712","0.0-1.0-15.0-0.0","0","0","64270","","null","","","null","1","","","","","","","","","","","","","","","",""
"","time_out","","html-keyboard-response","16","40714","0.0-1.0-17.0-0.0","0","0","64270","","null","","","null","1","","","","","","","","","","","","","","","",""
"","ITI","","html-keyboard-response","17","41721","0.0-1.0-18.0","0","0","64270","","null","","","null","1","","","","","","","","","","","","","","","NaN",""
"","S1","","html-keyboard-response","18","41974","0.0-1.0-20.0","0","0","64270","","null","","","null","2","","","","","","","","","","","","","","","",""
"","ISI","","html-keyboard-response","19","42475","0.0-1.0-21.0","0","0","64270","","null","","","null","2","NaN","","","","","","","","","","","","","","",""
"","S2","","html-keyboard-response","20","42727","0.0-1.0-22.0","0","0","64270","","null","","","null","2","","NaN","","","","","","","","","","","","","",""
"","response","","html-keyboard-response","21","42919","0.0-1.0-23.0-0.0","0","0","64270","","191","","","75","2","","","1","2","training","adjacent","FG","6","7","Q.jpg","O.jpg","0","1","0","",""
"","feedback","","html-keyboard-response","22","43921","0.0-1.0-24.0-0.0","0","0","64270","","null","","","null","2","","","","","","","","","","","","","","","",""
"","time_out","","html-keyboard-response","23","45923","0.0-1.0-26.0-0.0","0","0","64270","","null","","","null","2","","","","","","","","","","","","","","","",""
"","ITI","","html-keyboard-response","24","46927","0.0-1.0-27.0","0","0","64270","","null","","","null","2","","","","","","","","","","","","","","","NaN",""
"","S1","","html-keyboard-response","25","47179","0.0-1.0-29.0","0","0","64270","","null","","","null","3","","","","","","","","","","","","","","","",""
"","ISI","","html-keyboard-response","26","47680","0.0-1.0-30.0","0","0","64270","","null","","","null","3","NaN","","","","","","","","","","","","","","",""
"","S2","","html-keyboard-response","27","47934","0.0-1.0-31.0","0","0","64270","","null","","","null","3","","NaN","","","","","","","","","","","","","",""
"","response","","html-keyboard-response","28","49178","0.0-1.0-32.0-0.0","0","0","64270","","1243","","","68","3","","","1","3","training","adjacent","EF","5","6","N.jpg","Q.jpg","1","1","1","",""
"","feedback","","html-keyboard-response","29","50181","0.0-1.0-33.0-0.0","0","0","64270","","null","","","null","3","","","","","","","","","","","","","","","",""
"","ITI","","html-keyboard-response","30","51182","0.0-1.0-36.0","0","0","64270","","null","","","null","3","","","","","","","","","","","","","","","NaN",""
"","S1","","html-keyboard-response","31","51434","0.0-1.0-38.0","0","0","64270","","null","","","null","4","","","","","","","","","","","","","","","",""
"","ISI","","html-keyboard-response","32","51939","0.0-1.0-39.0","0","0","64270","","null","","","null","4","NaN","","","","","","","","","","","","","","",""
"","S2","","html-keyboard-response","33","52190","0.0-1.0-40.0","0","0","64270","","null","","","null","4","","NaN","","","","","","","","","","","","","",""
"","response","","html-keyboard-response","34","52489","0.0-1.0-41.0-0.0","0","0","64270","","298","","","68","4","","","1","4","training","adjacent","DC","4","3","R.jpg","M.jpg","1","0","0","",""
"","feedback","","html-keyboard-response","35","53492","0.0-1.0-42.0-0.0","0","0","64270","","null","","","null","4","","","","","","","","","","","","","","","",""
"","time_out","","html-keyboard-response","36","55494","0.0-1.0-44.0-0.0","0","0","64270","","null","","","null","4","","","","","","","","","","","","","","","",""
"","ITI","","html-keyboard-response","37","56495","0.0-1.0-45.0","0","0","64270","","null","","","null","4","","","","","","","","","","","","","","","NaN",""
"","S1","","html-keyboard-response","38","56747","0.0-1.0-47.0","0","0","64270","","null","","","null","5","","","","","","","","","","","","","","","",""
"","ISI","","html-keyboard-response","39","57249","0.0-1.0-48.0","0","0","64270","","411","","","68","5","d","","","","","","","","","","","","","","",""
"","S2","","html-keyboard-response","40","57501","0.0-1.0-49.0","0","0","64270","","null","","","null","5","","NaN","","","","","","","","","","","","","",""
"","response","","html-keyboard-response","41","58239","0.0-1.0-50.0-0.0","0","0","64270","","737","","","68","5","","","1","5","training","adjacent","ED","5","4","N.jpg","R.jpg","1","0","0","",""
"","feedback","","html-keyboard-response","42","59242","0.0-1.0-51.0-0.0","0","0","64270","","null","","","null","5","","","","","","","","","","","","","","","",""
"","time_out","","html-keyboard-response","43","61299","0.0-1.0-53.0-0.0","0","0","64270","","null","","","null","5","","","","","","","","","","","","","","","",""
"","ITI","","html-keyboard-response","44","62301","0.0-1.0-54.0","0","0","64270","","null","","","null","5","","","","","","","","","","","","","","","NaN",""
"","S1","","html-keyboard-response","45","62554","0.0-1.0-56.0","0","0","64270","","null","","","null","6","","","","","","","","","","","","","","","",""
"","ISI","","html-keyboard-response","46","63055","0.0-1.0-57.0","0","0","64270","","null","","","null","6","NaN","","","","","","","","","","","","","","",""
"","S2","","html-keyboard-response","47","63306","0.0-1.0-58.0","0","0","64270","","null","","","null","6","","NaN","","","","","","","","","","","","","",""
"","response","","html-keyboard-response","48","63569","0.0-1.0-59.0-0.0","0","0","64270","","260","","","68","6","","","1","6","training","adjacent","BA","2","1","L.jpg","P.jpg","1","0","0","",""
"","feedback","","html-keyboard-response","49","64572","0.0-1.0-60.0-0.0","0","0","64270","","null","","","null","6","","","","","","","","","","","","","","","",""
"","time_out","","html-keyboard-response","50","66576","0.0-1.0-62.0-0.0","0","0","64270","","null","","","null","6","","","","","","","","","","","","","","","",""
"","ITI","","html-keyboard-response","51","67580","0.0-1.0-63.0","0","0","64270","","null","","","null","6","","","","","","","","","","","","","","","NaN",""
"","S1","","html-keyboard-response","52","67833","0.0-1.0-65.0","0","0","64270","","null","","","null","7","","","","","","","","","","","","","","","",""
"","ISI","","html-keyboard-response","53","68334","0.0-1.0-66.0","0","0","64270","","null","","","null","7","NaN","","","","","","","","","","","","","","",""
"","S2","","html-keyboard-response","54","68595","0.0-1.0-67.0","0","0","64270","","null","","","null","7","","NaN","","","","","","","","","","","","","",""
"","response","","html-keyboard-response","55","68799","0.0-1.0-68.0-0.0","0","0","64270","","202","","","75","7","","","1","7","training","adjacent","DE","4","5","R.jpg","N.jpg","0","1","0","",""
"","feedback","","html-keyboard-response","56","69815","0.0-1.0-69.0-0.0","0","0","64270","","null","","","null","7","","","","","","","","","","","","","","","",""
"","time_out","","html-keyboard-response","57","71867","0.0-1.0-71.0-0.0","0","0","64270","","null","","","null","7","","","","","","","","","","","","","","","",""
"","ITI","","html-keyboard-response","58","72869","0.0-1.0-72.0","0","0","64270","","null","","","null","7","","","","","","","","","","","","","","","NaN",""
"","S1","","html-keyboard-response","59","73138","0.0-1.0-74.0","0","0","64270","","null","","","null","8","","","","","","","","","","","","","","","",""
"","ISI","","html-keyboard-response","60","73639","0.0-1.0-75.0","0","0","64270","","null","","","null","8","NaN","","","","","","","","","","","","","","",""
"","S2","","html-keyboard-response","61","73891","0.0-1.0-76.0","0","0","64270","","null","","","null","8","","NaN","","","","","","","","","","","","","",""
"","response","","html-keyboard-response","62","74187","0.0-1.0-77.0-0.0","0","0","64270","","295","","","68","8","","","1","8","training","adjacent","EF","5","6","N.jpg","Q.jpg","1","1","1","",""
"","feedback","","html-keyboard-response","63","75188","0.0-1.0-78.0-0.0","0","0","64270","","null","","","null","8","","","","","","","","","","","","","","","",""
"","ITI","","html-keyboard-response","64","76190","0.0-1.0-81.0","0","0","64270","","null","","","null","8","","","","","","","","","","","","","","","NaN",""
"","S1","","html-keyboard-response","65","76442","0.0-1.0-83.0","0","0","64270","","null","","","null","9","","","","","","","","","","","","","","","",""
"","ISI","","html-keyboard-response","66","76943","0.0-1.0-84.0","0","0","64270","","null","","","null","9","NaN","","","","","","","","","","","","","","",""
"","S2","","html-keyboard-response","67","77196","0.0-1.0-85.0","0","0","64270","","null","","","null","9","","NaN","","","","","","","","","","","","","",""
"","response","","html-keyboard-response","68","77567","0.0-1.0-86.0-0.0","0","0","64270","","369","","","68","9","","","1","9","training","adjacent","CB","3","2","M.jpg","L.jpg","1","0","0","",""
"","feedback","","html-keyboard-response","69","78569","0.0-1.0-87.0-0.0","0","0","64270","","null","","","null","9","","","","","","","","","","","","","","","",""
"","time_out","","html-keyboard-response","70","80570","0.0-1.0-89.0-0.0","0","0","64270","","null","","","null","9","","","","","","","","","","","","","","","",""
"","ITI","","html-keyboard-response","71","81571","0.0-1.0-90.0","0","0","64270","","null","","","null","9","","","","","","","","","","","","","","","NaN",""
"","S1","","html-keyboard-response","72","81830","0.0-1.0-92.0","0","0","64270","","null","","","null","10","","","","","","","","","","","","","","","",""
"","ISI","","html-keyboard-response","73","82372","0.0-1.0-93.0","0","0","64270","","null","","","null","10","NaN","","","","","","","","","","","","","","",""
"","S2","","html-keyboard-response","74","82625","0.0-1.0-94.0","0","0","64270","","null","","","null","10","","NaN","","","","","","","","","","","","","",""
"","response","","html-keyboard-response","75","82867","0.0-1.0-95.0-0.0","0","0","64270","","242","","","68","10","","","1","10","training","adjacent","BC","2","3","L.jpg","M.jpg","1","1","1","",""
"","feedback","","html-keyboard-response","76","83870","0.0-1.0-96.0-0.0","0","0","64270","","null","","","null","10","","","","","","","","","","","","","","","",""
"","ITI","","html-keyboard-response","77","84870","0.0-1.0-99.0","0","0","64270","","null","","","null","10","","","","","","","","","","","","","","","NaN",""
"","S1","","html-keyboard-response","78","85122","0.0-1.0-101.0","0","0","64270","","null","","","null","11","","","","","","","","","","","","","","","",""
"","ISI","","html-keyboard-response","79","85624","0.0-1.0-102.0","0","0","64270","","null","","","null","11","NaN","","","","","","","","","","","","","","",""
"","S2","","html-keyboard-response","80","85874","0.0-1.0-103.0","0","0","64270","","null","","","null","11","","NaN","","","","","","","","","","","","","",""
"","response","","html-keyboard-response","81","86368","0.0-1.0-104.0-0.0","0","0","64270","","492","","","68","11","","","1","11","training","adjacent","BA","2","1","L.jpg","P.jpg","1","0","0","",""
"","feedback","","html-keyboard-response","82","87370","0.0-1.0-105.0-0.0","0","0","64270","","null","","","null","11","","","","","","","","","","","","","","","",""
"","time_out","","html-keyboard-response","83","89372","0.0-1.0-107.0-0.0","0","0","64270","","null","","","null","11","","","","","","","","","","","","","","","",""
"","ITI","","html-keyboard-response","84","90373","0.0-1.0-108.0","0","0","64270","","null","","","null","11","","","","","","","","","","","","","","","NaN",""
"","S1","","html-keyboard-response","85","90625","0.0-1.0-110.0","0","0","64270","","null","","","null","12","","","","","","","","","","","","","","","",""
"","ISI","","html-keyboard-response","86","91126","0.0-1.0-111.0","0","0","64270","","null","","","null","12","NaN","","","","","","","","","","","","","","",""
"","S2","","html-keyboard-response","87","91379","0.0-1.0-112.0","0","0","64270","","null","","","null","12","","NaN","","","","","","","","","","","","","",""
"","response","","html-keyboard-response","88","91619","0.0-1.0-113.0-0.0","0","0","64270","","238","","","75","12","","","1","12","training","adjacent","DE","4","5","R.jpg","N.jpg","0","1","0","",""
"","feedback","","html-keyboard-response","89","92622","0.0-1.0-114.0-0.0","0","0","64270","","null","","","null","12","","","","","","","","","","","","","","","",""
"","time_out","","html-keyboard-response","90","94623","0.0-1.0-116.0-0.0","0","0","64270","","null","","","null","12","","","","","","","","","","","","","","","",""
"","ITI","","html-keyboard-response","91","95624","0.0-1.0-117.0","0","0","64270","","null","","","null","12","","","","","","","","","","","","","","","NaN",""
"","S1","","html-keyboard-response","92","95876","0.0-1.0-119.0","0","0","64270","","null","","","null","13","","","","","","","","","","","","","","","",""
"","ISI","","html-keyboard-response","93","96377","0.0-1.0-120.0","0","0","64270","","null","","","null","13","NaN","","","","","","","","","","","","","","",""
"","S2","","html-keyboard-response","94","96628","0.0-1.0-121.0","0","0","64270","","null","","","null","13","","NaN","","","","","","","","","","","","","",""
"","response","","html-keyboard-response","95","96889","0.0-1.0-122.0-0.0","0","0","64270","","260","","","68","13","","","1","13","training","adjacent","EF","5","6","N.jpg","Q.jpg","1","1","1","",""
"","feedback","","html-keyboard-response","96","97890","0.0-1.0-123.0-0.0","0","0","64270","","null","","","null","13","","","","","","","","","","","","","","","",""
"","ITI","","html-keyboard-response","97","98894","0.0-1.0-126.0","0","0","64270","","null","","","null","13","","","","","","","","","","","","","","","NaN",""
"","S1","","html-keyboard-response","98","99147","0.0-1.0-128.0","0","0","64270","","null","","","null","14","","","","","","","","","","","","","","","",""
"","ISI","","html-keyboard-response","99","99648","0.0-1.0-129.0","0","0","64270","","null","","","null","14","NaN","","","","","","","","","","","","","","",""
"","S2","","html-keyboard-response","100","99900","0.0-1.0-130.0","0","0","64270","","null","","","null","14","","NaN","","","","","","","","","","","","","",""
"","response","","html-keyboard-response","101","101651","0.0-1.0-131.0-0.0","0","0","64270","","null","","","null","14","","","1","14","training","adjacent","EF","5","6","N.jpg","Q.jpg","NaN","1","0","",""
"","too_slow_prompt","","html-keyboard-response","102","102652","0.0-1.0-133.0-0.0","1","0","64270","","null","","","null","","","","","","","","","","","","","","","","",""
"","time_out","","html-keyboard-response","103","104656","0.0-1.0-134.0-0.0","0","0","64270","","null","","","null","14","","","","","","","","","","","","","","","",""
"","ITI","","html-keyboard-response","104","105659","0.0-1.0-135.0","0","0","64270","","null","","","null","14","","","","","","","","","","","","","","","NaN",""
"","S1","","html-keyboard-response","105","105912","0.0-1.0-137.0","0","0","64270","","null","","","null","15","","","","","","","","","","","","","","","",""
"","ISI","","html-keyboard-response","106","106414","0.0-1.0-138.0","0","0","64270","","null","","","null","15","NaN","","","","","","","","","","","","","","",""
"","S2","","html-keyboard-response","107","106666","0.0-1.0-139.0","0","0","64270","","null","","","null","15","","NaN","","","","","","","","","","","","","",""
"","response","","html-keyboard-response","108","107130","0.0-1.0-140.0-0.0","0","0","64270","","463","","","75","15","","","1","15","training","adjacent","DC","4","3","R.jpg","M.jpg","0","0","1","",""
"","feedback","","html-keyboard-response","109","108133","0.0-1.0-141.0-0.0","0","0","64270","","null","","","null","15","","","","","","","","","","","","","","","",""
"","ITI","","html-keyboard-response","110","109145","0.0-1.0-144.0","0","0","64270","","null","","","null","15","","","","","","","","","","","","","","","NaN",""
"","S1","","html-keyboard-response","111","109397","0.0-1.0-146.0","0","0","64270","","null","","","null","16","","","","","","","","","","","","","","","",""
"","ISI","","html-keyboard-response","112","109898","0.0-1.0-147.0","0","0","64270","","null","","","null","16","NaN","","","","","","","","","","","","","","",""
"","S2","","html-keyboard-response","113","110150","0.0-1.0-148.0","0","0","64270","","null","","","null","16","","NaN","","","","","","","","","","","","","",""
"","response","","html-keyboard-response","114","110447","0.0-1.0-149.0-0.0","0","0","64270","","296","","","68","16","","","1","16","training","adjacent","BA","2","1","L.jpg","P.jpg","1","0","0","",""
"","feedback","","html-keyboard-response","115","111451","0.0-1.0-150.0-0.0","0","0","64270","","null","","","null","16","","","","","","","","","","","","","","","",""
"","time_out","","html-keyboard-response","116","113475","0.0-1.0-152.0-0.0","0","0","64270","","null","","","null","16","","","","","","","","","","","","","","","",""
"","ITI","","html-keyboard-response","117","114476","0.0-1.0-153.0","0","0","64270","","null","","","null","16","","","","","","","","","","","","","","","NaN",""
"","S1","","html-keyboard-response","118","114728","0.0-1.0-155.0","0","0","64270","","null","","","null","17","","","","","","","","","","","","","","","",""
"","ISI","","html-keyboard-response","119","115228","0.0-1.0-156.0","0","0","64270","","null","","","null","17","NaN","","","","","","","","","","","","","","",""
"","S2","","html-keyboard-response","120","115479","0.0-1.0-157.0","0","0","64270","","null","","","null","17","","NaN","","","","","","","","","","","","","",""
"","response","","html-keyboard-response","121","116008","0.0-1.0-158.0-0.0","0","0","64270","","527","","","68","17","","","1","17","training","adjacent","BC","2","3","L.jpg","M.jpg","1","1","1","",""
"","feedback","","html-keyboard-response","122","117010","0.0-1.0-159.0-0.0","0","0","64270","","null","","","null","17","","","","","","","","","","","","","","","",""
"","ITI","","html-keyboard-response","123","118012","0.0-1.0-162.0","0","0","64270","","null","","","null","17","","","","","","","","","","","","","","","NaN",""
"","S1","","html-keyboard-response","124","118265","0.0-1.0-164.0","0","0","64270","","null","","","null","18","","","","","","","","","","","","","","","",""
"","ISI","","html-keyboard-response","125","118768","0.0-1.0-165.0","0","0","64270","","null","","","null","18","NaN","","","","","","","","","","","","","","",""
"","S2","","html-keyboard-response","126","119020","0.0-1.0-166.0","0","0","64270","","null","","","null","18","","NaN","","","","","","","","","","","","","",""
"","response","","html-keyboard-response","127","119586","0.0-1.0-167.0-0.0","0","0","64270","","565","","","75","18","","","1","18","training","adjacent","ED","5","4","N.jpg","R.jpg","0","0","1","",""
"","feedback","","html-keyboard-response","128","120590","0.0-1.0-168.0-0.0","0","0","64270","","null","","","null","18","","","","","","","","","","","","","","","",""
"","ITI","","html-keyboard-response","129","121591","0.0-1.0-171.0","0","0","64270","","null","","","null","18","","","","","","","","","","","","","","","NaN",""
"","S1","","html-keyboard-response","130","121844","0.0-1.0-173.0","0","0","64270","","null","","","null","19","","","","","","","","","","","","","","","",""
"","ISI","","html-keyboard-response","131","122344","0.0-1.0-174.0","0","0","64270","","null","","","null","19","NaN","","","","","","","","","","","","","","",""
"","S2","","html-keyboard-response","132","122596","0.0-1.0-175.0","0","0","64270","","null","","","null","19","","NaN","","","","","","","","","","","","","",""
"","response","","html-keyboard-response","133","122979","0.0-1.0-176.0-0.0","0","0","64270","","381","","","75","19","","","1","19","training","adjacent","FE","6","5","Q.jpg","N.jpg","0","0","1","",""
"","feedback","","html-keyboard-response","134","123980","0.0-1.0-177.0-0.0","0","0","64270","","null","","","null","19","","","","","","","","","","","","","","","",""
"","ITI","","html-keyboard-response","135","124982","0.0-1.0-180.0","0","0","64270","","null","","","null","19","","","","","","","","","","","","","","","NaN",""
"","S1","","html-keyboard-response","136","125234","0.0-1.0-182.0","0","0","64270","","null","","","null","20","","","","","","","","","","","","","","","",""
"","ISI","","html-keyboard-response","137","125735","0.0-1.0-183.0","0","0","64270","","null","","","null","20","NaN","","","","","","","","","","","","","","",""
"","S2","","html-keyboard-response","138","125988","0.0-1.0-184.0","0","0","64270","","null","","","null","20","","NaN","","","","","","","","","","","","","",""
"","response","","html-keyboard-response","139","126349","0.0-1.0-185.0-0.0","0","0","64270","","358","","","75","20","","","1","20","training","adjacent","ED","5","4","N.jpg","R.jpg","0","0","1","",""
"","feedback","","html-keyboard-response","140","127351","0.0-1.0-186.0-0.0","0","0","64270","","null","","","null","20","","","","","","","","","","","","","","","",""
"","ITI","","html-keyboard-response","141","128354","0.0-1.0-189.0","0","0","64270","","null","","","null","20","","","","","","","","","","","","","","","NaN",""
"","S1","","html-keyboard-response","142","128607","0.0-1.0-191.0","0","0","64270","","null","","","null","21","","","","","","","","","","","","","","","",""
"","ISI","","html-keyboard-response","143","129111","0.0-1.0-192.0","0","0","64270","","null","","","null","21","NaN","","","","","","","","","","","","","","",""
"","S2","","html-keyboard-response","144","129363","0.0-1.0-193.0","0","0","64270","","null","","","null","21","","NaN","","","","","","","","","","","","","",""
"","response","","html-keyboard-response","145","129836","0.0-1.0-194.0-0.0","0","0","64270","","472","","","75","21","","","1","21","training","adjacent","AB","1","2","P.jpg","L.jpg","0","1","0","",""
"","feedback","","html-keyboard-response","146","130839","0.0-1.0-195.0-0.0","0","0","64270","","null","","","null","21","","","","","","","","","","","","","","","",""
"","time_out","","html-keyboard-response","147","132842","0.0-1.0-197.0-0.0","0","0","64270","","null","","","null","21","","","","","","","","","","","","","","","",""
"","ITI","","html-keyboard-response","148","133844","0.0-1.0-198.0","0","0","64270","","null","","","null","21","","","","","","","","","","","","","","","NaN",""
"","S1","","html-keyboard-response","149","134097","0.0-1.0-200.0","0","0","64270","","null","","","null","22","","","","","","","","","","","","","","","",""
"","ISI","","html-keyboard-response","150","134599","0.0-1.0-201.0","0","0","64270","","null","","","null","22","NaN","","","","","","","","","","","","","","",""
"","S2","","html-keyboard-response","151","134851","0.0-1.0-202.0","0","0","64270","","null","","","null","22","","NaN","","","","","","","","","","","","","",""
"","response","","html-keyboard-response","152","136209","0.0-1.0-203.0-0.0","0","0","64270","","1355","","","68","22","","","1","22","training","adjacent","BC","2","3","L.jpg","M.jpg","1","1","1","",""
"","feedback","","html-keyboard-response","153","137210","0.0-1.0-204.0-0.0","0","0","64270","","null","","","null","22","","","","","","","","","","","","","","","",""
"","ITI","","html-keyboard-response","154","138211","0.0-1.0-207.0","0","0","64270","","null","","","null","22","","","","","","","","","","","","","","","NaN",""
"","S1","","html-keyboard-response","155","138463","0.0-1.0-209.0","0","0","64270","","null","","","null","23","","","","","","","","","","","","","","","",""
"","ISI","","html-keyboard-response","156","138966","0.0-1.0-210.0","0","0","64270","","null","","","null","23","NaN","","","","","","","","","","","","","","",""
"","S2","","html-keyboard-response","157","139218","0.0-1.0-211.0","0","0","64270","","null","","","null","23","","NaN","","","","","","","","","","","","","",""
"","response","","html-keyboard-response","158","139848","0.0-1.0-212.0-0.0","0","0","64270","","627","","","75","23","","","1","23","training","adjacent","FG","6","7","Q.jpg","O.jpg","0","1","0","",""
"","feedback","","html-keyboard-response","159","140849","0.0-1.0-213.0-0.0","0","0","64270","","null","","","null","23","","","","","","","","","","","","","","","",""
"","time_out","","html-keyboard-response","160","142851","0.0-1.0-215.0-0.0","0","0","64270","","null","","","null","23","","","","","","","","","","","","","","","",""
"","ITI","","html-keyboard-response","161","143851","0.0-1.0-216.0","0","0","64270","","null","","","null","23","","","","","","","","","","","","","","","NaN",""
"","S1","","html-keyboard-response","162","144103","0.0-1.0-218.0","0","0","64270","","null","","","null","24","","","","","","","","","","","","","","","",""
"","ISI","","html-keyboard-response","163","144605","0.0-1.0-219.0","0","0","64270","","null","","","null","24","NaN","","","","","","","","","","","","","","",""
"","S2","","html-keyboard-response","164","144857","0.0-1.0-220.0","0","0","64270","","null","","","null","24","","NaN","","","","","","","","","","","","","",""
"","response","","html-keyboard-response","165","145018","0.0-1.0-221.0-0.0","0","0","64270","","159","","","68","24","","","1","24","training","adjacent","AB","1","2","P.jpg","L.jpg","1","1","1","",""
"","feedback","","html-keyboard-response","166","146021","0.0-1.0-222.0-0.0","0","0","64270","","null","","","null","24","","","","","","","","","","","","","","","",""
"","ITI","","html-keyboard-response","167","147023","0.0-1.0-225.0","0","0","64270","","null","","","null","24","","","","","","","","","","","","","","","NaN",""
"","S1","","html-keyboard-response","168","147274","0.0-1.0-227.0","0","0","64270","","null","","","null","25","","","","","","","","","","","","","","","",""
"","ISI","","html-keyboard-response","169","147776","0.0-1.0-228.0","0","0","64270","","null","","","null","25","NaN","","","","","","","","","","","","","","",""
"","S2","","html-keyboard-response","170","148028","0.0-1.0-229.0","0","0","64270","","null","","","null","25","","NaN","","","","","","","","","","","","","",""
"","response","","html-keyboard-response","171","148337","0.0-1.0-230.0-0.0","0","0","64270","","308","","","75","25","","","1","25","training","adjacent","FE","6","5","Q.jpg","N.jpg","0","0","1","",""
"","feedback","","html-keyboard-response","172","149339","0.0-1.0-231.0-0.0","0","0","64270","","null","","","null","25","","","","","","","","","","","","","","","",""
"","ITI","","html-keyboard-response","173","150339","0.0-1.0-234.0","0","0","64270","","null","","","null","25","","","","","","","","","","","","","","","NaN",""
"","S1","","html-keyboard-response","174","150590","0.0-1.0-236.0","0","0","64270","","null","","","null","26","","","","","","","","","","","","","","","",""
"","ISI","","html-keyboard-response","175","151100","0.0-1.0-237.0","0","0","64270","","null","","","null","26","NaN","","","","","","","","","","","","","","",""
"","S2","","html-keyboard-response","176","151352","0.0-1.0-238.0","0","0","64270","","null","","","null","26","","NaN","","","","","","","","","","","","","",""
"","response","","html-keyboard-response","177","151358","0.0-1.0-239.0-0.0","0","0","64270","","4","","","68","26","","","1","26","training","adjacent","CB","3","2","M.jpg","L.jpg","1","0","0","",""
"","feedback","","html-keyboard-response","178","152361","0.0-1.0-240.0-0.0","0","0","64270","","null","","","null","26","","","","","","","","","","","","","","","",""
"","time_out","","html-keyboard-response","179","154363","0.0-1.0-242.0-0.0","0","0","64270","","null","","","null","26","","","","","","","","","","","","","","","",""
"","ITI","","html-keyboard-response","180","155365","0.0-1.0-243.0","0","0","64270","","null","","","null","26","","","","","","","","","","","","","","","NaN",""
"","S1","","html-keyboard-response","181","155618","0.0-1.0-245.0","0","0","64270","","null","","","null","27","","","","","","","","","","","","","","","",""
"","ISI","","html-keyboard-response","182","156119","0.0-1.0-246.0","0","0","64270","","null","","","null","27","NaN","","","","","","","","","","","","","","",""
"","S2","","html-keyboard-response","183","156369","0.0-1.0-247.0","0","0","64270","","null","","","null","27","","NaN","","","","","","","","","","","","","",""
"","response","","html-keyboard-response","184","156618","0.0-1.0-248.0-0.0","0","0","64270","","247","","","68","27","","","1","27","training","adjacent","CB","3","2","M.jpg","L.jpg","1","0","0","",""
"","feedback","","html-keyboard-response","185","157621","0.0-1.0-249.0-0.0","0","0","64270","","null","","","null","27","","","","","","","","","","","","","","","",""
"","time_out","","html-keyboard-response","186","159624","0.0-1.0-251.0-0.0","0","0","64270","","null","","","null","27","","","","","","","","","","","","","","","",""
"","ITI","","html-keyboard-response","187","160625","0.0-1.0-252.0","0","0","64270","","null","","","null","27","","","","","","","","","","","","","","","NaN",""
"","S1","","html-keyboard-response","188","160877","0.0-1.0-254.0","0","0","64270","","null","","","null","28","","","","","","","","","","","","","","","",""
"","ISI","","html-keyboard-response","189","161379","0.0-1.0-255.0","0","0","64270","","null","","","null","28","NaN","","","","","","","","","","","","","","",""
"","S2","","html-keyboard-response","190","161630","0.0-1.0-256.0","0","0","64270","","null","","","null","28","","NaN","","","","","","","","","","","","","",""
"","response","","html-keyboard-response","191","162009","0.0-1.0-257.0-0.0","0","0","64270","","378","","","75","28","","","1","28","training","adjacent","AB","1","2","P.jpg","L.jpg","0","1","0","",""
"","feedback","","html-keyboard-response","192","163011","0.0-1.0-258.0-0.0","0","0","64270","","null","","","null","28","","","","","","","","","","","","","","","",""
"","time_out","","html-keyboard-response","193","165013","0.0-1.0-260.0-0.0","0","0","64270","","null","","","null","28","","","","","","","","","","","","","","","",""
"","ITI","","html-keyboard-response","194","166015","0.0-1.0-261.0","0","0","64270","","null","","","null","28","","","","","","","","","","","","","","","NaN",""
"","S1","","html-keyboard-response","195","166266","0.0-1.0-263.0","0","0","64270","","null","","","null","29","","","","","","","","","","","","","","","",""
"","ISI","","html-keyboard-response","196","166767","0.0-1.0-264.0","0","0","64270","","null","","","null","29","NaN","","","","","","","","","","","","","","",""
"","S2","","html-keyboard-response","197","167020","0.0-1.0-265.0","0","0","64270","","null","","","null","29","","NaN","","","","","","","","","","","","","",""
"","response","","html-keyboard-response","198","167457","0.0-1.0-266.0-0.0","0","0","64270","","436","","","68","29","","","1","29","training","adjacent","BC","2","3","L.jpg","M.jpg","1","1","1","",""
"","feedback","","html-keyboard-response","199","168463","0.0-1.0-267.0-0.0","0","0","64270","","null","","","null","29","","","","","","","","","","","","","","","",""
"","ITI","","html-keyboard-response","200","169465","0.0-1.0-270.0","0","0","64270","","null","","","null","29","","","","","","","","","","","","","","","NaN",""
"","S1","","html-keyboard-response","201","169721","0.0-1.0-272.0","0","0","64270","","null","","","null","30","","","","","","","","","","","","","","","",""
"","ISI","","html-keyboard-response","202","170222","0.0-1.0-273.0","0","0","64270","","null","","","null","30","NaN","","","","","","","","","","","","","","",""
"","S2","","html-keyboard-response","203","170474","0.0-1.0-274.0","0","0","64270","","null","","","null","30","","NaN","","","","","","","","","","","","","",""
"","response","","html-keyboard-response","204","170587","0.0-1.0-275.0-0.0","0","0","64270","","112","","","75","30","","","1","30","training","adjacent","DE","4","5","R.jpg","N.jpg","0","1","0","",""
"","feedback","","html-keyboard-response","205","171590","0.0-1.0-276.0-0.0","0","0","64270","","null","","","null","30","","","","","","","","","","","","","","","",""
"","time_out","","html-keyboard-response","206","173593","0.0-1.0-278.0-0.0","0","0","64270","","null","","","null","30","","","","","","","","","","","","","","","",""
"","ITI","","html-keyboard-response","207","174594","0.0-1.0-279.0","0","0","64270","","null","","","null","30","","","","","","","","","","","","","","","NaN",""
"","S1","","html-keyboard-response","208","174846","0.0-1.0-281.0","0","0","64270","","null","","","null","31","","","","","","","","","","","","","","","",""
"","ISI","","html-keyboard-response","209","175348","0.0-1.0-282.0","0","0","64270","","null","","","null","31","NaN","","","","","","","","","","","","","","",""
"","S2","","html-keyboard-response","210","175600","0.0-1.0-283.0","0","0","64270","","null","","","null","31","","NaN","","","","","","","","","","","","","",""
"","response","","html-keyboard-response","211","176082","0.0-1.0-284.0-0.0","0","0","64270","","481","","","68","31","","","1","31","training","adjacent","DC","4","3","R.jpg","M.jpg","1","0","0","",""
"","feedback","","html-keyboard-response","212","177084","0.0-1.0-285.0-0.0","0","0","64270","","null","","","null","31","","","","","","","","","","","","","","","",""
"","time_out","","html-keyboard-response","213","179085","0.0-1.0-287.0-0.0","0","0","64270","","null","","","null","31","","","","","","","","","","","","","","","",""
"","ITI","","html-keyboard-response","214","180087","0.0-1.0-288.0","0","0","64270","","null","","","null","31","","","","","","","","","","","","","","","NaN",""
"","S1","","html-keyboard-response","215","180338","0.0-1.0-290.0","0","0","64270","","null","","","null","32","","","","","","","","","","","","","","","",""
"","ISI","","html-keyboard-response","216","180840","0.0-1.0-291.0","0","0","64270","","null","","","null","32","NaN","","","","","","","","","","","","","","",""
"","S2","","html-keyboard-response","217","181092","0.0-1.0-292.0","0","0","64270","","null","","","null","32","","NaN","","","","","","","","","","","","","",""
"","response","","html-keyboard-response","218","181137","0.0-1.0-293.0-0.0","0","0","64270","","44","","","75","32","","","1","32","training","adjacent","FG","6","7","Q.jpg","O.jpg","0","1","0","",""
"","feedback","","html-keyboard-response","219","182139","0.0-1.0-294.0-0.0","0","0","64270","","null","","","null","32","","","","","","","","","","","","","","","",""
"","time_out","","html-keyboard-response","220","184168","0.0-1.0-296.0-0.0","0","0","64270","","null","","","null","32","","","","","","","","","","","","","","","",""
"","ITI","","html-keyboard-response","221","185170","0.0-1.0-297.0","0","0","64270","","null","","","null","32","","","","","","","","","","","","","","","NaN",""
"","S1","","html-keyboard-response","222","185422","0.0-1.0-299.0","0","0","64270","","null","","","null","33","","","","","","","","","","","","","","","",""
"","ISI","","html-keyboard-response","223","185924","0.0-1.0-300.0","0","0","64270","","null","","","null","33","NaN","","","","","","","","","","","","","","",""
"","S2","","html-keyboard-response","224","186017","0.0-1.0-301.0","0","0","64270","","91","","","68","33","","d","1","33","training","adjacent","GF","7","6","O.jpg","Q.jpg","1","0","0","",""
"","feedback","","html-keyboard-response","225","187019","0.0-1.0-303.0-0.0","0","0","64270","","null","","","null","33","","","","","","","","","","","","","","","",""
"","time_out","","html-keyboard-response","226","189021","0.0-1.0-305.0-0.0","0","0","64270","","null","","","null","33","","","","","","","","","","","","","","","",""
"","ITI","","html-keyboard-response","227","190023","0.0-1.0-306.0","0","0","64270","","null","","","null","33","","","","","","","","","","","","","","","NaN",""
"","S1","","html-keyboard-response","228","190310","0.0-1.0-308.0","0","0","64270","","null","","","null","34","","","","","","","","","","","","","","","",""
"","ISI","","html-keyboard-response","229","190831","0.0-1.0-309.0","0","0","64270","","null","","","null","34","NaN","","","","","","","","","","","","","","",""
"","S2","","html-keyboard-response","230","191083","0.0-1.0-310.0","0","0","64270","","null","","","null","34","","NaN","","","","","","","","","","","","","",""
"","response","","html-keyboard-response","231","191106","0.0-1.0-311.0-0.0","0","0","64270","","22","","","68","34","","","1","34","training","adjacent","ED","5","4","N.jpg","R.jpg","1","0","0","",""
"","feedback","","html-keyboard-response","232","192107","0.0-1.0-312.0-0.0","0","0","64270","","null","","","null","34","","","","","","","","","","","","","","","",""
"","time_out","","html-keyboard-response","233","194108","0.0-1.0-314.0-0.0","0","0","64270","","null","","","null","34","","","","","","","","","","","","","","","",""
"","ITI","","html-keyboard-response","234","195108","0.0-1.0-315.0","0","0","64270","","null","","","null","34","","","","","","","","","","","","","","","NaN",""
"","S1","","html-keyboard-response","235","195360","0.0-1.0-317.0","0","0","64270","","null","","","null","35","","","","","","","","","","","","","","","",""
"","ISI","","html-keyboard-response","236","195862","0.0-1.0-318.0","0","0","64270","","null","","","null","35","NaN","","","","","","","","","","","","","","",""
"","S2","","html-keyboard-response","237","196114","0.0-1.0-319.0","0","0","64270","","null","","","null","35","","NaN","","","","","","","","","","","","","",""
"","response","","html-keyboard-response","238","196489","0.0-1.0-320.0-0.0","0","0","64270","","374","","","68","35","","","1","35","training","adjacent","BA","2","1","L.jpg","P.jpg","1","0","0","",""
"","feedback","","html-keyboard-response","239","197491","0.0-1.0-321.0-0.0","0","0","64270","","null","","","null","35","","","","","","","","","","","","","","","",""
"","time_out","","html-keyboard-response","240","199493","0.0-1.0-323.0-0.0","0","0","64270","","null","","","null","35","","","","","","","","","","","","","","","",""
"","ITI","","html-keyboard-response","241","200495","0.0-1.0-324.0","0","0","64270","","null","","","null","35","","","","","","","","","","","","","","","NaN",""
"","S1","","html-keyboard-response","242","200751","0.0-1.0-326.0","0","0","64270","","null","","","null","36","","","","","","","","","","","","","","","",""
"","ISI","","html-keyboard-response","243","201253","0.0-1.0-327.0","0","0","64270","","null","","","null","36","NaN","","","","","","","","","","","","","","",""
"","S2","","html-keyboard-response","244","201505","0.0-1.0-328.0","0","0","64270","","null","","","null","36","","NaN","","","","","","","","","","","","","",""
"","response","","html-keyboard-response","245","201667","0.0-1.0-329.0-0.0","0","0","64270","","161","","","68","36","","","1","36","training","adjacent","AB","1","2","P.jpg","L.jpg","1","1","1","",""
"","feedback","","html-keyboard-response","246","202670","0.0-1.0-330.0-0.0","0","0","64270","","null","","","null","36","","","","","","","","","","","","","","","",""
"","ITI","","html-keyboard-response","247","203749","0.0-1.0-333.0","0","0","64270","","null","","","null","36","","","","","","","","","","","","","","","NaN",""
"","S1","","html-keyboard-response","248","204000","0.0-1.0-335.0","0","0","64270","","null","","","null","37","","","","","","","","","","","","","","","",""
"","ISI","","html-keyboard-response","249","204501","0.0-1.0-336.0","0","0","64270","","null","","","null","37","NaN","","","","","","","","","","","","","","",""
"","S2","","html-keyboard-response","250","204754","0.0-1.0-337.0","0","0","64270","","null","","","null","37","","NaN","","","","","","","","","","","","","",""
"","response","","html-keyboard-response","251","205557","0.0-1.0-338.0-0.0","0","0","64270","","802","","","68","37","","","1","37","training","adjacent","CB","3","2","M.jpg","L.jpg","1","0","0","",""
"","feedback","","html-keyboard-response","252","206559","0.0-1.0-339.0-0.0","0","0","64270","","null","","","null","37","","","","","","","","","","","","","","","",""
"","time_out","","html-keyboard-response","253","208613","0.0-1.0-341.0-0.0","0","0","64270","","null","","","null","37","","","","","","","","","","","","","","","",""
"","ITI","","html-keyboard-response","254","209615","0.0-1.0-342.0","0","0","64270","","null","","","null","37","","","","","","","","","","","","","","","NaN",""
"","S1","","html-keyboard-response","255","209866","0.0-1.0-344.0","0","0","64270","","null","","","null","38","","","","","","","","","","","","","","","",""
"","ISI","","html-keyboard-response","256","210400","0.0-1.0-345.0","0","0","64270","","null","","","null","38","NaN","","","","","","","","","","","","","","",""
"","S2","","html-keyboard-response","257","210653","0.0-1.0-346.0","0","0","64270","","null","","","null","38","","NaN","","","","","","","","","","","","","",""
"","response","","html-keyboard-response","258","210807","0.0-1.0-347.0-0.0","0","0","64270","","153","","","75","38","","","1","38","training","adjacent","FE","6","5","Q.jpg","N.jpg","0","0","1","",""
"","feedback","","html-keyboard-response","259","211810","0.0-1.0-348.0-0.0","0","0","64270","","null","","","null","38","","","","","","","","","","","","","","","",""
"","ITI","","html-keyboard-response","260","212811","0.0-1.0-351.0","0","0","64270","","null","","","null","38","","","","","","","","","","","","","","","NaN",""
"","S1","","html-keyboard-response","261","213062","0.0-1.0-353.0","0","0","64270","","null","","","null","39","","","","","","","","","","","","","","","",""
"","ISI","","html-keyboard-response","262","213564","0.0-1.0-354.0","0","0","64270","","null","","","null","39","NaN","","","","","","","","","","","","","","",""
"","S2","","html-keyboard-response","263","213829","0.0-1.0-355.0","0","0","64270","","null","","","null","39","","NaN","","","","","","","","","","","","","",""
"","response","","html-keyboard-response","264","214459","0.0-1.0-356.0-0.0","0","0","64270","","629","","","75","39","","","1","39","training","adjacent","CD","3","4","M.jpg","R.jpg","0","1","0","",""
"","feedback","","html-keyboard-response","265","215462","0.0-1.0-357.0-0.0","0","0","64270","","null","","","null","39","","","","","","","","","","","","","","","",""
"","time_out","","html-keyboard-response","266","217464","0.0-1.0-359.0-0.0","0","0","64270","","null","","","null","39","","","","","","","","","","","","","","","",""
"","ITI","","html-keyboard-response","267","218465","0.0-1.0-360.0","0","0","64270","","null","","","null","39","","","","","","","","","","","","","","","NaN",""
"","S1","","html-keyboard-response","268","218715","0.0-1.0-362.0","0","0","64270","","null","","","null","40","","","","","","","","","","","","","","","",""
"","ISI","","html-keyboard-response","269","219217","0.0-1.0-363.0","0","0","64270","","null","","","null","40","NaN","","","","","","","","","","","","","","",""
"","S2","","html-keyboard-response","270","219470","0.0-1.0-364.0","0","0","64270","","null","","","null","40","","NaN","","","","","","","","","","","","","",""
"","response","","html-keyboard-response","271","219606","0.0-1.0-365.0-0.0","0","0","64270","","135","","","68","40","","","1","40","training","adjacent","CD","3","4","M.jpg","R.jpg","1","1","1","",""
"","feedback","","html-keyboard-response","272","220608","0.0-1.0-366.0-0.0","0","0","64270","","null","","","null","40","","","","","","","","","","","","","","","",""
"","ITI","","html-keyboard-response","273","221610","0.0-1.0-369.0","0","0","64270","","null","","","null","40","","","","","","","","","","","","","","","NaN",""
"","S1","","html-keyboard-response","274","221861","0.0-1.0-371.0","0","0","64270","","null","","","null","41","","","","","","","","","","","","","","","",""
"","ISI","","html-keyboard-response","275","222363","0.0-1.0-372.0","0","0","64270","","null","","","null","41","NaN","","","","","","","","","","","","","","",""
"","S2","","html-keyboard-response","276","222633","0.0-1.0-373.0","0","0","64270","","null","","","null","41","","NaN","","","","","","","","","","","","","",""
"","response","","html-keyboard-response","277","222907","0.0-1.0-374.0-0.0","0","0","64270","","272","","","75","41","","","1","41","training","adjacent","CD","3","4","M.jpg","R.jpg","0","1","0","",""
"","feedback","","html-keyboard-response","278","223910","0.0-1.0-375.0-0.0","0","0","64270","","null","","","null","41","","","","","","","","","","","","","","","",""
"","time_out","","html-keyboard-response","279","225922","0.0-1.0-377.0-0.0","0","0","64270","","null","","","null","41","","","","","","","","","","","","","","","",""
"","ITI","","html-keyboard-response","280","226923","0.0-1.0-378.0","0","0","64270","","null","","","null","41","","","","","","","","","","","","","","","NaN",""
"","S1","","html-keyboard-response","281","227175","0.0-1.0-380.0","0","0","64270","","null","","","null","42","","","","","","","","","","","","","","","",""
"","ISI","","html-keyboard-response","282","227676","0.0-1.0-381.0","0","0","64270","","null","","","null","42","NaN","","","","","","","","","","","","","","",""
"","S2","","html-keyboard-response","283","227928","0.0-1.0-382.0","0","0","64270","","null","","","null","42","","NaN","","","","","","","","","","","","","",""
"","response","","html-keyboard-response","284","227987","0.0-1.0-383.0-0.0","0","0","64270","","57","","","68","42","","","1","42","training","adjacent","CD","3","4","M.jpg","R.jpg","1","1","1","",""
"","feedback","","html-keyboard-response","285","228994","0.0-1.0-384.0-0.0","0","0","64270","","null","","","null","42","","","","","","","","","","","","","","","",""
"","ITI","","html-keyboard-response","286","229996","0.0-1.0-387.0","0","0","64270","","null","","","null","42","","","","","","","","","","","","","","","NaN",""
"","S1","","html-keyboard-response","287","230250","0.0-1.0-389.0","0","0","64270","","null","","","null","43","","","","","","","","","","","","","","","",""
"","ISI","","html-keyboard-response","288","230751","0.0-1.0-390.0","0","0","64270","","null","","","null","43","NaN","","","","","","","","","","","","","","",""
"","S2","","html-keyboard-response","289","231003","0.0-1.0-391.0","0","0","64270","","null","","","null","43","","NaN","","","","","","","","","","","","","",""
"","response","","html-keyboard-response","290","232066","0.0-1.0-392.0-0.0","0","0","64270","","1062","","","75","43","","","1","43","training","adjacent","GF","7","6","O.jpg","Q.jpg","0","0","1","",""
"","feedback","","html-keyboard-response","291","233071","0.0-1.0-393.0-0.0","0","0","64270","","null","","","null","43","","","","","","","","","","","","","","","",""
"","ITI","","html-keyboard-response","292","234083","0.0-1.0-396.0","0","0","64270","","null","","","null","43","","","","","","","","","","","","","","","NaN",""
"","S1","","html-keyboard-response","293","234333","0.0-1.0-398.0","0","0","64270","","null","","","null","44","","","","","","","","","","","","","","","",""
"","ISI","","html-keyboard-response","294","234834","0.0-1.0-399.0","0","0","64270","","null","","","null","44","NaN","","","","","","","","","","","","","","",""
"","S2","","html-keyboard-response","295","235091","0.0-1.0-400.0","0","0","64270","","null","","","null","44","","NaN","","","","","","","","","","","","","",""
"","response","","html-keyboard-response","296","235278","0.0-1.0-401.0-0.0","0","0","64270","","185","","","68","44","","","1","44","training","adjacent","GF","7","6","O.jpg","Q.jpg","1","0","0","",""
"","feedback","","html-keyboard-response","297","236280","0.0-1.0-402.0-0.0","0","0","64270","","null","","","null","44","","","","","","","","","","","","","","","",""
"","time_out","","html-keyboard-response","298","238283","0.0-1.0-404.0-0.0","0","0","64270","","null","","","null","44","","","","","","","","","","","","","","","",""
"","ITI","","html-keyboard-response","299","239292","0.0-1.0-405.0","0","0","64270","","null","","","null","44","","","","","","","","","","","","","","","NaN",""
"","S1","","html-keyboard-response","300","239544","0.0-1.0-407.0","0","0","64270","","null","","","null","45","","","","","","","","","","","","","","","",""
"","ISI","","html-keyboard-response","301","240045","0.0-1.0-408.0","0","0","64270","","null","","","null","45","NaN","","","","","","","","","","","","","","",""
"","S2","","html-keyboard-response","302","240296","0.0-1.0-409.0","0","0","64270","","null","","","null","45","","NaN","","","","","","","","","","","","","",""
"","response","","html-keyboard-response","303","240498","0.0-1.0-410.0-0.0","0","0","64270","","199","","","68","45","","","1","45","training","adjacent","GF","7","6","O.jpg","Q.jpg","1","0","0","",""
"","feedback","","html-keyboard-response","304","241499","0.0-1.0-411.0-0.0","0","0","64270","","null","","","null","45","","","","","","","","","","","","","","","",""
"","time_out","","html-keyboard-response","305","243502","0.0-1.0-413.0-0.0","0","0","64270","","null","","","null","45","","","","","","","","","","","","","","","",""
"","ITI","","html-keyboard-response","306","244533","0.0-1.0-414.0","0","0","64270","","null","","","null","45","","","","","","","","","","","","","","","NaN",""
"","S1","","html-keyboard-response","307","244786","0.0-1.0-416.0","0","0","64270","","null","","","null","46","","","","","","","","","","","","","","","",""
"","ISI","","html-keyboard-response","308","245287","0.0-1.0-417.0","0","0","64270","","null","","","null","46","NaN","","","","","","","","","","","","","","",""
"","S2","","html-keyboard-response","309","245540","0.0-1.0-418.0","0","0","64270","","null","","","null","46","","NaN","","","","","","","","","","","","","",""
"","response","","html-keyboard-response","310","245752","0.0-1.0-419.0-0.0","0","0","64270","","210","","","68","46","","","1","46","training","adjacent","DC","4","3","R.jpg","M.jpg","1","0","0","",""
"","feedback","","html-keyboard-response","311","246753","0.0-1.0-420.0-0.0","0","0","64270","","null","","","null","46","","","","","","","","","","","","","","","",""
"","time_out","","html-keyboard-response","312","248756","0.0-1.0-422.0-0.0","0","0","64270","","null","","","null","46","","","","","","","","","","","","","","","",""
"","ITI","","html-keyboard-response","313","249758","0.0-1.0-423.0","0","0","64270","","null","","","null","46","","","","","","","","","","","","","","","NaN",""
"","S1","","html-keyboard-response","314","250009","0.0-1.0-425.0","0","0","64270","","null","","","null","47","","","","","","","","","","","","","","","",""
"","ISI","","html-keyboard-response","315","250512","0.0-1.0-426.0","0","0","64270","","null","","","null","47","NaN","","","","","","","","","","","","","","",""
"","S2","","html-keyboard-response","316","250765","0.0-1.0-427.0","0","0","64270","","null","","","null","47","","NaN","","","","","","","","","","","","","",""
"","response","","html-keyboard-response","317","250917","0.0-1.0-428.0-0.0","0","0","64270","","151","","","68","47","","","1","47","training","adjacent","FG","6","7","Q.jpg","O.jpg","1","1","1","",""
"","feedback","","html-keyboard-response","318","251918","0.0-1.0-429.0-0.0","0","0","64270","","null","","","null","47","","","","","","","","","","","","","","","",""
"","ITI","","html-keyboard-response","319","252920","0.0-1.0-432.0","0","0","64270","","null","","","null","47","","","","","","","","","","","","","","","NaN",""
"","block_over","","html-keyboard-response","320","306338","0.0-1.0-433.0-0.0","0","0","64270","","53415","","","32","47","","","","","","","","","","","","","","","",""
"","S1","","html-keyboard-response","321","306590","0.0-1.0-434.0","0","0","64270","","null","","","null","48","","","","","","","","","","","","","","","",""
"","ISI","","html-keyboard-response","322","307091","0.0-1.0-435.0","0","0","64270","","null","","","null","48","NaN","","","","","","","","","","","","","","",""
"","S2","","html-keyboard-response","323","307343","0.0-1.0-436.0","0","0","64270","","null","","","null","48","","NaN","","","","","","","","","","","","","",""
"","response","","html-keyboard-response","324","309094","0.0-1.0-437.0-0.0","0","0","64270","","null","","","null","48","","","2","48","training","adjacent","DC","4","3","R.jpg","M.jpg","NaN","0","0","",""
"","too_slow_prompt","","html-keyboard-response","325","310127","0.0-1.0-439.0-0.0","1","0","64270","","null","","","null","","","","","","","","","","","","","","","","",""
"","time_out","","html-keyboard-response","326","312133","0.0-1.0-440.0-0.0","0","0","64270","","null","","","null","48","","","","","","","","","","","","","","","",""
"","ITI","","html-keyboard-response","327","313143","0.0-1.0-441.0","0","0","64270","","214","","","68","48","","","","","","","","","","","","","","","d",""
"","S1","","html-keyboard-response","328","313395","0.0-1.0-443.0","0","0","64270","","null","","","null","49","","","","","","","","","","","","","","","",""
"","ISI","","html-keyboard-response","329","313896","0.0-1.0-444.0","0","0","64270","","null","","","null","49","NaN","","","","","","","","","","","","","","",""
"","S2","","html-keyboard-response","330","314104","0.0-1.0-445.0","0","0","64270","","207","","","68","49","","d","2","49","training","adjacent","ED","5","4","N.jpg","R.jpg","1","0","0","",""
"","feedback","","html-keyboard-response","331","315107","0.0-1.0-447.0-0.0","0","0","64270","","null","","","null","49","","","","","","","","","","","","","","","",""
"","time_out","","html-keyboard-response","332","317107","0.0-1.0-449.0-0.0","0","0","64270","","null","","","null","49","","","","","","","","","","","","","","","",""
"","ITI","","html-keyboard-response","333","318109","0.0-1.0-450.0","0","0","64270","","null","","","null","49","","","","","","","","","","","","","","","NaN",""
"","S1","","html-keyboard-response","334","318361","0.0-1.0-452.0","0","0","64270","","null","","","null","50","","","","","","","","","","","","","","","",""
"","ISI","","html-keyboard-response","335","318862","0.0-1.0-453.0","0","0","64270","","null","","","null","50","NaN","","","","","","","","","","","","","","",""
"","S2","","html-keyboard-response","336","319113","0.0-1.0-454.0","0","0","64270","","null","","","null","50","","NaN","","","","","","","","","","","","","",""
"","response","","html-keyboard-response","337","319259","0.0-1.0-455.0-0.0","0","0","64270","","144","","","68","50","","","2","50","training","adjacent","ED","5","4","N.jpg","R.jpg","1","0","0","",""
"","feedback","","html-keyboard-response","338","320260","0.0-1.0-456.0-0.0","0","0","64270","","null","","","null","50","","","","","","","","","","","","","","","",""
"","time_out","","html-keyboard-response","339","322262","0.0-1.0-458.0-0.0","0","0","64270","","null","","","null","50","","","","","","","","","","","","","","","",""
"","ITI","","html-keyboard-response","340","323263","0.0-1.0-459.0","0","0","64270","","null","","","null","50","","","","","","","","","","","","","","","NaN",""
"","S1","","html-keyboard-response","341","323514","0.0-1.0-461.0","0","0","64270","","null","","","null","51","","","","","","","","","","","","","","","",""
"","ISI","","html-keyboard-response","342","324016","0.0-1.0-462.0","0","0","64270","","null","","","null","51","NaN","","","","","","","","","","","","","","",""
"","S2","","html-keyboard-response","343","324267","0.0-1.0-463.0","0","0","64270","","null","","","null","51","","NaN","","","","","","","","","","","","","",""
"","response","","html-keyboard-response","344","324728","0.0-1.0-464.0-0.0","0","0","64270","","460","","","68","51","","","2","51","training","adjacent","DC","4","3","R.jpg","M.jpg","1","0","0","",""
"","feedback","","html-keyboard-response","345","325728","0.0-1.0-465.0-0.0","0","0","64270","","null","","","null","51","","","","","","","","","","","","","","","",""
"","time_out","","html-keyboard-response","346","327729","0.0-1.0-467.0-0.0","0","0","64270","","null","","","null","51","","","","","","","","","","","","","","","",""
"","ITI","","html-keyboard-response","347","328742","0.0-1.0-468.0","0","0","64270","","null","","","null","51","","","","","","","","","","","","","","","NaN",""
"","S1","","html-keyboard-response","348","328993","0.0-1.0-470.0","0","0","64270","","null","","","null","52","","","","","","","","","","","","","","","",""
"","ISI","","html-keyboard-response","349","329495","0.0-1.0-471.0","0","0","64270","","null","","","null","52","NaN","","","","","","","","","","","","","","",""
"","S2","","html-keyboard-response","350","329746","0.0-1.0-472.0","0","0","64270","","null","","","null","52","","NaN","","","","","","","","","","","","","",""
"","response","","html-keyboard-response","351","329937","0.0-1.0-473.0-0.0","0","0","64270","","189","","","68","52","","","2","52","training","adjacent","CB","3","2","M.jpg","L.jpg","1","0","0","",""
"","feedback","","html-keyboard-response","352","330939","0.0-1.0-474.0-0.0","0","0","64270","","null","","","null","52","","","","","","","","","","","","","","","",""
"","time_out","","html-keyboard-response","353","332942","0.0-1.0-476.0-0.0","0","0","64270","","null","","","null","52","","","","","","","","","","","","","","","",""
"","ITI","","html-keyboard-response","354","333946","0.0-1.0-477.0","0","0","64270","","null","","","null","52","","","","","","","","","","","","","","","NaN",""
"","S1","","html-keyboard-response","355","334198","0.0-1.0-479.0","0","0","64270","","null","","","null","53","","","","","","","","","","","","","","","",""
"","ISI","","html-keyboard-response","356","334700","0.0-1.0-480.0","0","0","64270","","null","","","null","53","NaN","","","","","","","","","","","","","","",""
"","S2","","html-keyboard-response","357","334951","0.0-1.0-481.0","0","0","64270","","null","","","null","53","","NaN","","","","","","","","","","","","","",""
"","response","","html-keyboard-response","358","335319","0.0-1.0-482.0-0.0","0","0","64270","","365","","","75","53","","","2","53","training","adjacent","AB","1","2","P.jpg","L.jpg","0","1","0","",""
"","feedback","","html-keyboard-response","359","336322","0.0-1.0-483.0-0.0","0","0","64270","","null","","","null","53","","","","","","","","","","","","","","","",""
"","time_out","","html-keyboard-response","360","338323","0.0-1.0-485.0-0.0","0","0","64270","","null","","","null","53","","","","","","","","","","","","","","","",""
"","ITI","","html-keyboard-response","361","339325","0.0-1.0-486.0","0","0","64270","","null","","","null","53","","","","","","","","","","","","","","","NaN",""
"","S1","","html-keyboard-response","362","339578","0.0-1.0-488.0","0","0","64270","","null","","","null","54","","","","","","","","","","","","","","","",""
"","ISI","","html-keyboard-response","363","340079","0.0-1.0-489.0","0","0","64270","","null","","","null","54","NaN","","","","","","","","","","","","","","",""
"","S2","","html-keyboard-response","364","340332","0.0-1.0-490.0","0","0","64270","","null","","","null","54","","NaN","","","","","","","","","","","","","",""
"","response","","html-keyboard-response","365","340878","0.0-1.0-491.0-0.0","0","0","64270","","543","","","75","54","","","2","54","training","adjacent","EF","5","6","N.jpg","Q.jpg","0","1","0","",""
"","feedback","","html-keyboard-response","366","341878","0.0-1.0-492.0-0.0","0","0","64270","","null","","","null","54","","","","","","","","","","","","","","","",""
"","time_out","","html-keyboard-response","367","343881","0.0-1.0-494.0-0.0","0","0","64270","","null","","","null","54","","","","","","","","","","","","","","","",""
"","ITI","","html-keyboard-response","368","344887","0.0-1.0-495.0","0","0","64270","","null","","","null","54","","","","","","","","","","","","","","","NaN",""
"","S1","","html-keyboard-response","369","345140","0.0-1.0-497.0","0","0","64270","","null","","","null","55","","","","","","","","","","","","","","","",""
"","ISI","","html-keyboard-response","370","345640","0.0-1.0-498.0","0","0","64270","","null","","","null","55","NaN","","","","","","","","","","","","","","",""
"","S2","","html-keyboard-response","371","345892","0.0-1.0-499.0","0","0","64270","","null","","","null","55","","NaN","","","","","","","","","","","","","",""
"","response","","html-keyboard-response","372","346577","0.0-1.0-500.0-0.0","0","0","64270","","684","","","68","55","","","2","55","training","adjacent","FG","6","7","Q.jpg","O.jpg","1","1","1","",""
"","feedback","","html-keyboard-response","373","347579","0.0-1.0-501.0-0.0","0","0","64270","","null","","","null","55","","","","","","","","","","","","","","","",""
"","ITI","","html-keyboard-response","374","348580","0.0-1.0-504.0","0","0","64270","","null","","","null","55","","","","","","","","","","","","","","","NaN",""
"","S1","","html-keyboard-response","375","348833","0.0-1.0-506.0","0","0","64270","","null","","","null","56","","","","","","","","","","","","","","","",""
"","ISI","","html-keyboard-response","376","349335","0.0-1.0-507.0","0","0","64270","","null","","","null","56","NaN","","","","","","","","","","","","","","",""
"","S2","","html-keyboard-response","377","349568","0.0-1.0-508.0","0","0","64270","","232","","","68","56","","d","2","56","training","adjacent","BA","2","1","L.jpg","P.jpg","1","0","0","",""
"","feedback","","html-keyboard-response","378","350570","0.0-1.0-510.0-0.0","0","0","64270","","null","","","null","56","","","","","","","","","","","","","","","",""
"","time_out","","html-keyboard-response","379","352571","0.0-1.0-512.0-0.0","0","0","64270","","null","","","null","56","","","","","","","","","","","","","","","",""
"","ITI","","html-keyboard-response","380","353573","0.0-1.0-513.0","0","0","64270","","null","","","null","56","","","","","","","","","","","","","","","NaN",""
"","S1","","html-keyboard-response","381","353826","0.0-1.0-515.0","0","0","64270","","null","","","null","57","","","","","","","","","","","","","","","",""
"","ISI","","html-keyboard-response","382","354327","0.0-1.0-516.0","0","0","64270","","null","","","null","57","NaN","","","","","","","","","","","","","","",""
"","S2","","html-keyboard-response","383","354581","0.0-1.0-517.0","0","0","64270","","null","","","null","57","","NaN","","","","","","","","","","","","","",""
"","response","","html-keyboard-response","384","354700","0.0-1.0-518.0-0.0","0","0","64270","","116","","","75","57","","","2","57","training","adjacent","AB","1","2","P.jpg","L.jpg","0","1","0","",""
"","feedback","","html-keyboard-response","385","355703","0.0-1.0-519.0-0.0","0","0","64270","","null","","","null","57","","","","","","","","","","","","","","","",""
"","time_out","","html-keyboard-response","386","357706","0.0-1.0-521.0-0.0","0","0","64270","","null","","","null","57","","","","","","","","","","","","","","","",""
"","ITI","","html-keyboard-response","387","358707","0.0-1.0-522.0","0","0","64270","","null","","","null","57","","","","","","","","","","","","","","","NaN",""
"","S1","","html-keyboard-response","388","358958","0.0-1.0-524.0","0","0","64270","","null","","","null","58","","","","","","","","","","","","","","","",""
"","ISI","","html-keyboard-response","389","359460","0.0-1.0-525.0","0","0","64270","","null","","","null","58","NaN","","","","","","","","","","","","","","",""
"","S2","","html-keyboard-response","390","359713","0.0-1.0-526.0","0","0","64270","","null","","","null","58","","NaN","","","","","","","","","","","","","",""
"","response","","html-keyboard-response","391","359831","0.0-1.0-527.0-0.0","0","0","64270","","117","","","75","58","","","2","58","training","adjacent","CB","3","2","M.jpg","L.jpg","0","0","1","",""
"","feedback","","html-keyboard-response","392","360833","0.0-1.0-528.0-0.0","0","0","64270","","null","","","null","58","","","","","","","","","","","","","","","",""
"","ITI","","html-keyboard-response","393","361836","0.0-1.0-531.0","0","0","64270","","null","","","null","58","","","","","","","","","","","","","","","NaN",""
"","S1","","html-keyboard-response","394","362087","0.0-1.0-533.0","0","0","64270","","null","","","null","59","","","","","","","","","","","","","","","",""
"","ISI","","html-keyboard-response","395","362589","0.0-1.0-534.0","0","0","64270","","null","","","null","59","NaN","","","","","","","","","","","","","","",""
"","S2","","html-keyboard-response","396","362842","0.0-1.0-535.0","0","0","64270","","null","","","null","59","","NaN","","","","","","","","","","","","","",""
"","response","","html-keyboard-response","397","362858","0.0-1.0-536.0-0.0","0","0","64270","","14","","","75","59","","","2","59","training","adjacent","FG","6","7","Q.jpg","O.jpg","0","1","0","",""
"","feedback","","html-keyboard-response","398","363860","0.0-1.0-537.0-0.0","0","0","64270","","null","","","null","59","","","","","","","","","","","","","","","",""
"","time_out","","html-keyboard-response","399","365862","0.0-1.0-539.0-0.0","0","0","64270","","null","","","null","59","","","","","","","","","","","","","","","",""
"","ITI","","html-keyboard-response","400","366865","0.0-1.0-540.0","0","0","64270","","null","","","null","59","","","","","","","","","","","","","","","NaN",""
"","S1","","html-keyboard-response","401","367118","0.0-1.0-542.0","0","0","64270","","null","","","null","60","","","","","","","","","","","","","","","",""
"","ISI","","html-keyboard-response","402","367620","0.0-1.0-543.0","0","0","64270","","null","","","null","60","NaN","","","","","","","","","","","","","","",""
"","S2","","html-keyboard-response","403","367877","0.0-1.0-544.0","0","0","64270","","null","","","null","60","","NaN","","","","","","","","","","","","","",""
"","response","","html-keyboard-response","404","367940","0.0-1.0-545.0-0.0","0","0","64270","","60","","","68","60","","","2","60","training","adjacent","BA","2","1","L.jpg","P.jpg","1","0","0","",""
"","feedback","","html-keyboard-response","405","368942","0.0-1.0-546.0-0.0","0","0","64270","","null","","","null","60","","","","","","","","","","","","","","","",""
"","time_out","","html-keyboard-response","406","370948","0.0-1.0-548.0-0.0","0","0","64270","","null","","","null","60","","","","","","","","","","","","","","","",""
"","ITI","","html-keyboard-response","407","371950","0.0-1.0-549.0","0","0","64270","","null","","","null","60","","","","","","","","","","","","","","","NaN",""
"","S1","","html-keyboard-response","408","372202","0.0-1.0-551.0","0","0","64270","","null","","","null","61","","","","","","","","","","","","","","","",""
"","ISI","","html-keyboard-response","409","372703","0.0-1.0-552.0","0","0","64270","","null","","","null","61","NaN","","","","","","","","","","","","","","",""
"","S2","","html-keyboard-response","410","372956","0.0-1.0-553.0","0","0","64270","","null","","","null","61","","NaN","","","","","","","","","","","","","",""
"","response","","html-keyboard-response","411","373329","0.0-1.0-554.0-0.0","0","0","64270","","372","","","68","61","","","2","61","training","adjacent","GF","7","6","O.jpg","Q.jpg","1","0","0","",""
"","feedback","","html-keyboard-response","412","374330","0.0-1.0-555.0-0.0","0","0","64270","","null","","","null","61","","","","","","","","","","","","","","","",""
"","time_out","","html-keyboard-response","413","376334","0.0-1.0-557.0-0.0","0","0","64270","","null","","","null","61","","","","","","","","","","","","","","","",""
"","ITI","","html-keyboard-response","414","377335","0.0-1.0-558.0","0","0","64270","","null","","","null","61","","","","","","","","","","","","","","","NaN",""
"","S1","","html-keyboard-response","415","377588","0.0-1.0-560.0","0","0","64270","","null","","","null","62","","","","","","","","","","","","","","","",""
"","ISI","","html-keyboard-response","416","378089","0.0-1.0-561.0","0","0","64270","","null","","","null","62","NaN","","","","","","","","","","","","","","",""
"","S2","","html-keyboard-response","417","378343","0.0-1.0-562.0","0","0","64270","","null","","","null","62","","NaN","","","","","","","","","","","","","",""
"","response","","html-keyboard-response","418","378708","0.0-1.0-563.0-0.0","0","0","64270","","363","","","75","62","","","2","62","training","adjacent","FG","6","7","Q.jpg","O.jpg","0","1","0","",""
"","feedback","","html-keyboard-response","419","379711","0.0-1.0-564.0-0.0","0","0","64270","","null","","","null","62","","","","","","","","","","","","","","","",""
"","time_out","","html-keyboard-response","420","381713","0.0-1.0-566.0-0.0","0","0","64270","","null","","","null","62","","","","","","","","","","","","","","","",""
"","ITI","","html-keyboard-response","421","382716","0.0-1.0-567.0","0","0","64270","","null","","","null","62","","","","","","","","","","","","","","","NaN",""
"","S1","","html-keyboard-response","422","382968","0.0-1.0-569.0","0","0","64270","","null","","","null","63","","","","","","","","","","","","","","","",""
"","ISI","","html-keyboard-response","423","383469","0.0-1.0-570.0","0","0","64270","","null","","","null","63","NaN","","","","","","","","","","","","","","",""
"","S2","","html-keyboard-response","424","383548","0.0-1.0-571.0","0","0","64270","","77","","","68","63","","d","2","63","training","adjacent","FE","6","5","Q.jpg","N.jpg","1","0","0","",""
"","feedback","","html-keyboard-response","425","384550","0.0-1.0-573.0-0.0","0","0","64270","","null","","","null","63","","","","","","","","","","","","","","","",""
"","time_out","","html-keyboard-response","426","386553","0.0-1.0-575.0-0.0","0","0","64270","","null","","","null","63","","","","","","","","","","","","","","","",""
"","ITI","","html-keyboard-response","427","387555","0.0-1.0-576.0","0","0","64270","","null","","","null","63","","","","","","","","","","","","","","","NaN",""
"","S1","","html-keyboard-response","428","387807","0.0-1.0-578.0","0","0","64270","","null","","","null","64","","","","","","","","","","","","","","","",""
"","ISI","","html-keyboard-response","429","388309","0.0-1.0-579.0","0","0","64270","","null","","","null","64","NaN","","","","","","","","","","","","","","",""
"","S2","","html-keyboard-response","430","388560","0.0-1.0-580.0","0","0","64270","","null","","","null","64","","NaN","","","","","","","","","","","","","",""
"","response","","html-keyboard-response","431","388819","0.0-1.0-581.0-0.0","0","0","64270","","257","","","68","64","","","2","64","training","adjacent","ED","5","4","N.jpg","R.jpg","1","0","0","",""
"","feedback","","html-keyboard-response","432","389821","0.0-1.0-582.0-0.0","0","0","64270","","null","","","null","64","","","","","","","","","","","","","","","",""
"","time_out","","html-keyboard-response","433","391828","0.0-1.0-584.0-0.0","0","0","64270","","null","","","null","64","","","","","","","","","","","","","","","",""
"","ITI","","html-keyboard-response","434","392830","0.0-1.0-585.0","0","0","64270","","null","","","null","64","","","","","","","","","","","","","","","NaN",""
"","S1","","html-keyboard-response","435","393083","0.0-1.0-587.0","0","0","64270","","null","","","null","65","","","","","","","","","","","","","","","",""
"","ISI","","html-keyboard-response","436","393585","0.0-1.0-588.0","0","0","64270","","null","","","null","65","NaN","","","","","","","","","","","","","","",""
"","S2","","html-keyboard-response","437","393837","0.0-1.0-589.0","0","0","64270","","null","","","null","65","","NaN","","","","","","","","","","","","","",""
"","response","","html-keyboard-response","438","393968","0.0-1.0-590.0-0.0","0","0","64270","","130","","","68","65","","","2","65","training","adjacent","AB","1","2","P.jpg","L.jpg","1","1","1","",""
"","feedback","","html-keyboard-response","439","394971","0.0-1.0-591.0-0.0","0","0","64270","","null","","","null","65","","","","","","","","","","","","","","","",""
"","ITI","","html-keyboard-response","440","395974","0.0-1.0-594.0","0","0","64270","","null","","","null","65","","","","","","","","","","","","","","","NaN",""
"","S1","","html-keyboard-response","441","396226","0.0-1.0-596.0","0","0","64270","","null","","","null","66","","","","","","","","","","","","","","","",""
"","ISI","","html-keyboard-response","442","396727","0.0-1.0-597.0","0","0","64270","","null","","","null","66","NaN","","","","","","","","","","","","","","",""
"","S2","","html-keyboard-response","443","396983","0.0-1.0-598.0","0","0","64270","","null","","","null","66","","NaN","","","","","","","","","","","","","",""
"","response","","html-keyboard-response","444","397380","0.0-1.0-599.0-0.0","0","0","64270","","393","","","68","66","","","2","66","training","adjacent","BC","2","3","L.jpg","M.jpg","1","1","1","",""
"","feedback","","html-keyboard-response","445","398381","0.0-1.0-600.0-0.0","0","0","64270","","null","","","null","66","","","","","","","","","","","","","","","",""
"","ITI","","html-keyboard-response","446","399383","0.0-1.0-603.0","0","0","64270","","null","","","null","66","","","","","","","","","","","","","","","NaN",""
"","S1","","html-keyboard-response","447","399635","0.0-1.0-605.0","0","0","64270","","null","","","null","67","","","","","","","","","","","","","","","",""
"","ISI","","html-keyboard-response","448","400136","0.0-1.0-606.0","0","0","64270","","null","","","null","67","NaN","","","","","","","","","","","","","","",""
"","S2","","html-keyboard-response","449","400388","0.0-1.0-607.0","0","0","64270","","null","","","null","67","","NaN","","","","","","","","","","","","","",""
"","response","","html-keyboard-response","450","400789","0.0-1.0-608.0-0.0","0","0","64270","","400","","","68","67","","","2","67","training","adjacent","ED","5","4","N.jpg","R.jpg","1","0","0","",""
"","feedback","","html-keyboard-response","451","401799","0.0-1.0-609.0-0.0","0","0","64270","","null","","","null","67","","","","","","","","","","","","","","","",""
"","time_out","","html-keyboard-response","452","403800","0.0-1.0-611.0-0.0","0","0","64270","","null","","","null","67","","","","","","","","","","","","","","","",""
"","ITI","","html-keyboard-response","453","404805","0.0-1.0-612.0","0","0","64270","","null","","","null","67","","","","","","","","","","","","","","","NaN",""
"","S1","","html-keyboard-response","454","405057","0.0-1.0-614.0","0","0","64270","","null","","","null","68","","","","","","","","","","","","","","","",""
"","ISI","","html-keyboard-response","455","405559","0.0-1.0-615.0","0","0","64270","","null","","","null","68","NaN","","","","","","","","","","","","","","",""
"","S2","","html-keyboard-response","456","405830","0.0-1.0-616.0","0","0","64270","","null","","","null","68","","NaN","","","","","","","","","","","","","",""
"","response","","html-keyboard-response","457","406088","0.0-1.0-617.0-0.0","0","0","64270","","256","","","68","68","","","2","68","training","adjacent","BC","2","3","L.jpg","M.jpg","1","1","1","",""
"","feedback","","html-keyboard-response","458","407124","0.0-1.0-618.0-0.0","0","0","64270","","null","","","null","68","","","","","","","","","","","","","","","",""
"","ITI","","html-keyboard-response","459","408127","0.0-1.0-621.0","0","0","64270","","null","","","null","68","","","","","","","","","","","","","","","NaN",""
"","S1","","html-keyboard-response","460","408379","0.0-1.0-623.0","0","0","64270","","null","","","null","69","","","","","","","","","","","","","","","",""
"","ISI","","html-keyboard-response","461","408880","0.0-1.0-624.0","0","0","64270","","null","","","null","69","NaN","","","","","","","","","","","","","","",""
"","S2","","html-keyboard-response","462","409133","0.0-1.0-625.0","0","0","64270","","null","","","null","69","","NaN","","","","","","","","","","","","","",""
"","response","","html-keyboard-response","463","409728","0.0-1.0-626.0-0.0","0","0","64270","","592","","","68","69","","","2","69","training","adjacent","CD","3","4","M.jpg","R.jpg","1","1","1","",""
"","feedback","","html-keyboard-response","464","410730","0.0-1.0-627.0-0.0","0","0","64270","","null","","","null","69","","","","","","","","","","","","","","","",""
"","ITI","","html-keyboard-response","465","411732","0.0-1.0-630.0","0","0","64270","","null","","","null","69","","","","","","","","","","","","","","","NaN",""
"","S1","","html-keyboard-response","466","411984","0.0-1.0-632.0","0","0","64270","","null","","","null","70","","","","","","","","","","","","","","","",""
"","ISI","","html-keyboard-response","467","412485","0.0-1.0-633.0","0","0","64270","","null","","","null","70","NaN","","","","","","","","","","","","","","",""
"","S2","","html-keyboard-response","468","412739","0.0-1.0-634.0","0","0","64270","","null","","","null","70","","NaN","","","","","","","","","","","","","",""
"","response","","html-keyboard-response","469","413118","0.0-1.0-635.0-0.0","0","0","64270","","378","","","75","70","","","2","70","training","adjacent","CD","3","4","M.jpg","R.jpg","0","1","0","",""
"","feedback","","html-keyboard-response","470","414127","0.0-1.0-636.0-0.0","0","0","64270","","null","","","null","70","","","","","","","","","","","","","","","",""
"","time_out","","html-keyboard-response","471","416128","0.0-1.0-638.0-0.0","0","0","64270","","null","","","null","70","","","","","","","","","","","","","","","",""
"","ITI","","html-keyboard-response","472","417130","0.0-1.0-639.0","0","0","64270","","null","","","null","70","","","","","","","","","","","","","","","NaN",""
"","S1","","html-keyboard-response","473","417383","0.0-1.0-641.0","0","0","64270","","null","","","null","71","","","","","","","","","","","","","","","",""
"","ISI","","html-keyboard-response","474","417886","0.0-1.0-642.0","0","0","64270","","null","","","null","71","NaN","","","","","","","","","","","","","","",""
"","S2","","html-keyboard-response","475","418139","0.0-1.0-643.0","0","0","64270","","null","","","null","71","","NaN","","","","","","","","","","","","","",""
"","response","","html-keyboard-response","476","418507","0.0-1.0-644.0-0.0","0","0","64270","","367","","","75","71","","","2","71","training","adjacent","CD","3","4","M.jpg","R.jpg","0","1","0","",""
"","feedback","","html-keyboard-response","477","419514","0.0-1.0-645.0-0.0","0","0","64270","","null","","","null","71","","","","","","","","","","","","","","","",""
"","time_out","","html-keyboard-response","478","421516","0.0-1.0-647.0-0.0","0","0","64270","","null","","","null","71","","","","","","","","","","","","","","","",""
"","ITI","","html-keyboard-response","479","422520","0.0-1.0-648.0","0","0","64270","","null","","","null","71","","","","","","","","","","","","","","","NaN",""
"","S1","","html-keyboard-response","480","422772","0.0-1.0-650.0","0","0","64270","","null","","","null","72","","","","","","","","","","","","","","","",""
"","ISI","","html-keyboard-response","481","423275","0.0-1.0-651.0","0","0","64270","","null","","","null","72","NaN","","","","","","","","","","","","","","",""
"","S2","","html-keyboard-response","482","423527","0.0-1.0-652.0","0","0","64270","","null","","","null","72","","NaN","","","","","","","","","","","","","",""
"","response","","html-keyboard-response","483","423629","0.0-1.0-653.0-0.0","0","0","64270","","99","","","75","72","","","2","72","training","adjacent","FE","6","5","Q.jpg","N.jpg","0","0","1","",""
"","feedback","","html-keyboard-response","484","424632","0.0-1.0-654.0-0.0","0","0","64270","","null","","","null","72","","","","","","","","","","","","","","","",""
"","ITI","","html-keyboard-response","485","425633","0.0-1.0-657.0","0","0","64270","","null","","","null","72","","","","","","","","","","","","","","","NaN",""
"","S1","","html-keyboard-response","486","425885","0.0-1.0-659.0","0","0","64270","","null","","","null","73","","","","","","","","","","","","","","","",""
"","ISI","","html-keyboard-response","487","426387","0.0-1.0-660.0","0","0","64270","","null","","","null","73","NaN","","","","","","","","","","","","","","",""
"","S2","","html-keyboard-response","488","426639","0.0-1.0-661.0","0","0","64270","","null","","","null","73","","NaN","","","","","","","","","","","","","",""
"","response","","html-keyboard-response","489","426848","0.0-1.0-662.0-0.0","0","0","64270","","206","","","75","73","","","2","73","training","adjacent","GF","7","6","O.jpg","Q.jpg","0","0","1","",""
"","feedback","","html-keyboard-response","490","427850","0.0-1.0-663.0-0.0","0","0","64270","","null","","","null","73","","","","","","","","","","","","","","","",""
"","ITI","","html-keyboard-response","491","428853","0.0-1.0-666.0","0","0","64270","","null","","","null","73","","","","","","","","","","","","","","","NaN",""
"","S1","","html-keyboard-response","492","429113","0.0-1.0-668.0","0","0","64270","","null","","","null","74","","","","","","","","","","","","","","","",""
"","ISI","","html-keyboard-response","493","429614","0.0-1.0-669.0","0","0","64270","","null","","","null","74","NaN","","","","","","","","","","","","","","",""
"","S2","","html-keyboard-response","494","429867","0.0-1.0-670.0","0","0","64270","","null","","","null","74","","NaN","","","","","","","","","","","","","",""
"","response","","html-keyboard-response","495","430327","0.0-1.0-671.0-0.0","0","0","64270","","459","","","75","74","","","2","74","training","adjacent","DC","4","3","R.jpg","M.jpg","0","0","1","",""
"","feedback","","html-keyboard-response","496","431330","0.0-1.0-672.0-0.0","0","0","64270","","null","","","null","74","","","","","","","","","","","","","","","",""
"","ITI","","html-keyboard-response","497","432332","0.0-1.0-675.0","0","0","64270","","null","","","null","74","","","","","","","","","","","","","","","NaN",""
"","S1","","html-keyboard-response","498","432585","0.0-1.0-677.0","0","0","64270","","null","","","null","75","","","","","","","","","","","","","","","",""
"","ISI","","html-keyboard-response","499","433086","0.0-1.0-678.0","0","0","64270","","null","","","null","75","NaN","","","","","","","","","","","","","","",""
"","S2","","html-keyboard-response","500","433338","0.0-1.0-679.0","0","0","64270","","null","","","null","75","","NaN","","","","","","","","","","","","","",""
"","response","","html-keyboard-response","501","434047","0.0-1.0-680.0-0.0","0","0","64270","","707","","","68","75","","","2","75","training","adjacent","EF","5","6","N.jpg","Q.jpg","1","1","1","",""
"","feedback","","html-keyboard-response","502","435049","0.0-1.0-681.0-0.0","0","0","64270","","null","","","null","75","","","","","","","","","","","","","","","",""
"","ITI","","html-keyboard-response","503","436052","0.0-1.0-684.0","0","0","64270","","null","","","null","75","","","","","","","","","","","","","","","NaN",""
"","S1","","html-keyboard-response","504","436303","0.0-1.0-686.0","0","0","64270","","null","","","null","76","","","","","","","","","","","","","","","",""
"","ISI","","html-keyboard-response","505","436808","0.0-1.0-687.0","0","0","64270","","null","","","null","76","NaN","","","","","","","","","","","","","","",""
"","S2","","html-keyboard-response","506","437061","0.0-1.0-688.0","0","0","64270","","null","","","null","76","","NaN","","","","","","","","","","","","","",""
"","response","","html-keyboard-response","507","437337","0.0-1.0-689.0-0.0","0","0","64270","","273","","","68","76","","","2","76","training","adjacent","GF","7","6","O.jpg","Q.jpg","1","0","0","",""
"","feedback","","html-keyboard-response","508","438340","0.0-1.0-690.0-0.0","0","0","64270","","null","","","null","76","","","","","","","","","","","","","","","",""
"","time_out","","html-keyboard-response","509","440342","0.0-1.0-692.0-0.0","0","0","64270","","null","","","null","76","","","","","","","","","","","","","","","",""
"","ITI","","html-keyboard-response","510","441345","0.0-1.0-693.0","0","0","64270","","492","","","75","76","","","","","","","","","","","","","","","k",""
"","S1","","html-keyboard-response","511","441597","0.0-1.0-695.0","0","0","64270","","null","","","null","77","","","","","","","","","","","","","","","",""
"","ISI","","html-keyboard-response","512","442098","0.0-1.0-696.0","0","0","64270","","null","","","null","77","NaN","","","","","","","","","","","","","","",""
"","S2","","html-keyboard-response","513","442349","0.0-1.0-697.0","0","0","64270","","null","","","null","77","","NaN","","","","","","","","","","","","","",""
"","response","","html-keyboard-response","514","443217","0.0-1.0-698.0-0.0","0","0","64270","","866","","","68","77","","","2","77","training","adjacent","EF","5","6","N.jpg","Q.jpg","1","1","1","",""
"","feedback","","html-keyboard-response","515","444220","0.0-1.0-699.0-0.0","0","0","64270","","null","","","null","77","","","","","","","","","","","","","","","",""
"","ITI","","html-keyboard-response","516","445222","0.0-1.0-702.0","0","0","64270","","null","","","null","77","","","","","","","","","","","","","","","NaN",""
"","S1","","html-keyboard-response","517","445474","0.0-1.0-704.0","0","0","64270","","null","","","null","78","","","","","","","","","","","","","","","",""
"","ISI","","html-keyboard-response","518","445976","0.0-1.0-705.0","0","0","64270","","null","","","null","78","NaN","","","","","","","","","","","","","","",""
"","S2","","html-keyboard-response","519","446226","0.0-1.0-706.0","0","0","64270","","null","","","null","78","","NaN","","","","","","","","","","","","","",""
"","response","","html-keyboard-response","520","446276","0.0-1.0-707.0-0.0","0","0","64270","","48","","","68","78","","","2","78","training","adjacent","FG","6","7","Q.jpg","O.jpg","1","1","1","",""
"","feedback","","html-keyboard-response","521","447278","0.0-1.0-708.0-0.0","0","0","64270","","null","","","null","78","","","","","","","","","","","","","","","",""
"","ITI","","html-keyboard-response","522","448283","0.0-1.0-711.0","0","0","64270","","null","","","null","78","","","","","","","","","","","","","","","NaN",""
"","S1","","html-keyboard-response","523","448534","0.0-1.0-713.0","0","0","64270","","null","","","null","79","","","","","","","","","","","","","","","",""
"","ISI","","html-keyboard-response","524","449036","0.0-1.0-714.0","0","0","64270","","null","","","null","79","NaN","","","","","","","","","","","","","","",""
"","S2","","html-keyboard-response","525","449287","0.0-1.0-715.0","0","0","64270","","null","","","null","79","","NaN","","","","","","","","","","","","","",""
"","response","","html-keyboard-response","526","449587","0.0-1.0-716.0-0.0","0","0","64270","","298","","","75","79","","","2","79","training","adjacent","EF","5","6","N.jpg","Q.jpg","0","1","0","",""
"","feedback","","html-keyboard-response","527","450589","0.0-1.0-717.0-0.0","0","0","64270","","null","","","null","79","","","","","","","","","","","","","","","",""
"","time_out","","html-keyboard-response","528","452591","0.0-1.0-719.0-0.0","0","0","64270","","null","","","null","79","","","","","","","","","","","","","","","",""
"","ITI","","html-keyboard-response","529","453593","0.0-1.0-720.0","0","0","64270","","null","","","null","79","","","","","","","","","","","","","","","NaN",""
"","S1","","html-keyboard-response","530","453846","0.0-1.0-722.0","0","0","64270","","null","","","null","80","","","","","","","","","","","","","","","",""
"","ISI","","html-keyboard-response","531","454397","0.0-1.0-723.0","0","0","64270","","null","","","null","80","NaN","","","","","","","","","","","","","","",""
"","S2","","html-keyboard-response","532","454548","0.0-1.0-724.0","0","0","64270","","148","","","68","80","","d","2","80","training","adjacent","DE","4","5","R.jpg","N.jpg","1","1","1","",""
"","feedback","","html-keyboard-response","533","455551","0.0-1.0-726.0-0.0","0","0","64270","","null","","","null","80","","","","","","","","","","","","","","","",""
"","ITI","","html-keyboard-response","534","456553","0.0-1.0-729.0","0","0","64270","","null","","","null","80","","","","","","","","","","","","","","","NaN",""
"","S1","","html-keyboard-response","535","456807","0.0-1.0-731.0","0","0","64270","","null","","","null","81","","","","","","","","","","","","","","","",""
"","ISI","","html-keyboard-response","536","457320","0.0-1.0-732.0","0","0","64270","","null","","","null","81","NaN","","","","","","","","","","","","","","",""
"","S2","","html-keyboard-response","537","457572","0.0-1.0-733.0","0","0","64270","","null","","","null","81","","NaN","","","","","","","","","","","","","",""
"","response","","html-keyboard-response","538","457597","0.0-1.0-734.0-0.0","0","0","64270","","24","","","68","81","","","2","81","training","adjacent","DE","4","5","R.jpg","N.jpg","1","1","1","",""
"","feedback","","html-keyboard-response","539","458601","0.0-1.0-735.0-0.0","0","0","64270","","null","","","null","81","","","","","","","","","","","","","","","",""
"","ITI","","html-keyboard-response","540","459603","0.0-1.0-738.0","0","0","64270","","null","","","null","81","","","","","","","","","","","","","","","NaN",""
"","S1","","html-keyboard-response","541","459855","0.0-1.0-740.0","0","0","64270","","null","","","null","82","","","","","","","","","","","","","","","",""
"","ISI","","html-keyboard-response","542","460358","0.0-1.0-741.0","0","0","64270","","null","","","null","82","NaN","","","","","","","","","","","","","","",""
"","S2","","html-keyboard-response","543","460610","0.0-1.0-742.0","0","0","64270","","null","","","null","82","","NaN","","","","","","","","","","","","","",""
"","response","","html-keyboard-response","544","461137","0.0-1.0-743.0-0.0","0","0","64270","","525","","","68","82","","","2","82","training","adjacent","DC","4","3","R.jpg","M.jpg","1","0","0","",""
"","feedback","","html-keyboard-response","545","462141","0.0-1.0-744.0-0.0","0","0","64270","","null","","","null","82","","","","","","","","","","","","","","","",""
"","time_out","","html-keyboard-response","546","464148","0.0-1.0-746.0-0.0","0","0","64270","","null","","","null","82","","","","","","","","","","","","","","","",""
"","ITI","","html-keyboard-response","547","465155","0.0-1.0-747.0","0","0","64270","","null","","","null","82","","","","","","","","","","","","","","","NaN",""
"","S1","","html-keyboard-response","548","465408","0.0-1.0-749.0","0","0","64270","","null","","","null","83","","","","","","","","","","","","","","","",""
"","ISI","","html-keyboard-response","549","465909","0.0-1.0-750.0","0","0","64270","","null","","","null","83","NaN","","","","","","","","","","","","","","",""
"","S2","","html-keyboard-response","550","466117","0.0-1.0-751.0","0","0","64270","","206","","","68","83","","d","2","83","training","adjacent","CD","3","4","M.jpg","R.jpg","1","1","1","",""
"","feedback","","html-keyboard-response","551","467120","0.0-1.0-753.0-0.0","0","0","64270","","null","","","null","83","","","","","","","","","","","","","","","",""
"","ITI","","html-keyboard-response","552","468122","0.0-1.0-756.0","0","0","64270","","null","","","null","83","","","","","","","","","","","","","","","NaN",""
"","S1","","html-keyboard-response","553","468374","0.0-1.0-758.0","0","0","64270","","null","","","null","84","","","","","","","","","","","","","","","",""
"","ISI","","html-keyboard-response","554","468876","0.0-1.0-759.0","0","0","64270","","null","","","null","84","NaN","","","","","","","","","","","","","","",""
"","S2","","html-keyboard-response","555","469127","0.0-1.0-760.0","0","0","64270","","null","","","null","84","","NaN","","","","","","","","","","","","","",""
"","response","","html-keyboard-response","556","469267","0.0-1.0-761.0-0.0","0","0","64270","","139","","","68","84","","","2","84","training","adjacent","BA","2","1","L.jpg","P.jpg","1","0","0","",""
"","feedback","","html-keyboard-response","557","470268","0.0-1.0-762.0-0.0","0","0","64270","","null","","","null","84","","","","","","","","","","","","","","","",""
"","time_out","","html-keyboard-response","558","472271","0.0-1.0-764.0-0.0","0","0","64270","","null","","","null","84","","","","","","","","","","","","","","","",""
"","ITI","","html-keyboard-response","559","473273","0.0-1.0-765.0","0","0","64270","","null","","","null","84","","","","","","","","","","","","","","","NaN",""
"","S1","","html-keyboard-response","560","473526","0.0-1.0-767.0","0","0","64270","","null","","","null","85","","","","","","","","","","","","","","","",""
"","ISI","","html-keyboard-response","561","474027","0.0-1.0-768.0","0","0","64270","","null","","","null","85","NaN","","","","","","","","","","","","","","",""
"","S2","","html-keyboard-response","562","474279","0.0-1.0-769.0","0","0","64270","","null","","","null","85","","NaN","","","","","","","","","","","","","",""
"","response","","html-keyboard-response","563","474438","0.0-1.0-770.0-0.0","0","0","64270","","157","","","75","85","","","2","85","training","adjacent","BA","2","1","L.jpg","P.jpg","0","0","1","",""
"","feedback","","html-keyboard-response","564","475440","0.0-1.0-771.0-0.0","0","0","64270","","null","","","null","85","","","","","","","","","","","","","","","",""
"","ITI","","html-keyboard-response","565","476442","0.0-1.0-774.0","0","0","64270","","null","","","null","85","","","","","","","","","","","","","","","NaN",""
"","S1","","html-keyboard-response","566","476694","0.0-1.0-776.0","0","0","64270","","null","","","null","86","","","","","","","","","","","","","","","",""
"","ISI","","html-keyboard-response","567","477195","0.0-1.0-777.0","0","0","64270","","null","","","null","86","NaN","","","","","","","","","","","","","","",""
"","S2","","html-keyboard-response","568","477446","0.0-1.0-778.0","0","0","64270","","null","","","null","86","","NaN","","","","","","","","","","","","","",""
"","response","","html-keyboard-response","569","477958","0.0-1.0-779.0-0.0","0","0","64270","","509","","","68","86","","","2","86","training","adjacent","FE","6","5","Q.jpg","N.jpg","1","0","0","",""
"","feedback","","html-keyboard-response","570","478960","0.0-1.0-780.0-0.0","0","0","64270","","null","","","null","86","","","","","","","","","","","","","","","",""
"","time_out","","html-keyboard-response","571","481018","0.0-1.0-782.0-0.0","0","0","64270","","null","","","null","86","","","","","","","","","","","","","","","",""
"","ITI","","html-keyboard-response","572","482019","0.0-1.0-783.0","0","0","64270","","null","","","null","86","","","","","","","","","","","","","","","NaN",""
"","S1","","html-keyboard-response","573","482272","0.0-1.0-785.0","0","0","64270","","null","","","null","87","","","","","","","","","","","","","","","",""
"","ISI","","html-keyboard-response","574","482774","0.0-1.0-786.0","0","0","64270","","null","","","null","87","NaN","","","","","","","","","","","","","","",""
"","S2","","html-keyboard-response","575","483027","0.0-1.0-787.0","0","0","64270","","null","","","null","87","","NaN","","","","","","","","","","","","","",""
"","response","","html-keyboard-response","576","483047","0.0-1.0-788.0-0.0","0","0","64270","","19","","","68","87","","","2","87","training","adjacent","CB","3","2","M.jpg","L.jpg","1","0","0","",""
"","feedback","","html-keyboard-response","577","484051","0.0-1.0-789.0-0.0","0","0","64270","","null","","","null","87","","","","","","","","","","","","","","","",""
"","time_out","","html-keyboard-response","578","486054","0.0-1.0-791.0-0.0","0","0","64270","","null","","","null","87","","","","","","","","","","","","","","","",""
"","ITI","","html-keyboard-response","579","487057","0.0-1.0-792.0","0","0","64270","","null","","","null","87","","","","","","","","","","","","","","","NaN",""
"","S1","","html-keyboard-response","580","487308","0.0-1.0-794.0","0","0","64270","","null","","","null","88","","","","","","","","","","","","","","","",""
"","ISI","","html-keyboard-response","581","487811","0.0-1.0-795.0","0","0","64270","","487","","","68","88","d","","","","","","","","","","","","","","",""
"","S2","","html-keyboard-response","582","488063","0.0-1.0-796.0","0","0","64270","","null","","","null","88","","NaN","","","","","","","","","","","","","",""
"","response","","html-keyboard-response","583","489377","0.0-1.0-797.0-0.0","0","0","64270","","1312","","","68","88","","","2","88","training","adjacent","BC","2","3","L.jpg","M.jpg","1","1","1","",""
