"success","ttype","start_time","trial_type","trial_index","time_elapsed","internal_node_id","warning","missed_checkup","PID","view_history","rt","responses","repeat_instructions","key_press","index","keypress_isi","keypress_S2","block","trial_num","phase","group_type","pair_type","S1_stim","S2_stim","S1_img","S2_img","S1_chosen","S1_higher","accuracy","keypress_iti","total_bonus_tally"
"true","full_screen","d08032022hr1927","fullscreen","0","3279","0.0-0.0","0","0","57381","","","","","","","","","","","","","","","","","","","","","",""
"","instructions","","instructions","1","5053","0.0-1.0-0.0-0.0","0","0","57381","[{""page_index"":0,""viewing_time"":870},{""page_index"":1,""viewing_time"":142},{""page_index"":2,""viewing_time"":183},{""page_index"":3,""viewing_time"":577}]","1772","","","","","","","","","","","","","","","","","","","",""
"","comprehension_check","","survey-multi-choice","2","11302","0.0-1.0-0.0-1.0","0","0","57381","","6245","{""Q0"":"""",""Q1"":""D"",""Q2"":""Once the second image appears and while the screen 'MAKE A CHOICE' is shown"",""Q3"":""Green mark"",""Q4"":""either D or K""}","1","","","","","","","","","","","","","","","","","",""
"","missed_instruction_checkup","","html-keyboard-response","3","12102","0.0-1.0-0.0-2.0-0.0","0","1","57381","","796","","","32","","","","","","","","","","","","","","","","",""
"","instructions","","instructions","4","14368","0.0-1.0-0.1-0.1","0","0","57381","[{""page_index"":0,""viewing_time"":1278},{""page_index"":1,""viewing_time"":190},{""page_index"":2,""viewing_time"":289},{""page_index"":3,""viewing_time"":507}]","2264","","","","","","","","","","","","","","","","","","","",""
"","comprehension_check","","survey-multi-choice","5","20189","0.0-1.0-0.1-1.1","0","0","57381","","5816","{""Q0"":""True"",""Q1"":""K"",""Q2"":""Once the second image appears and while the screen 'MAKE A CHOICE' is shown"",""Q3"":""Green mark"",""Q4"":""either D or K""}","0","","","","","","","","","","","","","","","","","",""
"","start_exp","","html-keyboard-response","6","20936","0.0-1.0-1.0","0","0","57381","","745","","","32","","","","","","","","","","","","","","","","",""
"","S1","","html-keyboard-response","7","21189","0.0-1.0-2.0","0","0","57381","","null","","","null","0","","","","","","","","","","","","","","","",""
"","ISI","","html-keyboard-response","8","21294","0.0-1.0-3.0","0","0","57381","","null","","","null","0","NaN","","","","","","","","","","","","","","",""
"","S2","","html-keyboard-response","9","21550","0.0-1.0-4.0","0","0","57381","","null","","","null","0","","NaN","","","","","","","","","","","","","",""
"","response","","html-keyboard-response","10","22057","0.0-1.0-5.0-0.0","0","0","57381","","null","","","null","0","","","1","0","training","adjacent","EF","5","6","R.jpg","P.jpg","NaN","1","0","",""
"","too_slow_prompt","","html-keyboard-response","11","23059","0.0-1.0-7.0-0.0","1","0","57381","","null","","","null","","","","","","","","","","","","","","","","",""
"","time_out","","html-keyboard-response","12","23160","0.0-1.0-8.0-0.0","0","0","57381","","null","","","null","0","","","","","","","","","","","","","","","",""
"","ITI","","html-keyboard-response","13","23661","0.0-1.0-9.0","0","0","57381","","null","","","null","0","","","","","","","","","","","","","","","NaN",""
"","S1","","html-keyboard-response","14","23916","0.0-1.0-11.0","0","0","57381","","null","","","null","1","","","","","","","","","","","","","","","",""
"","ISI","","html-keyboard-response","15","24019","0.0-1.0-12.0","0","0","57381","","null","","","null","1","NaN","","","","","","","","","","","","","","",""
"","S2","","html-keyboard-response","16","24276","0.0-1.0-13.0","0","0","57381","","null","","","null","1","","NaN","","","","","","","","","","","","","",""
"","response","","html-keyboard-response","17","26107","0.0-1.0-14.0-0.0","0","0","57381","","null","","","null","1","","","1","1","training","adjacent","AB","1","2","M.jpg","L.jpg","NaN","1","0","",""
"","too_slow_prompt","","html-keyboard-response","18","28233","0.0-1.0-16.0-0.0","1","0","57381","","null","","","null","","","","","","","","","","","","","","","","",""
"","time_out","","html-keyboard-response","19","29006","0.0-1.0-17.0-0.0","0","0","57381","","null","","","null","1","","","","","","","","","","","","","","","",""
"","ITI","","html-keyboard-response","20","30121","0.0-1.0-18.0","0","0","57381","","null","","","null","1","","","","","","","","","","","","","","","NaN",""
"","S1","","html-keyboard-response","21","30803","0.0-1.0-20.0","0","0","57381","","null","","","null","2","","","","","","","","","","","","","","","",""
"","ISI","","html-keyboard-response","22","31750","0.0-1.0-21.0","0","0","57381","","null","","","null","2","NaN","","","","","","","","","","","","","","",""
"","S2","","html-keyboard-response","23","32750","0.0-1.0-22.0","0","0","57381","","null","","","null","2","","NaN","","","","","","","","","","","","","",""
"","response","","html-keyboard-response","24","33845","0.0-1.0-23.0-0.0","0","0","57381","","null","","","null","2","","","1","2","training","adjacent","DC","4","3","Q.jpg","O.jpg","NaN","0","0","",""
"","too_slow_prompt","","html-keyboard-response","25","35826","0.0-1.0-25.0-0.0","1","0","57381","","null","","","null","","","","","","","","","","","","","","","","",""
"","time_out","","html-keyboard-response","26","36921","0.0-1.0-26.0-0.0","0","0","57381","","null","","","null","2","","","","","","","","","","","","","","","",""
"","ITI","","html-keyboard-response","27","37751","0.0-1.0-27.0","0","0","57381","","null","","","null","2","","","","","","","","","","","","","","","NaN",""
"","S1","","html-keyboard-response","28","38751","0.0-1.0-29.0","0","0","57381","","null","","","null","3","","","","","","","","","","","","","","","",""
"","ISI","","html-keyboard-response","29","39750","0.0-1.0-30.0","0","0","57381","","null","","","null","3","NaN","","","","","","","","","","","","","","",""
"","S2","","html-keyboard-response","30","40751","0.0-1.0-31.0","0","0","57381","","null","","","null","3","","NaN","","","","","","","","","","","","","",""
"","response","","html-keyboard-response","31","41751","0.0-1.0-32.0-0.0","0","0","57381","","null","","","null","3","","","1","3","training","adjacent","FE","6","5","P.jpg","R.jpg","NaN","0","0","",""
"","too_slow_prompt","","html-keyboard-response","32","43750","0.0-1.0-34.0-0.0","1","0","57381","","null","","","null","","","","","","","","","","","","","","","","",""
"","time_out","","html-keyboard-response","33","44761","0.0-1.0-35.0-0.0","0","0","57381","","null","","","null","3","","","","","","","","","","","","","","","",""
"","ITI","","html-keyboard-response","34","45912","0.0-1.0-36.0","0","0","57381","","null","","","null","3","","","","","","","","","","","","","","","NaN",""
"","S1","","html-keyboard-response","35","46751","0.0-1.0-38.0","0","0","57381","","null","","","null","4","","","","","","","","","","","","","","","",""
"","ISI","","html-keyboard-response","36","47910","0.0-1.0-39.0","0","0","57381","","null","","","null","4","NaN","","","","","","","","","","","","","","",""
"","S2","","html-keyboard-response","37","48751","0.0-1.0-40.0","0","0","57381","","null","","","null","4","","NaN","","","","","","","","","","","","","",""
"","response","","html-keyboard-response","38","49847","0.0-1.0-41.0-0.0","0","0","57381","","null","","","null","4","","","1","4","training","adjacent","CD","3","4","O.jpg","Q.jpg","NaN","1","0","",""
"","too_slow_prompt","","html-keyboard-response","39","51844","0.0-1.0-43.0-0.0","1","0","57381","","null","","","null","","","","","","","","","","","","","","","","",""
"","time_out","","html-keyboard-response","40","52751","0.0-1.0-44.0-0.0","0","0","57381","","null","","","null","4","","","","","","","","","","","","","","","",""
"","ITI","","html-keyboard-response","41","53951","0.0-1.0-45.0","0","0","57381","","null","","","null","4","","","","","","","","","","","","","","","NaN",""
"","S1","","html-keyboard-response","42","55145","0.0-1.0-47.0","0","0","57381","","null","","","null","5","","","","","","","","","","","","","","","",""
"","ISI","","html-keyboard-response","43","56052","0.0-1.0-48.0","0","0","57381","","null","","","null","5","NaN","","","","","","","","","","","","","","",""
"","S2","","html-keyboard-response","44","57034","0.0-1.0-49.0","0","0","57381","","null","","","null","5","","NaN","","","","","","","","","","","","","",""
"","response","","html-keyboard-response","45","58001","0.0-1.0-50.0-0.0","0","0","57381","","null","","","null","5","","","1","5","training","adjacent","ED","5","4","R.jpg","Q.jpg","NaN","0","0","",""
"","too_slow_prompt","","html-keyboard-response","46","59751","0.0-1.0-52.0-0.0","1","0","57381","","null","","","null","","","","","","","","","","","","","","","","",""
"","time_out","","html-keyboard-response","47","60752","0.0-1.0-53.0-0.0","0","0","57381","","null","","","null","5","","","","","","","","","","","","","","","",""
"","ITI","","html-keyboard-response","48","61771","0.0-1.0-54.0","0","0","57381","","null","","","null","5","","","","","","","","","","","","","","","NaN",""
"","S1","","html-keyboard-response","49","62938","0.0-1.0-56.0","0","0","57381","","null","","","null","6","","","","","","","","","","","","","","","",""
"","ISI","","html-keyboard-response","50","63975","0.0-1.0-57.0","0","0","57381","","null","","","null","6","NaN","","","","","","","","","","","","","","",""
"","S2","","html-keyboard-response","51","64952","0.0-1.0-58.0","0","0","57381","","null","","","null","6","","NaN","","","","","","","","","","","","","",""
"","response","","html-keyboard-response","52","66133","0.0-1.0-59.0-0.0","0","0","57381","","null","","","null","6","","","1","6","training","adjacent","BC","2","3","L.jpg","O.jpg","NaN","1","0","",""
"","too_slow_prompt","","html-keyboard-response","53","68059","0.0-1.0-61.0-0.0","1","0","57381","","null","","","null","","","","","","","","","","","","","","","","",""
"","time_out","","html-keyboard-response","54","68820","0.0-1.0-62.0-0.0","0","0","57381","","null","","","null","6","","","","","","","","","","","","","","","",""
"","ITI","","html-keyboard-response","55","69952","0.0-1.0-63.0","0","0","57381","","null","","","null","6","","","","","","","","","","","","","","","NaN",""
"","S1","","html-keyboard-response","56","70752","0.0-1.0-65.0","0","0","57381","","null","","","null","7","","","","","","","","","","","","","","","",""
"","ISI","","html-keyboard-response","57","71807","0.0-1.0-66.0","0","0","57381","","null","","","null","7","NaN","","","","","","","","","","","","","","",""
"","S2","","html-keyboard-response","58","72800","0.0-1.0-67.0","0","0","57381","","null","","","null","7","","NaN","","","","","","","","","","","","","",""
"","response","","html-keyboard-response","59","73807","0.0-1.0-68.0-0.0","0","0","57381","","null","","","null","7","","","1","7","training","adjacent","CB","3","2","O.jpg","L.jpg","NaN","0","0","",""
"","too_slow_prompt","","html-keyboard-response","60","75784","0.0-1.0-70.0-0.0","1","0","57381","","null","","","null","","","","","","","","","","","","","","","","",""
"","time_out","","html-keyboard-response","61","76772","0.0-1.0-71.0-0.0","0","0","57381","","null","","","null","7","","","","","","","","","","","","","","","",""
"","ITI","","html-keyboard-response","62","77811","0.0-1.0-72.0","0","0","57381","","null","","","null","7","","","","","","","","","","","","","","","NaN",""
"","S1","","html-keyboard-response","63","78780","0.0-1.0-74.0","0","0","57381","","null","","","null","8","","","","","","","","","","","","","","","",""
"","ISI","","html-keyboard-response","64","79751","0.0-1.0-75.0","0","0","57381","","null","","","null","8","NaN","","","","","","","","","","","","","","",""
"","S2","","html-keyboard-response","65","81089","0.0-1.0-76.0","0","0","57381","","null","","","null","8","","NaN","","","","","","","","","","","","","",""
"","response","","html-keyboard-response","66","81752","0.0-1.0-77.0-0.0","0","0","57381","","null","","","null","8","","","1","8","training","adjacent","GF","7","6","N.jpg","P.jpg","NaN","0","0","",""
"","too_slow_prompt","","html-keyboard-response","67","83957","0.0-1.0-79.0-0.0","1","0","57381","","null","","","null","","","","","","","","","","","","","","","","",""
"","time_out","","html-keyboard-response","68","84751","0.0-1.0-80.0-0.0","0","0","57381","","null","","","null","8","","","","","","","","","","","","","","","",""
"","ITI","","html-keyboard-response","69","85752","0.0-1.0-81.0","0","0","57381","","null","","","null","8","","","","","","","","","","","","","","","NaN",""
"","S1","","html-keyboard-response","70","86809","0.0-1.0-83.0","0","0","57381","","null","","","null","9","","","","","","","","","","","","","","","",""
"","ISI","","html-keyboard-response","71","87767","0.0-1.0-84.0","0","0","57381","","null","","","null","9","NaN","","","","","","","","","","","","","","",""
"","S2","","html-keyboard-response","72","89242","0.0-1.0-85.0","0","0","57381","","null","","","null","9","","NaN","","","","","","","","","","","","","",""
"","response","","html-keyboard-response","73","89752","0.0-1.0-86.0-0.0","0","0","57381","","null","","","null","9","","","1","9","training","adjacent","BA","2","1","L.jpg","M.jpg","NaN","0","0","",""
"","too_slow_prompt","","html-keyboard-response","74","91859","0.0-1.0-88.0-0.0","1","0","57381","","null","","","null","","","","","","","","","","","","","","","","",""
"","time_out","","html-keyboard-response","75","92853","0.0-1.0-89.0-0.0","0","0","57381","","null","","","null","9","","","","","","","","","","","","","","","",""
"","ITI","","html-keyboard-response","76","93818","0.0-1.0-90.0","0","0","57381","","null","","","null","9","","","","","","","","","","","","","","","NaN",""
"","S1","","html-keyboard-response","77","95008","0.0-1.0-92.0","0","0","57381","","null","","","null","10","","","","","","","","","","","","","","","",""
"","ISI","","html-keyboard-response","78","95839","0.0-1.0-93.0","0","0","57381","","null","","","null","10","NaN","","","","","","","","","","","","","","",""
"","S2","","html-keyboard-response","79","96999","0.0-1.0-94.0","0","0","57381","","null","","","null","10","","NaN","","","","","","","","","","","","","",""
"","response","","html-keyboard-response","80","97755","0.0-1.0-95.0-0.0","0","0","57381","","null","","","null","10","","","1","10","training","adjacent","DE","4","5","Q.jpg","R.jpg","NaN","1","0","",""
"","too_slow_prompt","","html-keyboard-response","81","99801","0.0-1.0-97.0-0.0","1","0","57381","","null","","","null","","","","","","","","","","","","","","","","",""
"","time_out","","html-keyboard-response","82","101226","0.0-1.0-98.0-0.0","0","0","57381","","null","","","null","10","","","","","","","","","","","","","","","",""
"","ITI","","html-keyboard-response","83","102010","0.0-1.0-99.0","0","0","57381","","null","","","null","10","","","","","","","","","","","","","","","NaN",""
"","S1","","html-keyboard-response","84","102752","0.0-1.0-101.0","0","0","57381","","null","","","null","11","","","","","","","","","","","","","","","",""
"","ISI","","html-keyboard-response","85","103897","0.0-1.0-102.0","0","0","57381","","null","","","null","11","NaN","","","","","","","","","","","","","","",""
"","S2","","html-keyboard-response","86","104799","0.0-1.0-103.0","0","0","57381","","null","","","null","11","","NaN","","","","","","","","","","","","","",""
"","response","","html-keyboard-response","87","105775","0.0-1.0-104.0-0.0","0","0","57381","","null","","","null","11","","","1","11","training","adjacent","FG","6","7","P.jpg","N.jpg","NaN","1","0","",""
"","too_slow_prompt","","html-keyboard-response","88","108154","0.0-1.0-106.0-0.0","1","0","57381","","null","","","null","","","","","","","","","","","","","","","","",""
"","time_out","","html-keyboard-response","89","108752","0.0-1.0-107.0-0.0","0","0","57381","","null","","","null","11","","","","","","","","","","","","","","","",""
"","ITI","","html-keyboard-response","90","109828","0.0-1.0-108.0","0","0","57381","","null","","","null","11","","","","","","","","","","","","","","","NaN",""
"","block_over","","html-keyboard-response","91","119373","0.0-1.0-109.0-0.0","0","0","57381","","9544","","","32","11","","","","","","","","","","","","","","","",""
"","S1","","html-keyboard-response","92","119629","0.0-1.0-110.0","0","0","57381","","null","","","null","12","","","","","","","","","","","","","","","",""
"","ISI","","html-keyboard-response","93","119734","0.0-1.0-111.0","0","0","57381","","null","","","null","12","NaN","","","","","","","","","","","","","","",""
"","S2","","html-keyboard-response","94","119986","0.0-1.0-112.0","0","0","57381","","null","","","null","12","","NaN","","","","","","","","","","","","","",""
"","response","","html-keyboard-response","95","120491","0.0-1.0-113.0-0.0","0","0","57381","","null","","","null","12","","","2","12","training","adjacent","BA","2","1","L.jpg","M.jpg","NaN","0","0","",""
"","too_slow_prompt","","html-keyboard-response","96","121496","0.0-1.0-115.0-0.0","1","0","57381","","null","","","null","","","","","","","","","","","","","","","","",""
"","time_out","","html-keyboard-response","97","121601","0.0-1.0-116.0-0.0","0","0","57381","","null","","","null","12","","","","","","","","","","","","","","","",""
"","ITI","","html-keyboard-response","98","122106","0.0-1.0-117.0","0","0","57381","","null","","","null","12","","","","","","","","","","","","","","","NaN",""
"","S1","","html-keyboard-response","99","122363","0.0-1.0-119.0","0","0","57381","","null","","","null","13","","","","","","","","","","","","","","","",""
"","ISI","","html-keyboard-response","100","122467","0.0-1.0-120.0","0","0","57381","","null","","","null","13","NaN","","","","","","","","","","","","","","",""
"","S2","","html-keyboard-response","101","122724","0.0-1.0-121.0","0","0","57381","","null","","","null","13","","NaN","","","","","","","","","","","","","",""
"","response","","html-keyboard-response","102","123227","0.0-1.0-122.0-0.0","0","0","57381","","null","","","null","13","","","2","13","training","adjacent","FE","6","5","P.jpg","R.jpg","NaN","0","0","",""
"","too_slow_prompt","","html-keyboard-response","103","124229","0.0-1.0-124.0-0.0","1","0","57381","","null","","","null","","","","","","","","","","","","","","","","",""
"","time_out","","html-keyboard-response","104","124334","0.0-1.0-125.0-0.0","0","0","57381","","null","","","null","13","","","","","","","","","","","","","","","",""
"","ITI","","html-keyboard-response","105","124840","0.0-1.0-126.0","0","0","57381","","null","","","null","13","","","","","","","","","","","","","","","NaN",""
"","S1","","html-keyboard-response","106","125094","0.0-1.0-128.0","0","0","57381","","null","","","null","14","","","","","","","","","","","","","","","",""
"","ISI","","html-keyboard-response","107","125199","0.0-1.0-129.0","0","0","57381","","null","","","null","14","NaN","","","","","","","","","","","","","","",""
"","S2","","html-keyboard-response","108","125453","0.0-1.0-130.0","0","0","57381","","null","","","null","14","","NaN","","","","","","","","","","","","","",""
"","response","","html-keyboard-response","109","125958","0.0-1.0-131.0-0.0","0","0","57381","","null","","","null","14","","","2","14","training","adjacent","GF","7","6","N.jpg","P.jpg","NaN","0","0","",""
"","too_slow_prompt","","html-keyboard-response","110","126961","0.0-1.0-133.0-0.0","1","0","57381","","null","","","null","","","","","","","","","","","","","","","","",""
"","time_out","","html-keyboard-response","111","127067","0.0-1.0-134.0-0.0","0","0","57381","","null","","","null","14","","","","","","","","","","","","","","","",""
"","ITI","","html-keyboard-response","112","127569","0.0-1.0-135.0","0","0","57381","","null","","","null","14","","","","","","","","","","","","","","","NaN",""
"","S1","","html-keyboard-response","113","127824","0.0-1.0-137.0","0","0","57381","","null","","","null","15","","","","","","","","","","","","","","","",""
"","ISI","","html-keyboard-response","114","127926","0.0-1.0-138.0","0","0","57381","","null","","","null","15","NaN","","","","","","","","","","","","","","",""
"","S2","","html-keyboard-response","115","128181","0.0-1.0-139.0","0","0","57381","","null","","","null","15","","NaN","","","","","","","","","","","","","",""
"","response","","html-keyboard-response","116","128688","0.0-1.0-140.0-0.0","0","0","57381","","null","","","null","15","","","2","15","training","adjacent","DC","4","3","Q.jpg","O.jpg","NaN","0","0","",""
"","too_slow_prompt","","html-keyboard-response","117","129694","0.0-1.0-142.0-0.0","1","0","57381","","null","","","null","","","","","","","","","","","","","","","","",""
"","time_out","","html-keyboard-response","118","129801","0.0-1.0-143.0-0.0","0","0","57381","","null","","","null","15","","","","","","","","","","","","","","","",""
"","ITI","","html-keyboard-response","119","130304","0.0-1.0-144.0","0","0","57381","","null","","","null","15","","","","","","","","","","","","","","","NaN",""
"","S1","","html-keyboard-response","120","130561","0.0-1.0-146.0","0","0","57381","","null","","","null","16","","","","","","","","","","","","","","","",""
"","ISI","","html-keyboard-response","121","130666","0.0-1.0-147.0","0","0","57381","","null","","","null","16","NaN","","","","","","","","","","","","","","",""
"","S2","","html-keyboard-response","122","130920","0.0-1.0-148.0","0","0","57381","","null","","","null","16","","NaN","","","","","","","","","","","","","",""
"","response","","html-keyboard-response","123","131426","0.0-1.0-149.0-0.0","0","0","57381","","null","","","null","16","","","2","16","training","adjacent","DE","4","5","Q.jpg","R.jpg","NaN","1","0","",""
"","too_slow_prompt","","html-keyboard-response","124","132432","0.0-1.0-151.0-0.0","1","0","57381","","null","","","null","","","","","","","","","","","","","","","","",""
"","time_out","","html-keyboard-response","125","132535","0.0-1.0-152.0-0.0","0","0","57381","","null","","","null","16","","","","","","","","","","","","","","","",""
"","ITI","","html-keyboard-response","126","133040","0.0-1.0-153.0","0","0","57381","","null","","","null","16","","","","","","","","","","","","","","","NaN",""
"","S1","","html-keyboard-response","127","133291","0.0-1.0-155.0","0","0","57381","","null","","","null","17","","","","","","","","","","","","","","","",""
"","ISI","","html-keyboard-response","128","133397","0.0-1.0-156.0","0","0","57381","","null","","","null","17","NaN","","","","","","","","","","","","","","",""
"","S2","","html-keyboard-response","129","133654","0.0-1.0-157.0","0","0","57381","","null","","","null","17","","NaN","","","","","","","","","","","","","",""
"","response","","html-keyboard-response","130","134160","0.0-1.0-158.0-0.0","0","0","57381","","null","","","null","17","","","2","17","training","adjacent","ED","5","4","R.jpg","Q.jpg","NaN","0","0","",""
"","too_slow_prompt","","html-keyboard-response","131","135167","0.0-1.0-160.0-0.0","1","0","57381","","null","","","null","","","","","","","","","","","","","","","","",""
"","time_out","","html-keyboard-response","132","135271","0.0-1.0-161.0-0.0","0","0","57381","","null","","","null","17","","","","","","","","","","","","","","","",""
"","ITI","","html-keyboard-response","133","135776","0.0-1.0-162.0","0","0","57381","","null","","","null","17","","","","","","","","","","","","","","","NaN",""
"","S1","","html-keyboard-response","134","136032","0.0-1.0-164.0","0","0","57381","","null","","","null","18","","","","","","","","","","","","","","","",""
"","ISI","","html-keyboard-response","135","136135","0.0-1.0-165.0","0","0","57381","","null","","","null","18","NaN","","","","","","","","","","","","","","",""
"","S2","","html-keyboard-response","136","136389","0.0-1.0-166.0","0","0","57381","","null","","","null","18","","NaN","","","","","","","","","","","","","",""
"","response","","html-keyboard-response","137","136890","0.0-1.0-167.0-0.0","0","0","57381","","null","","","null","18","","","2","18","training","adjacent","AB","1","2","M.jpg","L.jpg","NaN","1","0","",""
"","too_slow_prompt","","html-keyboard-response","138","137893","0.0-1.0-169.0-0.0","1","0","57381","","null","","","null","","","","","","","","","","","","","","","","",""
"","time_out","","html-keyboard-response","139","137996","0.0-1.0-170.0-0.0","0","0","57381","","null","","","null","18","","","","","","","","","","","","","","","",""
"","ITI","","html-keyboard-response","140","138502","0.0-1.0-171.0","0","0","57381","","null","","","null","18","","","","","","","","","","","","","","","NaN",""
"","S1","","html-keyboard-response","141","138757","0.0-1.0-173.0","0","0","57381","","null","","","null","19","","","","","","","","","","","","","","","",""
"","ISI","","html-keyboard-response","142","138858","0.0-1.0-174.0","0","0","57381","","null","","","null","19","NaN","","","","","","","","","","","","","","",""
"","S2","","html-keyboard-response","143","139110","0.0-1.0-175.0","0","0","57381","","null","","","null","19","","NaN","","","","","","","","","","","","","",""
"","response","","html-keyboard-response","144","139614","0.0-1.0-176.0-0.0","0","0","57381","","null","","","null","19","","","2","19","training","adjacent","FG","6","7","P.jpg","N.jpg","NaN","1","0","",""
"","too_slow_prompt","","html-keyboard-response","145","140619","0.0-1.0-178.0-0.0","1","0","57381","","null","","","null","","","","","","","","","","","","","","","","",""
"","time_out","","html-keyboard-response","146","140722","0.0-1.0-179.0-0.0","0","0","57381","","null","","","null","19","","","","","","","","","","","","","","","",""
"","ITI","","html-keyboard-response","147","141227","0.0-1.0-180.0","0","0","57381","","null","","","null","19","","","","","","","","","","","","","","","NaN",""
"","S1","","html-keyboard-response","148","141483","0.0-1.0-182.0","0","0","57381","","null","","","null","20","","","","","","","","","","","","","","","",""
"","ISI","","html-keyboard-response","149","141587","0.0-1.0-183.0","0","0","57381","","null","","","null","20","NaN","","","","","","","","","","","","","","",""
"","S2","","html-keyboard-response","150","141840","0.0-1.0-184.0","0","0","57381","","null","","","null","20","","NaN","","","","","","","","","","","","","",""
"","response","","html-keyboard-response","151","142345","0.0-1.0-185.0-0.0","0","0","57381","","null","","","null","20","","","2","20","training","adjacent","BC","2","3","L.jpg","O.jpg","NaN","1","0","",""
"","too_slow_prompt","","html-keyboard-response","152","143350","0.0-1.0-187.0-0.0","1","0","57381","","null","","","null","","","","","","","","","","","","","","","","",""
"","time_out","","html-keyboard-response","153","143453","0.0-1.0-188.0-0.0","0","0","57381","","null","","","null","20","","","","","","","","","","","","","","","",""
"","ITI","","html-keyboard-response","154","143957","0.0-1.0-189.0","0","0","57381","","null","","","null","20","","","","","","","","","","","","","","","NaN",""
"","S1","","html-keyboard-response","155","144212","0.0-1.0-191.0","0","0","57381","","null","","","null","21","","","","","","","","","","","","","","","",""
"","ISI","","html-keyboard-response","156","144318","0.0-1.0-192.0","0","0","57381","","null","","","null","21","NaN","","","","","","","","","","","","","","",""
"","S2","","html-keyboard-response","157","144571","0.0-1.0-193.0","0","0","57381","","null","","","null","21","","NaN","","","","","","","","","","","","","",""
"","response","","html-keyboard-response","158","145077","0.0-1.0-194.0-0.0","0","0","57381","","null","","","null","21","","","2","21","training","adjacent","EF","5","6","R.jpg","P.jpg","NaN","1","0","",""
"","too_slow_prompt","","html-keyboard-response","159","146081","0.0-1.0-196.0-0.0","1","0","57381","","null","","","null","","","","","","","","","","","","","","","","",""
"","time_out","","html-keyboard-response","160","146188","0.0-1.0-197.0-0.0","0","0","57381","","null","","","null","21","","","","","","","","","","","","","","","",""
"","ITI","","html-keyboard-response","161","146693","0.0-1.0-198.0","0","0","57381","","null","","","null","21","","","","","","","","","","","","","","","NaN",""
"","S1","","html-keyboard-response","162","146947","0.0-1.0-200.0","0","0","57381","","null","","","null","22","","","","","","","","","","","","","","","",""
"","ISI","","html-keyboard-response","163","147051","0.0-1.0-201.0","0","0","57381","","null","","","null","22","NaN","","","","","","","","","","","","","","",""
"","S2","","html-keyboard-response","164","147304","0.0-1.0-202.0","0","0","57381","","null","","","null","22","","NaN","","","","","","","","","","","","","",""
"","response","","html-keyboard-response","165","147810","0.0-1.0-203.0-0.0","0","0","57381","","null","","","null","22","","","2","22","training","adjacent","CD","3","4","O.jpg","Q.jpg","NaN","1","0","",""
"","too_slow_prompt","","html-keyboard-response","166","148817","0.0-1.0-205.0-0.0","1","0","57381","","null","","","null","","","","","","","","","","","","","","","","",""
"","time_out","","html-keyboard-response","167","148922","0.0-1.0-206.0-0.0","0","0","57381","","null","","","null","22","","","","","","","","","","","","","","","",""
"","ITI","","html-keyboard-response","168","149425","0.0-1.0-207.0","0","0","57381","","null","","","null","22","","","","","","","","","","","","","","","NaN",""
"","S1","","html-keyboard-response","169","149681","0.0-1.0-209.0","0","0","57381","","null","","","null","23","","","","","","","","","","","","","","","",""
"","ISI","","html-keyboard-response","170","149784","0.0-1.0-210.0","0","0","57381","","null","","","null","23","NaN","","","","","","","","","","","","","","",""
"","S2","","html-keyboard-response","171","150041","0.0-1.0-211.0","0","0","57381","","null","","","null","23","","NaN","","","","","","","","","","","","","",""
"","response","","html-keyboard-response","172","150547","0.0-1.0-212.0-0.0","0","0","57381","","null","","","null","23","","","2","23","training","adjacent","CB","3","2","O.jpg","L.jpg","NaN","0","0","",""
"","too_slow_prompt","","html-keyboard-response","173","151553","0.0-1.0-214.0-0.0","1","0","57381","","null","","","null","","","","","","","","","","","","","","","","",""
"","time_out","","html-keyboard-response","174","151659","0.0-1.0-215.0-0.0","0","0","57381","","null","","","null","23","","","","","","","","","","","","","","","",""
"","ITI","","html-keyboard-response","175","152165","0.0-1.0-216.0","0","0","57381","","null","","","null","23","","","","","","","","","","","","","","","NaN",""
"","block_over","","html-keyboard-response","176","354396","0.0-1.0-217.0-0.0","0","0","57381","","202230","","","32","23","","","","","","","","","","","","","","","",""
"","S1","","html-keyboard-response","177","354649","0.0-1.0-218.0","0","0","57381","","null","","","null","24","","","","","","","","","","","","","","","",""
"","ISI","","html-keyboard-response","178","354756","0.0-1.0-219.0","0","0","57381","","null","","","null","24","NaN","","","","","","","","","","","","","","",""
"","S2","","html-keyboard-response","179","355008","0.0-1.0-220.0","0","0","57381","","null","","","null","24","","NaN","","","","","","","","","","","","","",""
"","response","","html-keyboard-response","180","355400","0.0-1.0-221.0-0.0","0","0","57381","","390","","","75","24","","","3","24","training","adjacent","BC","2","3","L.jpg","O.jpg","1","1","1","",""
"","feedback","","html-keyboard-response","181","355503","0.0-1.0-222.0-0.0","0","0","57381","","null","","","null","24","","","","","","","","","","","","","","","",""
"","ITI","","html-keyboard-response","182","356009","0.0-1.0-225.0","0","0","57381","","39","","","75","24","","","","","","","","","","","","","","","k",""
"","S1","","html-keyboard-response","183","356264","0.0-1.0-227.0","0","0","57381","","null","","","null","25","","","","","","","","","","","","","","","",""
"","ISI","","html-keyboard-response","184","356366","0.0-1.0-228.0","0","0","57381","","null","","","null","25","NaN","","","","","","","","","","","","","","",""
"","S2","","html-keyboard-response","185","356374","0.0-1.0-229.0","0","0","57381","","6","","","75","25","","k","3","25","training","adjacent","DE","4","5","Q.jpg","R.jpg","1","1","1","",""
"","feedback","","html-keyboard-response","186","356477","0.0-1.0-231.0-0.0","0","0","57381","","null","","","null","25","","","","","","","","","","","","","","","",""
"","ITI","","html-keyboard-response","187","356981","0.0-1.0-234.0","0","0","57381","","55","","","75","25","","","","","","","","","","","","","","","k",""
"","S1","","html-keyboard-response","188","357237","0.0-1.0-236.0","0","0","57381","","null","","","null","26","","","","","","","","","","","","","","","",""
"","ISI","","html-keyboard-response","189","357339","0.0-1.0-237.0","0","0","57381","","100","","","75","26","k","","","","","","","","","","","","","","",""
"","S2","","html-keyboard-response","190","357591","0.0-1.0-238.0","0","0","57381","","null","","","null","26","","NaN","","","","","","","","","","","","","",""
"","response","","html-keyboard-response","191","357614","0.0-1.0-239.0-0.0","0","0","57381","","21","","","75","26","","","3","26","training","adjacent","EF","5","6","R.jpg","P.jpg","1","1","1","",""
"","feedback","","html-keyboard-response","192","357717","0.0-1.0-240.0-0.0","0","0","57381","","null","","","null","26","","","","","","","","","","","","","","","",""
"","ITI","","html-keyboard-response","193","358224","0.0-1.0-243.0","0","0","57381","","89","","","75","26","","","","","","","","","","","","","","","k",""
"","S1","","html-keyboard-response","194","358480","0.0-1.0-245.0","0","0","57381","","null","","","null","27","","","","","","","","","","","","","","","",""
"","ISI","","html-keyboard-response","195","358584","0.0-1.0-246.0","0","0","57381","","14","","","75","27","k","","","","","","","","","","","","","","",""
"","S2","","html-keyboard-response","196","358749","0.0-1.0-247.0","0","0","57381","","164","","","75","27","","k","3","27","training","adjacent","DC","4","3","Q.jpg","O.jpg","1","0","0","",""
"","feedback","","html-keyboard-response","197","358851","0.0-1.0-249.0-0.0","0","0","57381","","null","","","null","27","","","","","","","","","","","","","","","",""
"","time_out","","html-keyboard-response","198","358953","0.0-1.0-251.0-0.0","0","0","57381","","null","","","null","27","","","","","","","","","","","","","","","",""
"","ITI","","html-keyboard-response","199","359460","0.0-1.0-252.0","0","0","57381","","193","","","75","27","","","","","","","","","","","","","","","k",""
"","S1","","html-keyboard-response","200","359715","0.0-1.0-254.0","0","0","57381","","null","","","null","28","","","","","","","","","","","","","","","",""
"","ISI","","html-keyboard-response","201","359820","0.0-1.0-255.0","0","0","57381","","null","","","null","28","NaN","","","","","","","","","","","","","","",""
"","S2","","html-keyboard-response","202","359870","0.0-1.0-256.0","0","0","57381","","49","","","75","28","","k","3","28","training","adjacent","AB","1","2","M.jpg","L.jpg","1","1","1","",""
"","feedback","","html-keyboard-response","203","359977","0.0-1.0-258.0-0.0","0","0","57381","","null","","","null","28","","","","","","","","","","","","","","","",""
"","ITI","","html-keyboard-response","204","360481","0.0-1.0-261.0","0","0","57381","","59","","","75","28","","","","","","","","","","","","","","","k",""
"","S1","","html-keyboard-response","205","360737","0.0-1.0-263.0","0","0","57381","","null","","","null","29","","","","","","","","","","","","","","","",""
"","ISI","","html-keyboard-response","206","360844","0.0-1.0-264.0","0","0","57381","","36","","","75","29","k","","","","","","","","","","","","","","",""
"","S2","","html-keyboard-response","207","360973","0.0-1.0-265.0","0","0","57381","","128","","","75","29","","k","3","29","training","adjacent","GF","7","6","N.jpg","P.jpg","1","0","0","",""
"","feedback","","html-keyboard-response","208","361079","0.0-1.0-267.0-0.0","0","0","57381","","null","","","null","29","","","","","","","","","","","","","","","",""
"","time_out","","html-keyboard-response","209","361185","0.0-1.0-269.0-0.0","0","0","57381","","null","","","null","29","","","","","","","","","","","","","","","",""
"","ITI","","html-keyboard-response","210","361688","0.0-1.0-270.0","0","0","57381","","142","","","75","29","","","","","","","","","","","","","","","k",""
"","S1","","html-keyboard-response","211","361941","0.0-1.0-272.0","0","0","57381","","null","","","null","30","","","","","","","","","","","","","","","",""
"","ISI","","html-keyboard-response","212","362044","0.0-1.0-273.0","0","0","57381","","null","","","null","30","NaN","","","","","","","","","","","","","","",""
"","S2","","html-keyboard-response","213","362047","0.0-1.0-274.0","0","0","57381","","1","","","75","30","","k","3","30","training","adjacent","ED","5","4","R.jpg","Q.jpg","1","0","0","",""
"","feedback","","html-keyboard-response","214","362149","0.0-1.0-276.0-0.0","0","0","57381","","null","","","null","30","","","","","","","","","","","","","","","",""
"","time_out","","html-keyboard-response","215","362253","0.0-1.0-278.0-0.0","0","0","57381","","null","","","null","30","","","","","","","","","","","","","","","",""
"","ITI","","html-keyboard-response","216","362759","0.0-1.0-279.0","0","0","57381","","157","","","75","30","","","","","","","","","","","","","","","k",""
"","S1","","html-keyboard-response","217","363016","0.0-1.0-281.0","0","0","57381","","null","","","null","31","","","","","","","","","","","","","","","",""
"","ISI","","html-keyboard-response","218","363120","0.0-1.0-282.0","0","0","57381","","6","","","75","31","k","","","","","","","","","","","","","","",""
"","S2","","html-keyboard-response","219","363215","0.0-1.0-283.0","0","0","57381","","93","","","75","31","","k","3","31","training","adjacent","CD","3","4","O.jpg","Q.jpg","1","1","1","",""
"","feedback","","html-keyboard-response","220","363319","0.0-1.0-285.0-0.0","0","0","57381","","null","","","null","31","","","","","","","","","","","","","","","",""
"","ITI","","html-keyboard-response","221","363826","0.0-1.0-288.0","0","0","57381","","90","","","75","31","","","","","","","","","","","","","","","k",""
"","S1","","html-keyboard-response","222","364079","0.0-1.0-290.0","0","0","57381","","null","","","null","32","","","","","","","","","","","","","","","",""
"","ISI","","html-keyboard-response","223","364183","0.0-1.0-291.0","0","0","57381","","82","","","75","32","k","","","","","","","","","","","","","","",""
"","S2","","html-keyboard-response","224","364325","0.0-1.0-292.0","0","0","57381","","139","","","75","32","","k","3","32","training","adjacent","BA","2","1","L.jpg","M.jpg","1","0","0","",""
"","feedback","","html-keyboard-response","225","364428","0.0-1.0-294.0-0.0","0","0","57381","","null","","","null","32","","","","","","","","","","","","","","","",""
"","time_out","","html-keyboard-response","226","364529","0.0-1.0-296.0-0.0","0","0","57381","","null","","","null","32","","","","","","","","","","","","","","","",""
"","ITI","","html-keyboard-response","227","365034","0.0-1.0-297.0","0","0","57381","","125","","","75","32","","","","","","","","","","","","","","","k",""
"","S1","","html-keyboard-response","228","365289","0.0-1.0-299.0","0","0","57381","","null","","","null","33","","","","","","","","","","","","","","","",""
"","ISI","","html-keyboard-response","229","365394","0.0-1.0-300.0","0","0","57381","","null","","","null","33","NaN","","","","","","","","","","","","","","",""
"","S2","","html-keyboard-response","230","365459","0.0-1.0-301.0","0","0","57381","","64","","","75","33","","k","3","33","training","adjacent","FG","6","7","P.jpg","N.jpg","1","1","1","",""
"","feedback","","html-keyboard-response","231","365565","0.0-1.0-303.0-0.0","0","0","57381","","null","","","null","33","","","","","","","","","","","","","","","",""
"","ITI","","html-keyboard-response","232","366072","0.0-1.0-306.0","0","0","57381","","69","","","75","33","","","","","","","","","","","","","","","k",""
"","S1","","html-keyboard-response","233","366327","0.0-1.0-308.0","0","0","57381","","null","","","null","34","","","","","","","","","","","","","","","",""
"","ISI","","html-keyboard-response","234","366429","0.0-1.0-309.0","0","0","57381","","76","","","75","34","k","","","","","","","","","","","","","","",""
"","S2","","html-keyboard-response","235","366610","0.0-1.0-310.0","0","0","57381","","180","","","75","34","","k","3","34","training","adjacent","FE","6","5","P.jpg","R.jpg","1","0","0","",""
"","feedback","","html-keyboard-response","236","366712","0.0-1.0-312.0-0.0","0","0","57381","","null","","","null","34","","","","","","","","","","","","","","","",""
"","time_out","","html-keyboard-response","237","366818","0.0-1.0-314.0-0.0","0","0","57381","","null","","","null","34","","","","","","","","","","","","","","","",""
"","ITI","","html-keyboard-response","238","367326","0.0-1.0-315.0","0","0","57381","","141","","","75","34","","","","","","","","","","","","","","","k",""
"","S1","","html-keyboard-response","239","367581","0.0-1.0-317.0","0","0","57381","","null","","","null","35","","","","","","","","","","","","","","","",""
"","ISI","","html-keyboard-response","240","367685","0.0-1.0-318.0","0","0","57381","","41","","","75","35","k","","","","","","","","","","","","","","",""
"","S2","","html-keyboard-response","241","367815","0.0-1.0-319.0","0","0","57381","","128","","","75","35","","k","3","35","training","adjacent","CB","3","2","O.jpg","L.jpg","1","0","0","",""
"","feedback","","html-keyboard-response","242","367917","0.0-1.0-321.0-0.0","0","0","57381","","null","","","null","35","","","","","","","","","","","","","","","",""
"","time_out","","html-keyboard-response","243","368022","0.0-1.0-323.0-0.0","0","0","57381","","null","","","null","35","","","","","","","","","","","","","","","",""
"","ITI","","html-keyboard-response","244","368530","0.0-1.0-324.0","0","0","57381","","300","","","75","35","","","","","","","","","","","","","","","k",""
"","block_over","","html-keyboard-response","245","369409","0.0-1.0-325.0-0.0","0","0","57381","","877","","","32","35","","","","","","","","","","","","","","","",""
"","S1","","html-keyboard-response","246","369662","0.0-1.0-326.0","0","0","57381","","null","","","null","36","","","","","","","","","","","","","","","",""
"","ISI","","html-keyboard-response","247","369768","0.0-1.0-327.0","0","0","57381","","null","","","null","36","NaN","","","","","","","","","","","","","","",""
"","S2","","html-keyboard-response","248","369773","0.0-1.0-328.0","0","0","57381","","4","","","68","36","","d","4","36","test","non_adjacent","FC","6","3","P.jpg","O.jpg","0","0","1","",""
"","feedback","","html-keyboard-response","249","369875","0.0-1.0-330.0-0.0","0","0","57381","","null","","","null","36","","","","","","","","","","","","","","","",""
"","ITI","","html-keyboard-response","250","370381","0.0-1.0-333.0","0","0","57381","","106","","","68","36","","","","","","","","","","","","","","","d",""
"","S1","","html-keyboard-response","251","370636","0.0-1.0-335.0","0","0","57381","","null","","","null","37","","","","","","","","","","","","","","","",""
"","ISI","","html-keyboard-response","252","370739","0.0-1.0-336.0","0","0","57381","","null","","","null","37","NaN","","","","","","","","","","","","","","",""
"","S2","","html-keyboard-response","253","370919","0.0-1.0-337.0","0","0","57381","","179","","","68","37","","d","4","37","test","adjacent","CB","3","2","O.jpg","L.jpg","0","0","1","",""
"","feedback","","html-keyboard-response","254","371022","0.0-1.0-339.0-0.0","0","0","57381","","null","","","null","37","","","","","","","","","","","","","","","",""
"","ITI","","html-keyboard-response","255","371525","0.0-1.0-342.0","0","0","57381","","139","","","68","37","","","","","","","","","","","","","","","d",""
"","S1","","html-keyboard-response","256","371777","0.0-1.0-344.0","0","0","57381","","null","","","null","38","","","","","","","","","","","","","","","",""
"","ISI","","html-keyboard-response","257","371880","0.0-1.0-345.0","0","0","57381","","null","","","null","38","NaN","","","","","","","","","","","","","","",""
"","S2","","html-keyboard-response","258","371890","0.0-1.0-346.0","0","0","57381","","7","","","68","38","","d","4","38","test","non_adjacent","EA","5","1","R.jpg","M.jpg","0","0","1","",""
"","feedback","","html-keyboard-response","259","371993","0.0-1.0-348.0-0.0","0","0","57381","","null","","","null","38","","","","","","","","","","","","","","","",""
"","ITI","","html-keyboard-response","260","372500","0.0-1.0-351.0","0","0","57381","","120","","","68","38","","","","","","","","","","","","","","","d",""
"","S1","","html-keyboard-response","261","372755","0.0-1.0-353.0","0","0","57381","","null","","","null","39","","","","","","","","","","","","","","","",""
"","ISI","","html-keyboard-response","262","372861","0.0-1.0-354.0","0","0","57381","","null","","","null","39","NaN","","","","","","","","","","","","","","",""
"","S2","","html-keyboard-response","263","372944","0.0-1.0-355.0","0","0","57381","","82","","","68","39","","d","4","39","test","non_adjacent","FB","6","2","P.jpg","L.jpg","0","0","1","",""
"","feedback","","html-keyboard-response","264","373049","0.0-1.0-357.0-0.0","0","0","57381","","null","","","null","39","","","","","","","","","","","","","","","",""
"","ITI","","html-keyboard-response","265","373556","0.0-1.0-360.0","0","0","57381","","113","","","68","39","","","","","","","","","","","","","","","d",""
"","S1","","html-keyboard-response","266","373812","0.0-1.0-362.0","0","0","57381","","null","","","null","40","","","","","","","","","","","","","","","",""
"","ISI","","html-keyboard-response","267","373913","0.0-1.0-363.0","0","0","57381","","100","","","68","40","d","","","","","","","","","","","","","","",""
"","S2","","html-keyboard-response","268","374141","0.0-1.0-364.0","0","0","57381","","226","","","68","40","","d","4","40","test","non_adjacent","AD","1","4","M.jpg","Q.jpg","0","1","0","",""
"","feedback","","html-keyboard-response","269","374243","0.0-1.0-366.0-0.0","0","0","57381","","null","","","null","40","","","","","","","","","","","","","","","",""
"","time_out","","html-keyboard-response","270","374347","0.0-1.0-368.0-0.0","0","0","57381","","null","","","null","40","","","","","","","","","","","","","","","",""
"","ITI","","html-keyboard-response","271","374854","0.0-1.0-369.0","0","0","57381","","21","","","68","40","","","","","","","","","","","","","","","d",""
"","S1","","html-keyboard-response","272","375110","0.0-1.0-371.0","0","0","57381","","null","","","null","41","","","","","","","","","","","","","","","",""
"","ISI","","html-keyboard-response","273","375217","0.0-1.0-372.0","0","0","57381","","null","","","null","41","NaN","","","","","","","","","","","","","","",""
"","S2","","html-keyboard-response","274","375240","0.0-1.0-373.0","0","0","57381","","22","","","68","41","","d","4","41","test","adjacent","CD","3","4","O.jpg","Q.jpg","0","1","0","",""
"","feedback","","html-keyboard-response","275","375345","0.0-1.0-375.0-0.0","0","0","57381","","null","","","null","41","","","","","","","","","","","","","","","",""
"","time_out","","html-keyboard-response","276","375447","0.0-1.0-377.0-0.0","0","0","57381","","null","","","null","41","","","","","","","","","","","","","","","",""
"","ITI","","html-keyboard-response","277","375951","0.0-1.0-378.0","0","0","57381","","23","","","68","41","","","","","","","","","","","","","","","d",""
"","S1","","html-keyboard-response","278","376207","0.0-1.0-380.0","0","0","57381","","null","","","null","42","","","","","","","","","","","","","","","",""
"","ISI","","html-keyboard-response","279","376311","0.0-1.0-381.0","0","0","57381","","103","","","68","42","d","","","","","","","","","","","","","","",""
"","S2","","html-keyboard-response","280","376539","0.0-1.0-382.0","0","0","57381","","227","","","68","42","","d","4","42","test","non_adjacent","EB","5","2","R.jpg","L.jpg","0","0","1","",""
"","feedback","","html-keyboard-response","281","376644","0.0-1.0-384.0-0.0","0","0","57381","","null","","","null","42","","","","","","","","","","","","","","","",""
"","ITI","","html-keyboard-response","282","377147","0.0-1.0-387.0","0","0","57381","","116","","","68","42","","","","","","","","","","","","","","","d",""
"","S1","","html-keyboard-response","283","377402","0.0-1.0-389.0","0","0","57381","","null","","","null","43","","","","","","","","","","","","","","","",""
"","ISI","","html-keyboard-response","284","377508","0.0-1.0-390.0","0","0","57381","","null","","","null","43","NaN","","","","","","","","","","","","","","",""
"","S2","","html-keyboard-response","285","377581","0.0-1.0-391.0","0","0","57381","","71","","","68","43","","d","4","43","test","non_adjacent","AC","1","3","M.jpg","O.jpg","0","1","0","",""
"","feedback","","html-keyboard-response","286","377683","0.0-1.0-393.0-0.0","0","0","57381","","null","","","null","43","","","","","","","","","","","","","","","",""
"","time_out","","html-keyboard-response","287","377788","0.0-1.0-395.0-0.0","0","0","57381","","null","","","null","43","","","","","","","","","","","","","","","",""
"","ITI","","html-keyboard-response","288","378292","0.0-1.0-396.0","0","0","57381","","12","","","68","43","","","","","","","","","","","","","","","d",""
"","S1","","html-keyboard-response","289","378545","0.0-1.0-398.0","0","0","57381","","null","","","null","44","","","","","","","","","","","","","","","",""
"","ISI","","html-keyboard-response","290","378649","0.0-1.0-399.0","0","0","57381","","78","","","68","44","d","","","","","","","","","","","","","","",""
"","S2","","html-keyboard-response","291","378859","0.0-1.0-400.0","0","0","57381","","208","","","68","44","","d","4","44","test","non_adjacent","GA","7","1","N.jpg","M.jpg","0","0","1","",""
"","feedback","","html-keyboard-response","292","378964","0.0-1.0-402.0-0.0","0","0","57381","","null","","","null","44","","","","","","","","","","","","","","","",""
"","ITI","","html-keyboard-response","293","379468","0.0-1.0-405.0","0","0","57381","","121","","","68","44","","","","","","","","","","","","","","","d",""
"","S1","","html-keyboard-response","294","379723","0.0-1.0-407.0","0","0","57381","","null","","","null","45","","","","","","","","","","","","","","","",""
"","ISI","","html-keyboard-response","295","379829","0.0-1.0-408.0","0","0","57381","","65","","","68","45","d","","","","","","","","","","","","","","",""
"","S2","","html-keyboard-response","296","380028","0.0-1.0-409.0","0","0","57381","","197","","","68","45","","d","4","45","test","adjacent","BC","2","3","L.jpg","O.jpg","0","1","0","",""
"","feedback","","html-keyboard-response","297","380131","0.0-1.0-411.0-0.0","0","0","57381","","null","","","null","45","","","","","","","","","","","","","","","",""
"","time_out","","html-keyboard-response","298","380234","0.0-1.0-413.0-0.0","0","0","57381","","null","","","null","45","","","","","","","","","","","","","","","",""
"","ITI","","html-keyboard-response","299","380735","0.0-1.0-414.0","0","0","57381","","8","","","68","45","","","","","","","","","","","","","","","d",""
"","S1","","html-keyboard-response","300","380991","0.0-1.0-416.0","0","0","57381","","null","","","null","46","","","","","","","","","","","","","","","",""
"","ISI","","html-keyboard-response","301","381095","0.0-1.0-417.0","0","0","57381","","7","","","68","46","d","","","","","","","","","","","","","","",""
"","S2","","html-keyboard-response","302","381237","0.0-1.0-418.0","0","0","57381","","141","","","68","46","","d","4","46","test","non_adjacent","FA","6","1","P.jpg","M.jpg","0","0","1","",""
"","feedback","","html-keyboard-response","303","381341","0.0-1.0-420.0-0.0","0","0","57381","","null","","","null","46","","","","","","","","","","","","","","","",""
"","ITI","","html-keyboard-response","304","381846","0.0-1.0-423.0","0","0","57381","","122","","","68","46","","","","","","","","","","","","","","","d",""
"","S1","","html-keyboard-response","305","382101","0.0-1.0-425.0","0","0","57381","","null","","","null","47","","","","","","","","","","","","","","","",""
"","ISI","","html-keyboard-response","306","382207","0.0-1.0-426.0","0","0","57381","","null","","","null","47","NaN","","","","","","","","","","","","","","",""
"","S2","","html-keyboard-response","307","382313","0.0-1.0-427.0","0","0","57381","","103","","","68","47","","d","4","47","test","adjacent","AB","1","2","M.jpg","L.jpg","0","1","0","",""
"","feedback","","html-keyboard-response","308","382415","0.0-1.0-429.0-0.0","0","0","57381","","null","","","null","47","","","","","","","","","","","","","","","",""
"","time_out","","html-keyboard-response","309","382519","0.0-1.0-431.0-0.0","0","0","57381","","null","","","null","47","","","","","","","","","","","","","","","",""
"","ITI","","html-keyboard-response","310","383024","0.0-1.0-432.0","0","0","57381","","32","","","68","47","","","","","","","","","","","","","","","d",""
"","S1","","html-keyboard-response","311","383281","0.0-1.0-434.0","0","0","57381","","null","","","null","48","","","","","","","","","","","","","","","",""
"","ISI","","html-keyboard-response","312","383386","0.0-1.0-435.0","0","0","57381","","55","","","68","48","d","","","","","","","","","","","","","","",""
"","S2","","html-keyboard-response","313","383587","0.0-1.0-436.0","0","0","57381","","198","","","68","48","","d","4","48","test","non_adjacent","CA","3","1","O.jpg","M.jpg","0","0","1","",""
"","feedback","","html-keyboard-response","314","383691","0.0-1.0-438.0-0.0","0","0","57381","","null","","","null","48","","","","","","","","","","","","","","","",""
"","ITI","","html-keyboard-response","315","384197","0.0-1.0-441.0","0","0","57381","","142","","","68","48","","","","","","","","","","","","","","","d",""
"","S1","","html-keyboard-response","316","384450","0.0-1.0-443.0","0","0","57381","","null","","","null","49","","","","","","","","","","","","","","","",""
"","ISI","","html-keyboard-response","317","384556","0.0-1.0-444.0","0","0","57381","","null","","","null","49","NaN","","","","","","","","","","","","","","",""
"","S2","","html-keyboard-response","318","384600","0.0-1.0-445.0","0","0","57381","","41","","","68","49","","d","4","49","test","adjacent","DC","4","3","Q.jpg","O.jpg","0","0","1","",""
"","feedback","","html-keyboard-response","319","384704","0.0-1.0-447.0-0.0","0","0","57381","","null","","","null","49","","","","","","","","","","","","","","","",""
"","ITI","","html-keyboard-response","320","385211","0.0-1.0-450.0","0","0","57381","","150","","","68","49","","","","","","","","","","","","","","","d",""
"","S1","","html-keyboard-response","321","385463","0.0-1.0-452.0","0","0","57381","","null","","","null","50","","","","","","","","","","","","","","","",""
"","ISI","","html-keyboard-response","322","385568","0.0-1.0-453.0","0","0","57381","","null","","","null","50","NaN","","","","","","","","","","","","","","",""
"","S2","","html-keyboard-response","323","385652","0.0-1.0-454.0","0","0","57381","","82","","","68","50","","d","4","50","test","adjacent","BA","2","1","L.jpg","M.jpg","0","0","1","",""
"","feedback","","html-keyboard-response","324","385755","0.0-1.0-456.0-0.0","0","0","57381","","null","","","null","50","","","","","","","","","","","","","","","",""
"","ITI","","html-keyboard-response","325","386260","0.0-1.0-459.0","0","0","57381","","136","","","68","50","","","","","","","","","","","","","","","d",""
"","S1","","html-keyboard-response","326","386517","0.0-1.0-461.0","0","0","57381","","null","","","null","51","","","","","","","","","","","","","","","",""
"","ISI","","html-keyboard-response","327","386623","0.0-1.0-462.0","0","0","57381","","null","","","null","51","NaN","","","","","","","","","","","","","","",""
"","S2","","html-keyboard-response","328","386720","0.0-1.0-463.0","0","0","57381","","95","","","68","51","","d","4","51","test","non_adjacent","DA","4","1","Q.jpg","M.jpg","0","0","1","",""
"","feedback","","html-keyboard-response","329","386824","0.0-1.0-465.0-0.0","0","0","57381","","null","","","null","51","","","","","","","","","","","","","","","",""
"","ITI","","html-keyboard-response","330","387330","0.0-1.0-468.0","0","0","57381","","159","","","68","51","","","","","","","","","","","","","","","d",""
"","S1","","html-keyboard-response","331","387584","0.0-1.0-470.0","0","0","57381","","null","","","null","52","","","","","","","","","","","","","","","",""
"","ISI","","html-keyboard-response","332","387691","0.0-1.0-471.0","0","0","57381","","20","","","68","52","d","","","","","","","","","","","","","","",""
"","S2","","html-keyboard-response","333","387888","0.0-1.0-472.0","0","0","57381","","195","","","68","52","","d","4","52","test","non_adjacent","GC","7","3","N.jpg","O.jpg","0","0","1","",""
"","feedback","","html-keyboard-response","334","387991","0.0-1.0-474.0-0.0","0","0","57381","","null","","","null","52","","","","","","","","","","","","","","","",""
"","ITI","","html-keyboard-response","335","388496","0.0-1.0-477.0","0","0","57381","","187","","","68","52","","","","","","","","","","","","","","","d",""
"","S1","","html-keyboard-response","336","388752","0.0-1.0-479.0","0","0","57381","","null","","","null","53","","","","","","","","","","","","","","","",""
"","ISI","","html-keyboard-response","337","388859","0.0-1.0-480.0","0","0","57381","","null","","","null","53","NaN","","","","","","","","","","","","","","",""
"","S2","","html-keyboard-response","338","388940","0.0-1.0-481.0","0","0","57381","","80","","","68","53","","d","4","53","test","non_adjacent","GB","7","2","N.jpg","L.jpg","0","0","1","",""
"","feedback","","html-keyboard-response","339","389045","0.0-1.0-483.0-0.0","0","0","57381","","null","","","null","53","","","","","","","","","","","","","","","",""
"","ITI","","html-keyboard-response","340","389550","0.0-1.0-486.0","0","0","57381","","145","","","68","53","","","","","","","","","","","","","","","d",""
"","S1","","html-keyboard-response","341","389806","0.0-1.0-488.0","0","0","57381","","null","","","null","54","","","","","","","","","","","","","","","",""
"","ISI","","html-keyboard-response","342","389912","0.0-1.0-489.0","0","0","57381","","null","","","null","54","NaN","","","","","","","","","","","","","","",""
"","S2","","html-keyboard-response","343","389975","0.0-1.0-490.0","0","0","57381","","61","","","68","54","","d","4","54","test","non_adjacent","DB","4","2","Q.jpg","L.jpg","0","0","1","",""
"","feedback","","html-keyboard-response","344","390080","0.0-1.0-492.0-0.0","0","0","57381","","null","","","null","54","","","","","","","","","","","","","","","",""
"","ITI","","html-keyboard-response","345","390587","0.0-1.0-495.0","0","0","57381","","126","","","68","54","","","","","","","","","","","","","","","d",""
"","S1","","html-keyboard-response","346","390843","0.0-1.0-497.0","0","0","57381","","null","","","null","55","","","","","","","","","","","","","","","",""
"","ISI","","html-keyboard-response","347","390949","0.0-1.0-498.0","0","0","57381","","63","","","68","55","d","","","","","","","","","","","","","","",""
"","S2","","html-keyboard-response","348","391121","0.0-1.0-499.0","0","0","57381","","172","","","68","55","","d","4","55","test","non_adjacent","BD","2","4","L.jpg","Q.jpg","0","1","0","",""
"","feedback","","html-keyboard-response","349","391227","0.0-1.0-501.0-0.0","0","0","57381","","null","","","null","55","","","","","","","","","","","","","","","",""
"","time_out","","html-keyboard-response","350","391334","0.0-1.0-503.0-0.0","0","0","57381","","null","","","null","55","","","","","","","","","","","","","","","",""
"","ITI","","html-keyboard-response","351","391840","0.0-1.0-504.0","0","0","57381","","24","","","68","55","","","","","","","","","","","","","","","d",""
"","S1","","html-keyboard-response","352","392096","0.0-1.0-506.0","0","0","57381","","null","","","null","56","","","","","","","","","","","","","","","",""
"","ISI","","html-keyboard-response","353","392203","0.0-1.0-507.0","0","0","57381","","null","","","null","56","NaN","","","","","","","","","","","","","","",""
"","S2","","html-keyboard-response","354","392286","0.0-1.0-508.0","0","0","57381","","82","","","68","56","","d","4","56","test","non_adjacent","EC","5","3","R.jpg","O.jpg","0","0","1","",""
"","feedback","","html-keyboard-response","355","392389","0.0-1.0-510.0-0.0","0","0","57381","","null","","","null","56","","","","","","","","","","","","","","","",""
"","ITI","","html-keyboard-response","356","392896","0.0-1.0-513.0","0","0","57381","","123","","","68","56","","","","","","","","","","","","","","","d",""
"","block_over","","html-keyboard-response","357","393704","0.0-1.0-514.0-0.0","0","0","57381","","806","","","32","56","","","","","","","","","","","","","","","",""
"","S1","","html-keyboard-response","358","393957","0.0-1.0-515.0","0","0","57381","","null","","","null","57","","","","","","","","","","","","","","","",""
"","ISI","","html-keyboard-response","359","394063","0.0-1.0-516.0","0","0","57381","","null","","","null","57","NaN","","","","","","","","","","","","","","",""
"","S2","","html-keyboard-response","360","394097","0.0-1.0-517.0","0","0","57381","","32","","","68","57","","d","5","57","test","adjacent","FE","6","5","P.jpg","R.jpg","0","0","1","",""
"","feedback","","html-keyboard-response","361","394203","0.0-1.0-519.0-0.0","0","0","57381","","null","","","null","57","","","","","","","","","","","","","","","",""
"","ITI","","html-keyboard-response","362","394710","0.0-1.0-522.0","0","0","57381","","126","","","68","57","","","","","","","","","","","","","","","d",""
"","S1","","html-keyboard-response","363","394966","0.0-1.0-524.0","0","0","57381","","null","","","null","58","","","","","","","","","","","","","","","",""
"","ISI","","html-keyboard-response","364","395070","0.0-1.0-525.0","0","0","57381","","49","","","68","58","d","","","","","","","","","","","","","","",""
"","S2","","html-keyboard-response","365","395249","0.0-1.0-526.0","0","0","57381","","178","","","68","58","","d","5","58","test","adjacent","DE","4","5","Q.jpg","R.jpg","0","1","0","",""
"","feedback","","html-keyboard-response","366","395352","0.0-1.0-528.0-0.0","0","0","57381","","null","","","null","58","","","","","","","","","","","","","","","",""
"","time_out","","html-keyboard-response","367","395457","0.0-1.0-530.0-0.0","0","0","57381","","null","","","null","58","","","","","","","","","","","","","","","",""
"","ITI","","html-keyboard-response","368","395963","0.0-1.0-531.0","0","0","57381","","10","","","68","58","","","","","","","","","","","","","","","d",""
"","S1","","html-keyboard-response","369","396216","0.0-1.0-533.0","0","0","57381","","null","","","null","59","","","","","","","","","","","","","","","",""
"","ISI","","html-keyboard-response","370","396319","0.0-1.0-534.0","0","0","57381","","6","","","68","59","d","","","","","","","","","","","","","","",""
"","S2","","html-keyboard-response","371","396487","0.0-1.0-535.0","0","0","57381","","166","","","68","59","","d","5","59","test","adjacent","GF","7","6","N.jpg","P.jpg","0","0","1","",""
"","feedback","","html-keyboard-response","372","396589","0.0-1.0-537.0-0.0","0","0","57381","","null","","","null","59","","","","","","","","","","","","","","","",""
"","ITI","","html-keyboard-response","373","397093","0.0-1.0-540.0","0","0","57381","","156","","","68","59","","","","","","","","","","","","","","","d",""
"","S1","","html-keyboard-response","374","397345","0.0-1.0-542.0","0","0","57381","","null","","","null","60","","","","","","","","","","","","","","","",""
"","ISI","","html-keyboard-response","375","397447","0.0-1.0-543.0","0","0","57381","","null","","","null","60","NaN","","","","","","","","","","","","","","",""
"","S2","","html-keyboard-response","376","397569","0.0-1.0-544.0","0","0","57381","","120","","","68","60","","d","5","60","test","non_adjacent","FD","6","4","P.jpg","Q.jpg","0","0","1","",""
"","feedback","","html-keyboard-response","377","397670","0.0-1.0-546.0-0.0","0","0","57381","","null","","","null","60","","","","","","","","","","","","","","","",""
"","ITI","","html-keyboard-response","378","398177","0.0-1.0-549.0","0","0","57381","","144","","","68","60","","","","","","","","","","","","","","","d",""
"","S1","","html-keyboard-response","379","398430","0.0-1.0-551.0","0","0","57381","","null","","","null","61","","","","","","","","","","","","","","","",""
"","ISI","","html-keyboard-response","380","398534","0.0-1.0-552.0","0","0","57381","","null","","","null","61","NaN","","","","","","","","","","","","","","",""
"","S2","","html-keyboard-response","381","398568","0.0-1.0-553.0","0","0","57381","","33","","","68","61","","d","5","61","test","non_adjacent","BF","2","6","L.jpg","P.jpg","0","1","0","",""
"","feedback","","html-keyboard-response","382","398673","0.0-1.0-555.0-0.0","0","0","57381","","null","","","null","61","","","","","","","","","","","","","","","",""
"","time_out","","html-keyboard-response","383","398779","0.0-1.0-557.0-0.0","0","0","57381","","null","","","null","61","","","","","","","","","","","","","","","",""
"","ITI","","html-keyboard-response","384","399281","0.0-1.0-558.0","0","0","57381","","18","","","68","61","","","","","","","","","","","","","","","d",""
"","S1","","html-keyboard-response","385","399536","0.0-1.0-560.0","0","0","57381","","null","","","null","62","","","","","","","","","","","","","","","",""
"","ISI","","html-keyboard-response","386","399641","0.0-1.0-561.0","0","0","57381","","5","","","68","62","d","","","","","","","","","","","","","","",""
"","S2","","html-keyboard-response","387","399794","0.0-1.0-562.0","0","0","57381","","151","","","68","62","","d","5","62","test","non_adjacent","CG","3","7","O.jpg","N.jpg","0","1","0","",""
"","feedback","","html-keyboard-response","388","399898","0.0-1.0-564.0-0.0","0","0","57381","","null","","","null","62","","","","","","","","","","","","","","","",""
"","time_out","","html-keyboard-response","389","400005","0.0-1.0-566.0-0.0","0","0","57381","","null","","","null","62","","","","","","","","","","","","","","","",""
"","ITI","","html-keyboard-response","390","400507","0.0-1.0-567.0","0","0","57381","","61","","","68","62","","","","","","","","","","","","","","","d",""
"","S1","","html-keyboard-response","391","400763","0.0-1.0-569.0","0","0","57381","","null","","","null","63","","","","","","","","","","","","","","","",""
"","ISI","","html-keyboard-response","392","400870","0.0-1.0-570.0","0","0","57381","","null","","","null","63","NaN","","","","","","","","","","","","","","",""
"","S2","","html-keyboard-response","393","400886","0.0-1.0-571.0","0","0","57381","","15","","","68","63","","d","5","63","test","non_adjacent","AF","1","6","M.jpg","P.jpg","0","1","0","",""
"","feedback","","html-keyboard-response","394","400990","0.0-1.0-573.0-0.0","0","0","57381","","null","","","null","63","","","","","","","","","","","","","","","",""
"","time_out","","html-keyboard-response","395","401097","0.0-1.0-575.0-0.0","0","0","57381","","null","","","null","63","","","","","","","","","","","","","","","",""
"","ITI","","html-keyboard-response","396","401600","0.0-1.0-576.0","0","0","57381","","33","","","68","63","","","","","","","","","","","","","","","d",""
"","S1","","html-keyboard-response","397","401855","0.0-1.0-578.0","0","0","57381","","null","","","null","64","","","","","","","","","","","","","","","",""
"","ISI","","html-keyboard-response","398","401958","0.0-1.0-579.0","0","0","57381","","88","","","68","64","d","","","","","","","","","","","","","","",""
"","S2","","html-keyboard-response","399","402210","0.0-1.0-580.0","0","0","57381","","null","","","null","64","","NaN","","","","","","","","","","","","","",""
"","response","","html-keyboard-response","400","402234","0.0-1.0-581.0-0.0","0","0","57381","","23","","","68","64","","","5","64","test","non_adjacent","AG","1","7","M.jpg","N.jpg","0","1","0","",""
"","feedback","","html-keyboard-response","401","402337","0.0-1.0-582.0-0.0","0","0","57381","","null","","","null","64","","","","","","","","","","","","","","","",""
"","time_out","","html-keyboard-response","402","402444","0.0-1.0-584.0-0.0","0","0","57381","","null","","","null","64","","","","","","","","","","","","","","","",""
"","ITI","","html-keyboard-response","403","402950","0.0-1.0-585.0","0","0","57381","","112","","","68","64","","","","","","","","","","","","","","","d",""
"","S1","","html-keyboard-response","404","403206","0.0-1.0-587.0","0","0","57381","","null","","","null","65","","","","","","","","","","","","","","","",""
"","ISI","","html-keyboard-response","405","403313","0.0-1.0-588.0","0","0","57381","","null","","","null","65","NaN","","","","","","","","","","","","","","",""
"","S2","","html-keyboard-response","406","403364","0.0-1.0-589.0","0","0","57381","","49","","","68","65","","d","5","65","test","non_adjacent","EG","5","7","R.jpg","N.jpg","0","1","0","",""
"","feedback","","html-keyboard-response","407","403467","0.0-1.0-591.0-0.0","0","0","57381","","null","","","null","65","","","","","","","","","","","","","","","",""
"","time_out","","html-keyboard-response","408","403570","0.0-1.0-593.0-0.0","0","0","57381","","null","","","null","65","","","","","","","","","","","","","","","",""
"","ITI","","html-keyboard-response","409","404075","0.0-1.0-594.0","0","0","57381","","65","","","68","65","","","","","","","","","","","","","","","d",""
"","S1","","html-keyboard-response","410","404331","0.0-1.0-596.0","0","0","57381","","null","","","null","66","","","","","","","","","","","","","","","",""
"","ISI","","html-keyboard-response","411","404436","0.0-1.0-597.0","0","0","57381","","null","","","null","66","NaN","","","","","","","","","","","","","","",""
"","S2","","html-keyboard-response","412","404451","0.0-1.0-598.0","0","0","57381","","14","","","68","66","","d","5","66","test","non_adjacent","DF","4","6","Q.jpg","P.jpg","0","1","0","",""
"","feedback","","html-keyboard-response","413","404555","0.0-1.0-600.0-0.0","0","0","57381","","null","","","null","66","","","","","","","","","","","","","","","",""
"","time_out","","html-keyboard-response","414","404662","0.0-1.0-602.0-0.0","0","0","57381","","null","","","null","66","","","","","","","","","","","","","","","",""
"","ITI","","html-keyboard-response","415","405169","0.0-1.0-603.0","0","0","57381","","71","","","68","66","","","","","","","","","","","","","","","d",""
"","S1","","html-keyboard-response","416","405422","0.0-1.0-605.0","0","0","57381","","null","","","null","67","","","","","","","","","","","","","","","",""
"","ISI","","html-keyboard-response","417","405523","0.0-1.0-606.0","0","0","57381","","3","","","75","67","k","","","","","","","","","","","","","","",""
"","S2","","html-keyboard-response","418","405601","0.0-1.0-607.0","0","0","57381","","76","","","75","67","","k","5","67","test","adjacent","ED","5","4","R.jpg","Q.jpg","1","0","0","",""
"","feedback","","html-keyboard-response","419","405707","0.0-1.0-609.0-0.0","0","0","57381","","null","","","null","67","","","","","","","","","","","","","","","",""
"","time_out","","html-keyboard-response","420","405814","0.0-1.0-611.0-0.0","0","0","57381","","null","","","null","67","","","","","","","","","","","","","","","",""
"","ITI","","html-keyboard-response","421","406317","0.0-1.0-612.0","0","0","57381","","114","","","75","67","","","","","","","","","","","","","","","k",""
"","S1","","html-keyboard-response","422","406571","0.0-1.0-614.0","0","0","57381","","null","","","null","68","","","","","","","","","","","","","","","",""
"","ISI","","html-keyboard-response","423","406675","0.0-1.0-615.0","0","0","57381","","47","","","75","68","k","","","","","","","","","","","","","","",""
"","S2","","html-keyboard-response","424","406809","0.0-1.0-616.0","0","0","57381","","132","","","75","68","","k","5","68","test","non_adjacent","DG","4","7","Q.jpg","N.jpg","1","1","1","",""
"","feedback","","html-keyboard-response","425","406913","0.0-1.0-618.0-0.0","0","0","57381","","null","","","null","68","","","","","","","","","","","","","","","",""
"","ITI","","html-keyboard-response","426","407420","0.0-1.0-621.0","0","0","57381","","83","","","75","68","","","","","","","","","","","","","","","k",""
"","S1","","html-keyboard-response","427","407674","0.0-1.0-623.0","0","0","57381","","null","","","null","69","","","","","","","","","","","","","","","",""
"","ISI","","html-keyboard-response","428","407777","0.0-1.0-624.0","0","0","57381","","91","","","75","69","k","","","","","","","","","","","","","","",""
"","S2","","html-keyboard-response","429","407970","0.0-1.0-625.0","0","0","57381","","193","","","75","69","","k","5","69","test","non_adjacent","CF","3","6","O.jpg","P.jpg","1","1","1","",""
"","feedback","","html-keyboard-response","430","408074","0.0-1.0-627.0-0.0","0","0","57381","","null","","","null","69","","","","","","","","","","","","","","","",""
"","ITI","","html-keyboard-response","431","408579","0.0-1.0-630.0","0","0","57381","","94","","","75","69","","","","","","","","","","","","","","","k",""
"","S1","","html-keyboard-response","432","408833","0.0-1.0-632.0","0","0","57381","","null","","","null","70","","","","","","","","","","","","","","","",""
"","ISI","","html-keyboard-response","433","408935","0.0-1.0-633.0","0","0","57381","","null","","","null","70","NaN","","","","","","","","","","","","","","",""
"","S2","","html-keyboard-response","434","409031","0.0-1.0-634.0","0","0","57381","","93","","","75","70","","k","5","70","test","non_adjacent","AE","1","5","M.jpg","R.jpg","1","1","1","",""
"","feedback","","html-keyboard-response","435","409135","0.0-1.0-636.0-0.0","0","0","57381","","null","","","null","70","","","","","","","","","","","","","","","",""
"","ITI","","html-keyboard-response","436","409642","0.0-1.0-639.0","0","0","57381","","133","","","75","70","","","","","","","","","","","","","","","k",""
"","S1","","html-keyboard-response","437","409900","0.0-1.0-641.0","0","0","57381","","null","","","null","71","","","","","","","","","","","","","","","",""
"","ISI","","html-keyboard-response","438","410003","0.0-1.0-642.0","0","0","57381","","86","","","75","71","k","","","","","","","","","","","","","","",""
"","S2","","html-keyboard-response","439","410256","0.0-1.0-643.0","0","0","57381","","null","","","null","71","","NaN","","","","","","","","","","","","","",""
"","response","","html-keyboard-response","440","410405","0.0-1.0-644.0-0.0","0","0","57381","","147","","","75","71","","","5","71","test","non_adjacent","CE","3","5","O.jpg","R.jpg","1","1","1","",""
"","feedback","","html-keyboard-response","441","410507","0.0-1.0-645.0-0.0","0","0","57381","","null","","","null","71","","","","","","","","","","","","","","","",""
"","ITI","","html-keyboard-response","442","411013","0.0-1.0-648.0","0","0","57381","","131","","","75","71","","","","","","","","","","","","","","","k",""
"","S1","","html-keyboard-response","443","411270","0.0-1.0-650.0","0","0","57381","","null","","","null","72","","","","","","","","","","","","","","","",""
"","ISI","","html-keyboard-response","444","411377","0.0-1.0-651.0","0","0","57381","","58","","","75","72","k","","","","","","","","","","","","","","",""
"","S2","","html-keyboard-response","445","411556","0.0-1.0-652.0","0","0","57381","","177","","","75","72","","k","5","72","test","non_adjacent","GD","7","4","N.jpg","Q.jpg","1","0","0","",""
"","feedback","","html-keyboard-response","446","411659","0.0-1.0-654.0-0.0","0","0","57381","","null","","","null","72","","","","","","","","","","","","","","","",""
"","time_out","","html-keyboard-response","447","411763","0.0-1.0-656.0-0.0","0","0","57381","","null","","","null","72","","","","","","","","","","","","","","","",""
"","ITI","","html-keyboard-response","448","412268","0.0-1.0-657.0","0","0","57381","","24","","","75","72","","","","","","","","","","","","","","","k",""
"","S1","","html-keyboard-response","449","412524","0.0-1.0-659.0","0","0","57381","","null","","","null","73","","","","","","","","","","","","","","","",""
"","ISI","","html-keyboard-response","450","412630","0.0-1.0-660.0","0","0","57381","","53","","","75","73","k","","","","","","","","","","","","","","",""
"","S2","","html-keyboard-response","451","412804","0.0-1.0-661.0","0","0","57381","","173","","","75","73","","k","5","73","test","adjacent","EF","5","6","R.jpg","P.jpg","1","1","1","",""
"","feedback","","html-keyboard-response","452","412908","0.0-1.0-663.0-0.0","0","0","57381","","null","","","null","73","","","","","","","","","","","","","","","",""
"","ITI","","html-keyboard-response","453","413415","0.0-1.0-666.0","0","0","57381","","110","","","75","73","","","","","","","","","","","","","","","k",""
"","S1","","html-keyboard-response","454","413672","0.0-1.0-668.0","0","0","57381","","null","","","null","74","","","","","","","","","","","","","","","",""
"","ISI","","html-keyboard-response","455","413778","0.0-1.0-669.0","0","0","57381","","5","","","75","74","k","","","","","","","","","","","","","","",""
"","S2","","html-keyboard-response","456","413944","0.0-1.0-670.0","0","0","57381","","164","","","75","74","","k","5","74","test","non_adjacent","BE","2","5","L.jpg","R.jpg","1","1","1","",""
"","feedback","","html-keyboard-response","457","414046","0.0-1.0-672.0-0.0","0","0","57381","","null","","","null","74","","","","","","","","","","","","","","","",""
"","ITI","","html-keyboard-response","458","414550","0.0-1.0-675.0","0","0","57381","","438","","","75","74","","","","","","","","","","","","","","","k",""
"","S1","","html-keyboard-response","459","414806","0.0-1.0-677.0","0","0","57381","","null","","","null","75","","","","","","","","","","","","","","","",""
"","ISI","","html-keyboard-response","460","414909","0.0-1.0-678.0","0","0","57381","","72","","","75","75","k","","","","","","","","","","","","","","",""
"","S2","","html-keyboard-response","461","415065","0.0-1.0-679.0","0","0","57381","","154","","","75","75","","k","5","75","test","non_adjacent","GE","7","5","N.jpg","R.jpg","1","0","0","",""
"","feedback","","html-keyboard-response","462","415168","0.0-1.0-681.0-0.0","0","0","57381","","null","","","null","75","","","","","","","","","","","","","","","",""
"","time_out","","html-keyboard-response","463","415271","0.0-1.0-683.0-0.0","0","0","57381","","null","","","null","75","","","","","","","","","","","","","","","",""
"","ITI","","html-keyboard-response","464","415777","0.0-1.0-684.0","0","0","57381","","1","","","75","75","","","","","","","","","","","","","","","k",""
"","S1","","html-keyboard-response","465","416033","0.0-1.0-686.0","0","0","57381","","null","","","null","76","","","","","","","","","","","","","","","",""
"","ISI","","html-keyboard-response","466","416140","0.0-1.0-687.0","0","0","57381","","null","","","null","76","NaN","","","","","","","","","","","","","","",""
"","S2","","html-keyboard-response","467","416206","0.0-1.0-688.0","0","0","57381","","64","","","75","76","","k","5","76","test","non_adjacent","BG","2","7","L.jpg","N.jpg","1","1","1","",""
"","feedback","","html-keyboard-response","468","416311","0.0-1.0-690.0-0.0","0","0","57381","","null","","","null","76","","","","","","","","","","","","","","","",""
"","ITI","","html-keyboard-response","469","416816","0.0-1.0-693.0","0","0","57381","","94","","","75","76","","","","","","","","","","","","","","","k",""
"","S1","","html-keyboard-response","470","417070","0.0-1.0-695.0","0","0","57381","","null","","","null","77","","","","","","","","","","","","","","","",""
"","ISI","","html-keyboard-response","471","417174","0.0-1.0-696.0","0","0","57381","","null","","","null","77","NaN","","","","","","","","","","","","","","",""
"","S2","","html-keyboard-response","472","417265","0.0-1.0-697.0","0","0","57381","","89","","","75","77","","k","5","77","test","adjacent","FG","6","7","P.jpg","N.jpg","1","1","1","",""
"","feedback","","html-keyboard-response","473","417370","0.0-1.0-699.0-0.0","0","0","57381","","null","","","null","77","","","","","","","","","","","","","","","",""
"","ITI","","html-keyboard-response","474","417873","0.0-1.0-702.0","0","0","57381","","63","","","75","77","","","","","","","","","","","","","","","k",""
"","block_over","","html-keyboard-response","475","418677","0.0-1.0-703.0-0.0","0","0","57381","","801","","","32","77","","","","","","","","","","","","","","","",""
"","S1","","html-keyboard-response","476","418930","0.0-1.0-704.0","0","0","57381","","null","","","null","78","","","","","","","","","","","","","","","",""
"","ISI","","html-keyboard-response","477","419032","0.0-1.0-705.0","0","0","57381","","1","","","75","78","k","","","","","","","","","","","","","","",""
"","S2","","html-keyboard-response","478","419158","0.0-1.0-706.0","0","0","57381","","125","","","75","78","","k","6","78","test","non_adjacent","EB","5","2","R.jpg","L.jpg","1","0","0","",""
"","feedback","","html-keyboard-response","479","419260","0.0-1.0-708.0-0.0","0","0","57381","","null","","","null","78","","","","","","","","","","","","","","","",""
"","time_out","","html-keyboard-response","480","419367","0.0-1.0-710.0-0.0","0","0","57381","","null","","","null","78","","","","","","","","","","","","","","","",""
"","ITI","","html-keyboard-response","481","419868","0.0-1.0-711.0","0","0","57381","","6","","","75","78","","","","","","","","","","","","","","","k",""
"","S1","","html-keyboard-response","482","420124","0.0-1.0-713.0","0","0","57381","","null","","","null","79","","","","","","","","","","","","","","","",""
"","ISI","","html-keyboard-response","483","420231","0.0-1.0-714.0","0","0","57381","","null","","","null","79","NaN","","","","","","","","","","","","","","",""
"","S2","","html-keyboard-response","484","420293","0.0-1.0-715.0","0","0","57381","","60","","","75","79","","k","6","79","test","non_adjacent","BD","2","4","L.jpg","Q.jpg","1","1","1","",""
"","feedback","","html-keyboard-response","485","420396","0.0-1.0-717.0-0.0","0","0","57381","","null","","","null","79","","","","","","","","","","","","","","","",""
"","ITI","","html-keyboard-response","486","420903","0.0-1.0-720.0","0","0","57381","","93","","","75","79","","","","","","","","","","","","","","","k",""
"","S1","","html-keyboard-response","487","421159","0.0-1.0-722.0","0","0","57381","","null","","","null","80","","","","","","","","","","","","","","","",""
"","ISI","","html-keyboard-response","488","421265","0.0-1.0-723.0","0","0","57381","","0","","","75","80","k","","","","","","","","","","","","","","",""
"","S2","","html-keyboard-response","489","421418","0.0-1.0-724.0","0","0","57381","","150","","","75","80","","k","6","80","test","adjacent","CB","3","2","O.jpg","L.jpg","1","0","0","",""
"","feedback","","html-keyboard-response","490","421521","0.0-1.0-726.0-0.0","0","0","57381","","null","","","null","80","","","","","","","","","","","","","","","",""
"","time_out","","html-keyboard-response","491","421624","0.0-1.0-728.0-0.0","0","0","57381","","null","","","null","80","","","","","","","","","","","","","","","",""
"","ITI","","html-keyboard-response","492","422127","0.0-1.0-729.0","0","0","57381","","471","","","75","80","","","","","","","","","","","","","","","k",""
"","S1","","html-keyboard-response","493","422381","0.0-1.0-731.0","0","0","57381","","null","","","null","81","","","","","","","","","","","","","","","",""
"","ISI","","html-keyboard-response","494","422483","0.0-1.0-732.0","0","0","57381","","null","","","null","81","NaN","","","","","","","","","","","","","","",""
"","S2","","html-keyboard-response","495","422509","0.0-1.0-733.0","0","0","57381","","24","","","75","81","","k","6","81","test","non_adjacent","FB","6","2","P.jpg","L.jpg","1","0","0","",""
"","feedback","","html-keyboard-response","496","422614","0.0-1.0-735.0-0.0","0","0","57381","","null","","","null","81","","","","","","","","","","","","","","","",""
"","time_out","","html-keyboard-response","497","422717","0.0-1.0-737.0-0.0","0","0","57381","","null","","","null","81","","","","","","","","","","","","","","","",""
"","ITI","","html-keyboard-response","498","423221","0.0-1.0-738.0","0","0","57381","","null","","","null","81","","","","","","","","","","","","","","","NaN",""
"","S1","","html-keyboard-response","499","423478","0.0-1.0-740.0","0","0","57381","","null","","","null","82","","","","","","","","","","","","","","","",""
"","ISI","","html-keyboard-response","500","423581","0.0-1.0-741.0","0","0","57381","","35","","","75","82","k","","","","","","","","","","","","","","",""
"","S2","","html-keyboard-response","501","423724","0.0-1.0-742.0","0","0","57381","","142","","","75","82","","k","6","82","test","adjacent","AB","1","2","M.jpg","L.jpg","1","1","1","",""
"","feedback","","html-keyboard-response","502","423827","0.0-1.0-744.0-0.0","0","0","57381","","null","","","null","82","","","","","","","","","","","","","","","",""
"","ITI","","html-keyboard-response","503","424332","0.0-1.0-747.0","0","0","57381","","101","","","75","82","","","","","","","","","","","","","","","k",""
"","S1","","html-keyboard-response","504","424584","0.0-1.0-749.0","0","0","57381","","null","","","null","83","","","","","","","","","","","","","","","",""
"","ISI","","html-keyboard-response","505","424689","0.0-1.0-750.0","0","0","57381","","null","","","null","83","NaN","","","","","","","","","","","","","","",""
"","S2","","html-keyboard-response","506","424693","0.0-1.0-751.0","0","0","57381","","2","","","75","83","","k","6","83","test","adjacent","BC","2","3","L.jpg","O.jpg","1","1","1","",""
"","feedback","","html-keyboard-response","507","424794","0.0-1.0-753.0-0.0","0","0","57381","","null","","","null","83","","","","","","","","","","","","","","","",""
"","ITI","","html-keyboard-response","508","425299","0.0-1.0-756.0","0","0","57381","","105","","","75","83","","","","","","","","","","","","","","","k",""
"","S1","","html-keyboard-response","509","425553","0.0-1.0-758.0","0","0","57381","","null","","","null","84","","","","","","","","","","","","","","","",""
"","ISI","","html-keyboard-response","510","425660","0.0-1.0-759.0","0","0","57381","","null","","","null","84","NaN","","","","","","","","","","","","","","",""
"","S2","","html-keyboard-response","511","425684","0.0-1.0-760.0","0","0","57381","","23","","","75","84","","k","6","84","test","adjacent","DC","4","3","Q.jpg","O.jpg","1","0","0","",""
"","feedback","","html-keyboard-response","512","425786","0.0-1.0-762.0-0.0","0","0","57381","","null","","","null","84","","","","","","","","","","","","","","","",""
"","time_out","","html-keyboard-response","513","425888","0.0-1.0-764.0-0.0","0","0","57381","","null","","","null","84","","","","","","","","","","","","","","","",""
"","ITI","","html-keyboard-response","514","426390","0.0-1.0-765.0","0","0","57381","","null","","","null","84","","","","","","","","","","","","","","","NaN",""
"","S1","","html-keyboard-response","515","426647","0.0-1.0-767.0","0","0","57381","","null","","","null","85","","","","","","","","","","","","","","","",""
"","ISI","","html-keyboard-response","516","426753","0.0-1.0-768.0","0","0","57381","","null","","","null","85","NaN","","","","","","","","","","","","","","",""
"","S2","","html-keyboard-response","517","426779","0.0-1.0-769.0","0","0","57381","","25","","","75","85","","k","6","85","test","non_adjacent","GC","7","3","N.jpg","O.jpg","1","0","0","",""
"","feedback","","html-keyboard-response","518","426881","0.0-1.0-771.0-0.0","0","0","57381","","null","","","null","85","","","","","","","","","","","","","","","",""
"","time_out","","html-keyboard-response","519","426984","0.0-1.0-773.0-0.0","0","0","57381","","null","","","null","85","","","","","","","","","","","","","","","",""
"","ITI","","html-keyboard-response","520","427488","0.0-1.0-774.0","0","0","57381","","null","","","null","85","","","","","","","","","","","","","","","NaN",""
"","S1","","html-keyboard-response","521","427745","0.0-1.0-776.0","0","0","57381","","null","","","null","86","","","","","","","","","","","","","","","",""
"","ISI","","html-keyboard-response","522","427852","0.0-1.0-777.0","0","0","57381","","null","","","null","86","NaN","","","","","","","","","","","","","","",""
"","S2","","html-keyboard-response","523","427871","0.0-1.0-778.0","0","0","57381","","17","","","75","86","","k","6","86","test","non_adjacent","AD","1","4","M.jpg","Q.jpg","1","1","1","",""
"","feedback","","html-keyboard-response","524","427975","0.0-1.0-780.0-0.0","0","0","57381","","null","","","null","86","","","","","","","","","","","","","","","",""
"","ITI","","html-keyboard-response","525","428481","0.0-1.0-783.0","0","0","57381","","92","","","75","86","","","","","","","","","","","","","","","k",""
"","S1","","html-keyboard-response","526","428737","0.0-1.0-785.0","0","0","57381","","null","","","null","87","","","","","","","","","","","","","","","",""
"","ISI","","html-keyboard-response","527","428841","0.0-1.0-786.0","0","0","57381","","36","","","75","87","k","","","","","","","","","","","","","","",""
"","S2","","html-keyboard-response","528","428938","0.0-1.0-787.0","0","0","57381","","95","","","75","87","","k","6","87","test","non_adjacent","DA","4","1","Q.jpg","M.jpg","1","0","0","",""
"","feedback","","html-keyboard-response","529","429043","0.0-1.0-789.0-0.0","0","0","57381","","null","","","null","87","","","","","","","","","","","","","","","",""
"","time_out","","html-keyboard-response","530","429148","0.0-1.0-791.0-0.0","0","0","57381","","null","","","null","87","","","","","","","","","","","","","","","",""
"","ITI","","html-keyboard-response","531","429654","0.0-1.0-792.0","0","0","57381","","null","","","null","87","","","","","","","","","","","","","","","NaN",""
"","S1","","html-keyboard-response","532","429911","0.0-1.0-794.0","0","0","57381","","null","","","null","88","","","","","","","","","","","","","","","",""
"","ISI","","html-keyboard-response","533","430017","0.0-1.0-795.0","0","0","57381","","null","","","null","88","NaN","","","","","","","","","","","","","","",""
"","S2","","html-keyboard-response","534","430025","0.0-1.0-796.0","0","0","57381","","6","","","75","88","","k","6","88","test","adjacent","CD","3","4","O.jpg","Q.jpg","1","1","1","",""
"","feedback","","html-keyboard-response","535","430130","0.0-1.0-798.0-0.0","0","0","57381","","null","","","null","88","","","","","","","","","","","","","","","",""
"","ITI","","html-keyboard-response","536","430636","0.0-1.0-801.0","0","0","57381","","68","","","75","88","","","","","","","","","","","","","","","k",""
"","S1","","html-keyboard-response","537","430890","0.0-1.0-803.0","0","0","57381","","null","","","null","89","","","","","","","","","","","","","","","",""
"","ISI","","html-keyboard-response","538","430993","0.0-1.0-804.0","0","0","57381","","null","","","null","89","NaN","","","","","","","","","","","","","","",""
"","S2","","html-keyboard-response","539","431073","0.0-1.0-805.0","0","0","57381","","78","","","75","89","","k","6","89","test","adjacent","BA","2","1","L.jpg","M.jpg","1","0","0","",""
"","feedback","","html-keyboard-response","540","431180","0.0-1.0-807.0-0.0","0","0","57381","","null","","","null","89","","","","","","","","","","","","","","","",""
"","time_out","","html-keyboard-response","541","431287","0.0-1.0-809.0-0.0","0","0","57381","","null","","","null","89","","","","","","","","","","","","","","","",""
"","ITI","","html-keyboard-response","542","431794","0.0-1.0-810.0","0","0","57381","","null","","","null","89","","","","","","","","","","","","","","","NaN",""
"","S1","","html-keyboard-response","543","432046","0.0-1.0-812.0","0","0","57381","","null","","","null","90","","","","","","","","","","","","","","","",""
"","ISI","","html-keyboard-response","544","432148","0.0-1.0-813.0","0","0","57381","","null","","","null","90","NaN","","","","","","","","","","","","","","",""
"","S2","","html-keyboard-response","545","432232","0.0-1.0-814.0","0","0","57381","","83","","","75","90","","k","6","90","test","non_adjacent","AC","1","3","M.jpg","O.jpg","1","1","1","",""
"","feedback","","html-keyboard-response","546","432334","0.0-1.0-816.0-0.0","0","0","57381","","null","","","null","90","","","","","","","","","","","","","","","",""
"","ITI","","html-keyboard-response","547","432839","0.0-1.0-819.0","0","0","57381","","73","","","75","90","","","","","","","","","","","","","","","k",""
"","S1","","html-keyboard-response","548","433091","0.0-1.0-821.0","0","0","57381","","null","","","null","91","","","","","","","","","","","","","","","",""
"","ISI","","html-keyboard-response","549","433194","0.0-1.0-822.0","0","0","57381","","null","","","null","91","NaN","","","","","","","","","","","","","","",""
"","S2","","html-keyboard-response","550","433277","0.0-1.0-823.0","0","0","57381","","82","","","75","91","","k","6","91","test","non_adjacent","FA","6","1","P.jpg","M.jpg","1","0","0","",""
"","feedback","","html-keyboard-response","551","433383","0.0-1.0-825.0-0.0","0","0","57381","","null","","","null","91","","","","","","","","","","","","","","","",""
"","time_out","","html-keyboard-response","552","433490","0.0-1.0-827.0-0.0","0","0","57381","","null","","","null","91","","","","","","","","","","","","","","","",""
"","ITI","","html-keyboard-response","553","433992","0.0-1.0-828.0","0","0","57381","","490","","","75","91","","","","","","","","","","","","","","","k",""
"","S1","","html-keyboard-response","554","434247","0.0-1.0-830.0","0","0","57381","","null","","","null","92","","","","","","","","","","","","","","","",""
"","ISI","","html-keyboard-response","555","434353","0.0-1.0-831.0","0","0","57381","","null","","","null","92","NaN","","","","","","","","","","","","","","",""
"","S2","","html-keyboard-response","556","434378","0.0-1.0-832.0","0","0","57381","","22","","","75","92","","k","6","92","test","non_adjacent","DB","4","2","Q.jpg","L.jpg","1","0","0","",""
"","feedback","","html-keyboard-response","557","434485","0.0-1.0-834.0-0.0","0","0","57381","","null","","","null","92","","","","","","","","","","","","","","","",""
"","time_out","","html-keyboard-response","558","434592","0.0-1.0-836.0-0.0","0","0","57381","","null","","","null","92","","","","","","","","","","","","","","","",""
"","ITI","","html-keyboard-response","559","435097","0.0-1.0-837.0","0","0","57381","","null","","","null","92","","","","","","","","","","","","","","","NaN",""
"","S1","","html-keyboard-response","560","435350","0.0-1.0-839.0","0","0","57381","","null","","","null","93","","","","","","","","","","","","","","","",""
"","ISI","","html-keyboard-response","561","435452","0.0-1.0-840.0","0","0","57381","","null","","","null","93","NaN","","","","","","","","","","","","","","",""
"","S2","","html-keyboard-response","562","435481","0.0-1.0-841.0","0","0","57381","","27","","","75","93","","k","6","93","test","non_adjacent","EC","5","3","R.jpg","O.jpg","1","0","0","",""
"","feedback","","html-keyboard-response","563","435585","0.0-1.0-843.0-0.0","0","0","57381","","null","","","null","93","","","","","","","","","","","","","","","",""
"","time_out","","html-keyboard-response","564","435688","0.0-1.0-845.0-0.0","0","0","57381","","null","","","null","93","","","","","","","","","","","","","","","",""
"","ITI","","html-keyboard-response","565","436194","0.0-1.0-846.0","0","0","57381","","null","","","null","93","","","","","","","","","","","","","","","NaN",""
"","S1","","html-keyboard-response","566","436449","0.0-1.0-848.0","0","0","57381","","null","","","null","94","","","","","","","","","","","","","","","",""
"","ISI","","html-keyboard-response","567","436556","0.0-1.0-849.0","0","0","57381","","null","","","null","94","NaN","","","","","","","","","","","","","","",""
"","S2","","html-keyboard-response","568","436583","0.0-1.0-850.0","0","0","57381","","25","","","75","94","","k","6","94","test","non_adjacent","GA","7","1","N.jpg","M.jpg","1","0","0","",""
"","feedback","","html-keyboard-response","569","436689","0.0-1.0-852.0-0.0","0","0","57381","","null","","","null","94","","","","","","","","","","","","","","","",""
"","time_out","","html-keyboard-response","570","436796","0.0-1.0-854.0-0.0","0","0","57381","","null","","","null","94","","","","","","","","","","","","","","","",""
"","ITI","","html-keyboard-response","571","437299","0.0-1.0-855.0","0","0","57381","","426","","","75","94","","","","","","","","","","","","","","","k",""
"","S1","","html-keyboard-response","572","437554","0.0-1.0-857.0","0","0","57381","","null","","","null","95","","","","","","","","","","","","","","","",""
"","ISI","","html-keyboard-response","573","437656","0.0-1.0-858.0","0","0","57381","","49","","","75","95","k","","","","","","","","","","","","","","",""
"","S2","","html-keyboard-response","574","437732","0.0-1.0-859.0","0","0","57381","","74","","","75","95","","k","6","95","test","non_adjacent","GB","7","2","N.jpg","L.jpg","1","0","0","",""
"","feedback","","html-keyboard-response","575","437836","0.0-1.0-861.0-0.0","0","0","57381","","null","","","null","95","","","","","","","","","","","","","","","",""
"","time_out","","html-keyboard-response","576","437943","0.0-1.0-863.0-0.0","0","0","57381","","null","","","null","95","","","","","","","","","","","","","","","",""
"","ITI","","html-keyboard-response","577","438447","0.0-1.0-864.0","0","0","57381","","170","","","75","95","","","","","","","","","","","","","","","k",""
"","S1","","html-keyboard-response","578","438699","0.0-1.0-866.0","0","0","57381","","null","","","null","96","","","","","","","","","","","","","","","",""
"","ISI","","html-keyboard-response","579","438802","0.0-1.0-867.0","0","0","57381","","3","","","75","96","k","","","","","","","","","","","","","","",""
"","S2","","html-keyboard-response","580","438881","0.0-1.0-868.0","0","0","57381","","77","","","75","96","","k","6","96","test","non_adjacent","FC","6","3","P.jpg","O.jpg","1","0","0","",""
"","feedback","","html-keyboard-response","581","438984","0.0-1.0-870.0-0.0","0","0","57381","","null","","","null","96","","","","","","","","","","","","","","","",""
"","time_out","","html-keyboard-response","582","439086","0.0-1.0-872.0-0.0","0","0","57381","","null","","","null","96","","","","","","","","","","","","","","","",""
"","ITI","","html-keyboard-response","583","439591","0.0-1.0-873.0","0","0","57381","","190","","","75","96","","","","","","","","","","","","","","","k",""
"","S1","","html-keyboard-response","584","439847","0.0-1.0-875.0","0","0","57381","","null","","","null","97","","","","","","","","","","","","","","","",""
