"success","ttype","start_time","trial_type","trial_index","time_elapsed","internal_node_id","warning","missed_checkup","PID","view_history","rt","responses","repeat_instructions","key_press","index","keypress_isi","keypress_S2","block","trial_num","phase","group_type","pair_type","S1_stim","S2_stim","S1_img","S2_img","S1_chosen","S1_higher","accuracy","keypress_iti","total_bonus_tally"
"true","full_screen","d08012022hr1342","fullscreen","0","3137","0.0-0.0","0","0","50898","","","","","","","","","","","","","","","","","","","","","",""
"","instructions","","instructions","1","82685","0.0-1.0-0.0-0.0","0","0","50898","[{""page_index"":0,""viewing_time"":10426},{""page_index"":1,""viewing_time"":46396},{""page_index"":2,""viewing_time"":18284},{""page_index"":3,""viewing_time"":4440}]","79546","","","","","","","","","","","","","","","","","","","",""
"","comprehension_check","","survey-multi-choice","2","115705","0.0-1.0-0.0-1.0","0","0","50898","","33016","{""Q0"":""True"",""Q1"":""K"",""Q2"":""When you see the prompt 'MAKE A CHOICE' after the second image was presented"",""Q3"":""Green mark"",""Q4"":""either D or K""}","1","","","","","","","","","","","","","","","","","",""
"","missed_instruction_checkup","","html-keyboard-response","3","120156","0.0-1.0-0.0-2.0-0.0","0","1","50898","","4447","","","32","","","","","","","","","","","","","","","","",""
"","instructions","","instructions","4","149486","0.0-1.0-0.1-0.1","0","0","50898","[{""page_index"":0,""viewing_time"":1896},{""page_index"":1,""viewing_time"":25390},{""page_index"":2,""viewing_time"":1046},{""page_index"":3,""viewing_time"":996}]","29328","","","","","","","","","","","","","","","","","","","",""
"","comprehension_check","","survey-multi-choice","5","174386","0.0-1.0-0.1-1.1","0","0","50898","","24896","{""Q0"":""False"",""Q1"":""D"",""Q2"":""When you see the prompt 'MAKE A CHOICE' after the second image was presented"",""Q3"":""Green mark"",""Q4"":""either D or K""}","1","","","","","","","","","","","","","","","","","",""
"","missed_instruction_checkup","","html-keyboard-response","6","177492","0.0-1.0-0.1-2.1-0.1","0","1","50898","","3103","","","32","","","","","","","","","","","","","","","","",""
"","instructions","","instructions","7","182150","0.0-1.0-0.2-0.2","0","0","50898","[{""page_index"":0,""viewing_time"":1283},{""page_index"":1,""viewing_time"":1548},{""page_index"":2,""viewing_time"":1274},{""page_index"":3,""viewing_time"":552}]","4657","","","","","","","","","","","","","","","","","","","",""
"","comprehension_check","","survey-multi-choice","8","209159","0.0-1.0-0.2-1.2","0","0","50898","","27005","{""Q0"":""True"",""Q1"":""D"",""Q2"":""While the images are shown"",""Q3"":""Green mark"",""Q4"":""either D or K""}","1","","","","","","","","","","","","","","","","","",""
"","missed_instruction_checkup","","html-keyboard-response","9","210452","0.0-1.0-0.2-2.2-0.2","0","1","50898","","1291","","","32","","","","","","","","","","","","","","","","",""
"","instructions","","instructions","10","213446","0.0-1.0-0.3-0.3","0","0","50898","[{""page_index"":0,""viewing_time"":1207},{""page_index"":1,""viewing_time"":554},{""page_index"":2,""viewing_time"":628},{""page_index"":3,""viewing_time"":604}]","2993","","","","","","","","","","","","","","","","","","","",""
"","comprehension_check","","survey-multi-choice","11","230630","0.0-1.0-0.3-1.3","0","0","50898","","17180","{""Q0"":""True"",""Q1"":""D"",""Q2"":""When you see the prompt 'MAKE A CHOICE' after the second image was presented"",""Q3"":""Green mark"",""Q4"":""either D or K""}","0","","","","","","","","","","","","","","","","","",""
"","start_exp","","html-keyboard-response","12","233259","0.0-1.0-1.0","0","0","50898","","2627","","","32","","","","","","","","","","","","","","","","",""
"","S1","","html-keyboard-response","13","233513","0.0-1.0-2.0","0","0","50898","","null","","","null","0","","","","","","","","","","","","","","","",""
"","ISI","","html-keyboard-response","14","235516","0.0-1.0-3.0","0","0","50898","","null","","","null","0","NaN","","","","","","","","","","","","","","",""
"","S2","","html-keyboard-response","15","235769","0.0-1.0-4.0","0","0","50898","","13","","","68","0","","d","","","","","","","","","","","","","",""
"","response","","html-keyboard-response","16","237020","0.0-1.0-5.0","0","0","50898","","1249","","","68","0","","","1","0","training","adjacent","GF","7","6","L.jpg","O.jpg","1","0","0","",""
"","feedback","","html-keyboard-response","17","238023","0.0-1.0-6.0-0.0","0","0","50898","","null","","","null","0","","","","","","","","","","","","","","","",""
"","time_out","","html-keyboard-response","18","240026","0.0-1.0-8.0-0.0","0","0","50898","","null","","","null","0","","","","","","","","","","","","","","","",""
"","ITI","","html-keyboard-response","19","241029","0.0-1.0-9.0","0","0","50898","","null","","","null","0","","","","","","","","","","","","","","","NaN",""
"","S1","","html-keyboard-response","20","241282","0.0-1.0-11.0","0","0","50898","","null","","","null","1","","","","","","","","","","","","","","","",""
"","ISI","","html-keyboard-response","21","243284","0.0-1.0-12.0","0","0","50898","","null","","","null","1","NaN","","","","","","","","","","","","","","",""
"","S2","","html-keyboard-response","22","243537","0.0-1.0-13.0","0","0","50898","","null","","","null","1","","NaN","","","","","","","","","","","","","",""
"","response","","html-keyboard-response","23","244148","0.0-1.0-14.0","0","0","50898","","609","","","68","1","","","1","1","training","adjacent","BC","2","3","R.jpg","M.jpg","1","1","1","",""
"","feedback","","html-keyboard-response","24","245152","0.0-1.0-15.0-0.0","0","0","50898","","null","","","null","1","","","","","","","","","","","","","","","",""
"","ITI","","html-keyboard-response","25","246155","0.0-1.0-18.0","0","0","50898","","null","","","null","1","","","","","","","","","","","","","","","NaN",""
"","S1","","html-keyboard-response","26","246408","0.0-1.0-20.0","0","0","50898","","null","","","null","2","","","","","","","","","","","","","","","",""
"","ISI","","html-keyboard-response","27","248410","0.0-1.0-21.0","0","0","50898","","null","","","null","2","NaN","","","","","","","","","","","","","","",""
"","S2","","html-keyboard-response","28","248662","0.0-1.0-22.0","0","0","50898","","null","","","null","2","","NaN","","","","","","","","","","","","","",""
"","response","","html-keyboard-response","29","249156","0.0-1.0-23.0","0","0","50898","","492","","","68","2","","","1","2","training","adjacent","EF","5","6","P.jpg","O.jpg","1","1","1","",""
"","feedback","","html-keyboard-response","30","250160","0.0-1.0-24.0-0.0","0","0","50898","","null","","","null","2","","","","","","","","","","","","","","","",""
"","ITI","","html-keyboard-response","31","251163","0.0-1.0-27.0","0","0","50898","","null","","","null","2","","","","","","","","","","","","","","","NaN",""
"","S1","","html-keyboard-response","32","251416","0.0-1.0-29.0","0","0","50898","","null","","","null","3","","","","","","","","","","","","","","","",""
"","ISI","","html-keyboard-response","33","253419","0.0-1.0-30.0","0","0","50898","","null","","","null","3","NaN","","","","","","","","","","","","","","",""
"","S2","","html-keyboard-response","34","253671","0.0-1.0-31.0","0","0","50898","","null","","","null","3","","NaN","","","","","","","","","","","","","",""
"","response","","html-keyboard-response","35","253996","0.0-1.0-32.0","0","0","50898","","323","","","75","3","","","1","3","training","adjacent","CD","3","4","M.jpg","Q.jpg","0","1","0","",""
"","feedback","","html-keyboard-response","36","255000","0.0-1.0-33.0-0.0","0","0","50898","","null","","","null","3","","","","","","","","","","","","","","","",""
"","time_out","","html-keyboard-response","37","257002","0.0-1.0-35.0-0.0","0","0","50898","","null","","","null","3","","","","","","","","","","","","","","","",""
"","ITI","","html-keyboard-response","38","258004","0.0-1.0-36.0","0","0","50898","","null","","","null","3","","","","","","","","","","","","","","","NaN",""
"","S1","","html-keyboard-response","39","258257","0.0-1.0-38.0","0","0","50898","","null","","","null","4","","","","","","","","","","","","","","","",""
"","ISI","","html-keyboard-response","40","260260","0.0-1.0-39.0","0","0","50898","","null","","","null","4","NaN","","","","","","","","","","","","","","",""
"","S2","","html-keyboard-response","41","260513","0.0-1.0-40.0","0","0","50898","","null","","","null","4","","NaN","","","","","","","","","","","","","",""
"","response","","html-keyboard-response","42","261244","0.0-1.0-41.0","0","0","50898","","730","","","75","4","","","1","4","training","adjacent","ED","5","4","P.jpg","Q.jpg","0","0","1","",""
"","feedback","","html-keyboard-response","43","262247","0.0-1.0-42.0-0.0","0","0","50898","","null","","","null","4","","","","","","","","","","","","","","","",""
"","ITI","","html-keyboard-response","44","263250","0.0-1.0-45.0","0","0","50898","","null","","","null","4","","","","","","","","","","","","","","","NaN",""
"","S1","","html-keyboard-response","45","263502","0.0-1.0-47.0","0","0","50898","","null","","","null","5","","","","","","","","","","","","","","","",""
"","ISI","","html-keyboard-response","46","265505","0.0-1.0-48.0","0","0","50898","","null","","","null","5","NaN","","","","","","","","","","","","","","",""
"","S2","","html-keyboard-response","47","265758","0.0-1.0-49.0","0","0","50898","","null","","","null","5","","NaN","","","","","","","","","","","","","",""
"","response","","html-keyboard-response","48","266404","0.0-1.0-50.0","0","0","50898","","645","","","68","5","","","1","5","training","adjacent","BA","2","1","R.jpg","N.jpg","1","0","0","",""
"","feedback","","html-keyboard-response","49","267407","0.0-1.0-51.0-0.0","0","0","50898","","null","","","null","5","","","","","","","","","","","","","","","",""
"","time_out","","html-keyboard-response","50","269410","0.0-1.0-53.0-0.0","0","0","50898","","null","","","null","5","","","","","","","","","","","","","","","",""
"","ITI","","html-keyboard-response","51","270412","0.0-1.0-54.0","0","0","50898","","null","","","null","5","","","","","","","","","","","","","","","NaN",""
"","S1","","html-keyboard-response","52","270665","0.0-1.0-56.0","0","0","50898","","null","","","null","6","","","","","","","","","","","","","","","",""
"","ISI","","html-keyboard-response","53","272668","0.0-1.0-57.0","0","0","50898","","null","","","null","6","NaN","","","","","","","","","","","","","","",""
"","S2","","html-keyboard-response","54","272921","0.0-1.0-58.0","0","0","50898","","null","","","null","6","","NaN","","","","","","","","","","","","","",""
"","response","","html-keyboard-response","55","273076","0.0-1.0-59.0","0","0","50898","","154","","","75","6","","","1","6","training","adjacent","CD","3","4","M.jpg","Q.jpg","0","1","0","",""
"","feedback","","html-keyboard-response","56","274078","0.0-1.0-60.0-0.0","0","0","50898","","null","","","null","6","","","","","","","","","","","","","","","",""
"","time_out","","html-keyboard-response","57","276081","0.0-1.0-62.0-0.0","0","0","50898","","null","","","null","6","","","","","","","","","","","","","","","",""
"","ITI","","html-keyboard-response","58","277083","0.0-1.0-63.0","0","0","50898","","null","","","null","6","","","","","","","","","","","","","","","NaN",""
"","S1","","html-keyboard-response","59","277336","0.0-1.0-65.0","0","0","50898","","null","","","null","7","","","","","","","","","","","","","","","",""
"","ISI","","html-keyboard-response","60","279339","0.0-1.0-66.0","0","0","50898","","202","","","68","7","d","","","","","","","","","","","","","","",""
"","S2","","html-keyboard-response","61","279592","0.0-1.0-67.0","0","0","50898","","null","","","null","7","","NaN","","","","","","","","","","","","","",""
"","response","","html-keyboard-response","62","280068","0.0-1.0-68.0","0","0","50898","","475","","","75","7","","","1","7","training","adjacent","GF","7","6","L.jpg","O.jpg","0","0","1","",""
"","feedback","","html-keyboard-response","63","281071","0.0-1.0-69.0-0.0","0","0","50898","","null","","","null","7","","","","","","","","","","","","","","","",""
"","ITI","","html-keyboard-response","64","282073","0.0-1.0-72.0","0","0","50898","","null","","","null","7","","","","","","","","","","","","","","","NaN",""
"","S1","","html-keyboard-response","65","282326","0.0-1.0-74.0","0","0","50898","","null","","","null","8","","","","","","","","","","","","","","","",""
"","ISI","","html-keyboard-response","66","284329","0.0-1.0-75.0","0","0","50898","","null","","","null","8","NaN","","","","","","","","","","","","","","",""
"","S2","","html-keyboard-response","67","284582","0.0-1.0-76.0","0","0","50898","","null","","","null","8","","NaN","","","","","","","","","","","","","",""
"","response","","html-keyboard-response","68","284772","0.0-1.0-77.0","0","0","50898","","188","","","75","8","","","1","8","training","adjacent","CB","3","2","M.jpg","R.jpg","0","0","1","",""
"","feedback","","html-keyboard-response","69","285775","0.0-1.0-78.0-0.0","0","0","50898","","null","","","null","8","","","","","","","","","","","","","","","",""
"","ITI","","html-keyboard-response","70","286779","0.0-1.0-81.0","0","0","50898","","null","","","null","8","","","","","","","","","","","","","","","NaN",""
"","S1","","html-keyboard-response","71","287032","0.0-1.0-83.0","0","0","50898","","null","","","null","9","","","","","","","","","","","","","","","",""
"","ISI","","html-keyboard-response","72","289035","0.0-1.0-84.0","0","0","50898","","null","","","null","9","NaN","","","","","","","","","","","","","","",""
"","S2","","html-keyboard-response","73","289288","0.0-1.0-85.0","0","0","50898","","null","","","null","9","","NaN","","","","","","","","","","","","","",""
"","response","","html-keyboard-response","74","289700","0.0-1.0-86.0","0","0","50898","","411","","","68","9","","","1","9","training","adjacent","DE","4","5","Q.jpg","P.jpg","1","1","1","",""
"","feedback","","html-keyboard-response","75","290703","0.0-1.0-87.0-0.0","0","0","50898","","null","","","null","9","","","","","","","","","","","","","","","",""
"","ITI","","html-keyboard-response","76","291705","0.0-1.0-90.0","0","0","50898","","null","","","null","9","","","","","","","","","","","","","","","NaN",""
"","S1","","html-keyboard-response","77","291958","0.0-1.0-92.0","0","0","50898","","null","","","null","10","","","","","","","","","","","","","","","",""
"","ISI","","html-keyboard-response","78","293961","0.0-1.0-93.0","0","0","50898","","null","","","null","10","NaN","","","","","","","","","","","","","","",""
"","S2","","html-keyboard-response","79","294214","0.0-1.0-94.0","0","0","50898","","null","","","null","10","","NaN","","","","","","","","","","","","","",""
"","response","","html-keyboard-response","80","294476","0.0-1.0-95.0","0","0","50898","","261","","","75","10","","","1","10","training","adjacent","CD","3","4","M.jpg","Q.jpg","0","1","0","",""
"","feedback","","html-keyboard-response","81","295479","0.0-1.0-96.0-0.0","0","0","50898","","null","","","null","10","","","","","","","","","","","","","","","",""
"","time_out","","html-keyboard-response","82","297482","0.0-1.0-98.0-0.0","0","0","50898","","null","","","null","10","","","","","","","","","","","","","","","",""
"","ITI","","html-keyboard-response","83","298484","0.0-1.0-99.0","0","0","50898","","null","","","null","10","","","","","","","","","","","","","","","NaN",""
"","S1","","html-keyboard-response","84","298737","0.0-1.0-101.0","0","0","50898","","null","","","null","11","","","","","","","","","","","","","","","",""
"","ISI","","html-keyboard-response","85","300740","0.0-1.0-102.0","0","0","50898","","null","","","null","11","NaN","","","","","","","","","","","","","","",""
"","S2","","html-keyboard-response","86","300993","0.0-1.0-103.0","0","0","50898","","null","","","null","11","","NaN","","","","","","","","","","","","","",""
"","response","","html-keyboard-response","87","301196","0.0-1.0-104.0","0","0","50898","","202","","","68","11","","","1","11","training","adjacent","BA","2","1","R.jpg","N.jpg","1","0","0","",""
"","feedback","","html-keyboard-response","88","302198","0.0-1.0-105.0-0.0","0","0","50898","","null","","","null","11","","","","","","","","","","","","","","","",""
"","time_out","","html-keyboard-response","89","304200","0.0-1.0-107.0-0.0","0","0","50898","","null","","","null","11","","","","","","","","","","","","","","","",""
"","ITI","","html-keyboard-response","90","305203","0.0-1.0-108.0","0","0","50898","","null","","","null","11","","","","","","","","","","","","","","","NaN",""
"","S1","","html-keyboard-response","91","305458","0.0-1.0-110.0","0","0","50898","","null","","","null","12","","","","","","","","","","","","","","","",""
"","ISI","","html-keyboard-response","92","307461","0.0-1.0-111.0","0","0","50898","","null","","","null","12","NaN","","","","","","","","","","","","","","",""
"","S2","","html-keyboard-response","93","307713","0.0-1.0-112.0","0","0","50898","","null","","","null","12","","NaN","","","","","","","","","","","","","",""
"","response","","html-keyboard-response","94","308323","0.0-1.0-113.0","0","0","50898","","608","","","75","12","","","1","12","training","adjacent","AB","1","2","N.jpg","R.jpg","0","1","0","",""
"","feedback","","html-keyboard-response","95","309327","0.0-1.0-114.0-0.0","0","0","50898","","null","","","null","12","","","","","","","","","","","","","","","",""
"","time_out","","html-keyboard-response","96","311333","0.0-1.0-116.0-0.0","0","0","50898","","null","","","null","12","","","","","","","","","","","","","","","",""
"","ITI","","html-keyboard-response","97","312335","0.0-1.0-117.0","0","0","50898","","null","","","null","12","","","","","","","","","","","","","","","NaN",""
"","S1","","html-keyboard-response","98","312588","0.0-1.0-119.0","0","0","50898","","null","","","null","13","","","","","","","","","","","","","","","",""
"","ISI","","html-keyboard-response","99","314591","0.0-1.0-120.0","0","0","50898","","null","","","null","13","NaN","","","","","","","","","","","","","","",""
"","S2","","html-keyboard-response","100","314845","0.0-1.0-121.0","0","0","50898","","null","","","null","13","","NaN","","","","","","","","","","","","","",""
"","response","","html-keyboard-response","101","315691","0.0-1.0-122.0","0","0","50898","","846","","","68","13","","","1","13","training","adjacent","CB","3","2","M.jpg","R.jpg","1","0","0","",""
"","feedback","","html-keyboard-response","102","316694","0.0-1.0-123.0-0.0","0","0","50898","","null","","","null","13","","","","","","","","","","","","","","","",""
"","time_out","","html-keyboard-response","103","318697","0.0-1.0-125.0-0.0","0","0","50898","","null","","","null","13","","","","","","","","","","","","","","","",""
"","ITI","","html-keyboard-response","104","319700","0.0-1.0-126.0","0","0","50898","","null","","","null","13","","","","","","","","","","","","","","","NaN",""
"","S1","","html-keyboard-response","105","319952","0.0-1.0-128.0","0","0","50898","","null","","","null","14","","","","","","","","","","","","","","","",""
"","ISI","","html-keyboard-response","106","321955","0.0-1.0-129.0","0","0","50898","","null","","","null","14","NaN","","","","","","","","","","","","","","",""
"","S2","","html-keyboard-response","107","322208","0.0-1.0-130.0","0","0","50898","","null","","","null","14","","NaN","","","","","","","","","","","","","",""
"","response","","html-keyboard-response","108","322635","0.0-1.0-131.0","0","0","50898","","425","","","75","14","","","1","14","training","adjacent","EF","5","6","P.jpg","O.jpg","0","1","0","",""
"","feedback","","html-keyboard-response","109","323638","0.0-1.0-132.0-0.0","0","0","50898","","null","","","null","14","","","","","","","","","","","","","","","",""
"","time_out","","html-keyboard-response","110","325641","0.0-1.0-134.0-0.0","0","0","50898","","null","","","null","14","","","","","","","","","","","","","","","",""
"","ITI","","html-keyboard-response","111","326643","0.0-1.0-135.0","0","0","50898","","null","","","null","14","","","","","","","","","","","","","","","NaN",""
"","S1","","html-keyboard-response","112","326896","0.0-1.0-137.0","0","0","50898","","null","","","null","15","","","","","","","","","","","","","","","",""
"","ISI","","html-keyboard-response","113","328899","0.0-1.0-138.0","0","0","50898","","null","","","null","15","NaN","","","","","","","","","","","","","","",""
"","S2","","html-keyboard-response","114","329152","0.0-1.0-139.0","0","0","50898","","null","","","null","15","","NaN","","","","","","","","","","","","","",""
"","response","","html-keyboard-response","115","330060","0.0-1.0-140.0","0","0","50898","","906","","","68","15","","","1","15","training","adjacent","ED","5","4","P.jpg","Q.jpg","1","0","0","",""
"","feedback","","html-keyboard-response","116","331062","0.0-1.0-141.0-0.0","0","0","50898","","null","","","null","15","","","","","","","","","","","","","","","",""
"","time_out","","html-keyboard-response","117","333065","0.0-1.0-143.0-0.0","0","0","50898","","null","","","null","15","","","","","","","","","","","","","","","",""
"","ITI","","html-keyboard-response","118","334067","0.0-1.0-144.0","0","0","50898","","null","","","null","15","","","","","","","","","","","","","","","NaN",""
"","S1","","html-keyboard-response","119","334334","0.0-1.0-146.0","0","0","50898","","null","","","null","16","","","","","","","","","","","","","","","",""
"","ISI","","html-keyboard-response","120","336337","0.0-1.0-147.0","0","0","50898","","null","","","null","16","NaN","","","","","","","","","","","","","","",""
"","S2","","html-keyboard-response","121","336599","0.0-1.0-148.0","0","0","50898","","null","","","null","16","","NaN","","","","","","","","","","","","","",""
"","response","","html-keyboard-response","122","337003","0.0-1.0-149.0","0","0","50898","","403","","","75","16","","","1","16","training","adjacent","BA","2","1","R.jpg","N.jpg","0","0","1","",""
"","feedback","","html-keyboard-response","123","338006","0.0-1.0-150.0-0.0","0","0","50898","","null","","","null","16","","","","","","","","","","","","","","","",""
"","ITI","","html-keyboard-response","124","339008","0.0-1.0-153.0","0","0","50898","","null","","","null","16","","","","","","","","","","","","","","","NaN",""
"","S1","","html-keyboard-response","125","339261","0.0-1.0-155.0","0","0","50898","","null","","","null","17","","","","","","","","","","","","","","","",""
"","ISI","","html-keyboard-response","126","341264","0.0-1.0-156.0","0","0","50898","","null","","","null","17","NaN","","","","","","","","","","","","","","",""
"","S2","","html-keyboard-response","127","341517","0.0-1.0-157.0","0","0","50898","","null","","","null","17","","NaN","","","","","","","","","","","","","",""
"","response","","html-keyboard-response","128","341835","0.0-1.0-158.0","0","0","50898","","316","","","68","17","","","1","17","training","adjacent","AB","1","2","N.jpg","R.jpg","1","1","1","",""
"","feedback","","html-keyboard-response","129","342838","0.0-1.0-159.0-0.0","0","0","50898","","null","","","null","17","","","","","","","","","","","","","","","",""
"","ITI","","html-keyboard-response","130","343841","0.0-1.0-162.0","0","0","50898","","null","","","null","17","","","","","","","","","","","","","","","NaN",""
"","S1","","html-keyboard-response","131","344093","0.0-1.0-164.0","0","0","50898","","null","","","null","18","","","","","","","","","","","","","","","",""
"","ISI","","html-keyboard-response","132","346096","0.0-1.0-165.0","0","0","50898","","null","","","null","18","NaN","","","","","","","","","","","","","","",""
"","S2","","html-keyboard-response","133","346349","0.0-1.0-166.0","0","0","50898","","null","","","null","18","","NaN","","","","","","","","","","","","","",""
"","response","","html-keyboard-response","134","346827","0.0-1.0-167.0","0","0","50898","","477","","","68","18","","","1","18","training","adjacent","EF","5","6","P.jpg","O.jpg","1","1","1","",""
"","feedback","","html-keyboard-response","135","347830","0.0-1.0-168.0-0.0","0","0","50898","","null","","","null","18","","","","","","","","","","","","","","","",""
"","ITI","","html-keyboard-response","136","348833","0.0-1.0-171.0","0","0","50898","","null","","","null","18","","","","","","","","","","","","","","","NaN",""
"","S1","","html-keyboard-response","137","349086","0.0-1.0-173.0","0","0","50898","","null","","","null","19","","","","","","","","","","","","","","","",""
"","ISI","","html-keyboard-response","138","351088","0.0-1.0-174.0","0","0","50898","","null","","","null","19","NaN","","","","","","","","","","","","","","",""
"","S2","","html-keyboard-response","139","351341","0.0-1.0-175.0","0","0","50898","","null","","","null","19","","NaN","","","","","","","","","","","","","",""
"","response","","html-keyboard-response","140","351707","0.0-1.0-176.0","0","0","50898","","364","","","68","19","","","1","19","training","adjacent","BC","2","3","R.jpg","M.jpg","1","1","1","",""
"","feedback","","html-keyboard-response","141","352709","0.0-1.0-177.0-0.0","0","0","50898","","null","","","null","19","","","","","","","","","","","","","","","",""
"","ITI","","html-keyboard-response","142","353712","0.0-1.0-180.0","0","0","50898","","null","","","null","19","","","","","","","","","","","","","","","NaN",""
"","S1","","html-keyboard-response","143","353965","0.0-1.0-182.0","0","0","50898","","null","","","null","20","","","","","","","","","","","","","","","",""
"","ISI","","html-keyboard-response","144","355968","0.0-1.0-183.0","0","0","50898","","null","","","null","20","NaN","","","","","","","","","","","","","","",""
"","S2","","html-keyboard-response","145","356220","0.0-1.0-184.0","0","0","50898","","null","","","null","20","","NaN","","","","","","","","","","","","","",""
"","response","","html-keyboard-response","146","356531","0.0-1.0-185.0","0","0","50898","","309","","","68","20","","","1","20","training","adjacent","DE","4","5","Q.jpg","P.jpg","1","1","1","",""
"","feedback","","html-keyboard-response","147","357534","0.0-1.0-186.0-0.0","0","0","50898","","null","","","null","20","","","","","","","","","","","","","","","",""
"","ITI","","html-keyboard-response","148","358536","0.0-1.0-189.0","0","0","50898","","null","","","null","20","","","","","","","","","","","","","","","NaN",""
"","S1","","html-keyboard-response","149","358789","0.0-1.0-191.0","0","0","50898","","null","","","null","21","","","","","","","","","","","","","","","",""
"","ISI","","html-keyboard-response","150","360792","0.0-1.0-192.0","0","0","50898","","null","","","null","21","NaN","","","","","","","","","","","","","","",""
"","S2","","html-keyboard-response","151","361045","0.0-1.0-193.0","0","0","50898","","null","","","null","21","","NaN","","","","","","","","","","","","","",""
"","response","","html-keyboard-response","152","361443","0.0-1.0-194.0","0","0","50898","","397","","","68","21","","","1","21","training","adjacent","FE","6","5","O.jpg","P.jpg","1","0","0","",""
"","feedback","","html-keyboard-response","153","362446","0.0-1.0-195.0-0.0","0","0","50898","","null","","","null","21","","","","","","","","","","","","","","","",""
"","time_out","","html-keyboard-response","154","364448","0.0-1.0-197.0-0.0","0","0","50898","","null","","","null","21","","","","","","","","","","","","","","","",""
"","ITI","","html-keyboard-response","155","365450","0.0-1.0-198.0","0","0","50898","","null","","","null","21","","","","","","","","","","","","","","","NaN",""
"","S1","","html-keyboard-response","156","365703","0.0-1.0-200.0","0","0","50898","","null","","","null","22","","","","","","","","","","","","","","","",""
"","ISI","","html-keyboard-response","157","367706","0.0-1.0-201.0","0","0","50898","","null","","","null","22","NaN","","","","","","","","","","","","","","",""
"","S2","","html-keyboard-response","158","367959","0.0-1.0-202.0","0","0","50898","","null","","","null","22","","NaN","","","","","","","","","","","","","",""
"","response","","html-keyboard-response","159","368179","0.0-1.0-203.0","0","0","50898","","219","","","75","22","","","1","22","training","adjacent","ED","5","4","P.jpg","Q.jpg","0","0","1","",""
"","feedback","","html-keyboard-response","160","369184","0.0-1.0-204.0-0.0","0","0","50898","","null","","","null","22","","","","","","","","","","","","","","","",""
"","ITI","","html-keyboard-response","161","370186","0.0-1.0-207.0","0","0","50898","","null","","","null","22","","","","","","","","","","","","","","","NaN",""
"","S1","","html-keyboard-response","162","370439","0.0-1.0-209.0","0","0","50898","","null","","","null","23","","","","","","","","","","","","","","","",""
"","ISI","","html-keyboard-response","163","372442","0.0-1.0-210.0","0","0","50898","","null","","","null","23","NaN","","","","","","","","","","","","","","",""
"","S2","","html-keyboard-response","164","372695","0.0-1.0-211.0","0","0","50898","","null","","","null","23","","NaN","","","","","","","","","","","","","",""
"","response","","html-keyboard-response","165","373347","0.0-1.0-212.0","0","0","50898","","651","","","68","23","","","1","23","training","adjacent","FG","6","7","O.jpg","L.jpg","1","1","1","",""
"","feedback","","html-keyboard-response","166","374350","0.0-1.0-213.0-0.0","0","0","50898","","null","","","null","23","","","","","","","","","","","","","","","",""
"","ITI","","html-keyboard-response","167","375352","0.0-1.0-216.0","0","0","50898","","null","","","null","23","","","","","","","","","","","","","","","NaN",""
"","S1","","html-keyboard-response","168","375605","0.0-1.0-218.0","0","0","50898","","null","","","null","24","","","","","","","","","","","","","","","",""
"","ISI","","html-keyboard-response","169","377608","0.0-1.0-219.0","0","0","50898","","null","","","null","24","NaN","","","","","","","","","","","","","","",""
"","S2","","html-keyboard-response","170","377861","0.0-1.0-220.0","0","0","50898","","null","","","null","24","","NaN","","","","","","","","","","","","","",""
"","response","","html-keyboard-response","171","378403","0.0-1.0-221.0","0","0","50898","","541","","","75","24","","","1","24","training","adjacent","FG","6","7","O.jpg","L.jpg","0","1","0","",""
"","feedback","","html-keyboard-response","172","379406","0.0-1.0-222.0-0.0","0","0","50898","","null","","","null","24","","","","","","","","","","","","","","","",""
"","time_out","","html-keyboard-response","173","381409","0.0-1.0-224.0-0.0","0","0","50898","","null","","","null","24","","","","","","","","","","","","","","","",""
"","ITI","","html-keyboard-response","174","382411","0.0-1.0-225.0","0","0","50898","","null","","","null","24","","","","","","","","","","","","","","","NaN",""
"","S1","","html-keyboard-response","175","382664","0.0-1.0-227.0","0","0","50898","","null","","","null","25","","","","","","","","","","","","","","","",""
"","ISI","","html-keyboard-response","176","384667","0.0-1.0-228.0","0","0","50898","","null","","","null","25","NaN","","","","","","","","","","","","","","",""
"","S2","","html-keyboard-response","177","384920","0.0-1.0-229.0","0","0","50898","","null","","","null","25","","NaN","","","","","","","","","","","","","",""
"","response","","html-keyboard-response","178","385307","0.0-1.0-230.0","0","0","50898","","386","","","68","25","","","1","25","training","adjacent","FE","6","5","O.jpg","P.jpg","1","0","0","",""
"","feedback","","html-keyboard-response","179","386309","0.0-1.0-231.0-0.0","0","0","50898","","null","","","null","25","","","","","","","","","","","","","","","",""
"","time_out","","html-keyboard-response","180","388312","0.0-1.0-233.0-0.0","0","0","50898","","null","","","null","25","","","","","","","","","","","","","","","",""
"","ITI","","html-keyboard-response","181","389314","0.0-1.0-234.0","0","0","50898","","null","","","null","25","","","","","","","","","","","","","","","NaN",""
"","S1","","html-keyboard-response","182","389567","0.0-1.0-236.0","0","0","50898","","null","","","null","26","","","","","","","","","","","","","","","",""
"","ISI","","html-keyboard-response","183","391570","0.0-1.0-237.0","0","0","50898","","null","","","null","26","NaN","","","","","","","","","","","","","","",""
"","S2","","html-keyboard-response","184","391823","0.0-1.0-238.0","0","0","50898","","null","","","null","26","","NaN","","","","","","","","","","","","","",""
"","response","","html-keyboard-response","185","392043","0.0-1.0-239.0","0","0","50898","","219","","","68","26","","","1","26","training","adjacent","ED","5","4","P.jpg","Q.jpg","1","0","0","",""
"","feedback","","html-keyboard-response","186","393046","0.0-1.0-240.0-0.0","0","0","50898","","null","","","null","26","","","","","","","","","","","","","","","",""
"","time_out","","html-keyboard-response","187","395049","0.0-1.0-242.0-0.0","0","0","50898","","null","","","null","26","","","","","","","","","","","","","","","",""
"","ITI","","html-keyboard-response","188","396051","0.0-1.0-243.0","0","0","50898","","null","","","null","26","","","","","","","","","","","","","","","NaN",""
"","S1","","html-keyboard-response","189","396304","0.0-1.0-245.0","0","0","50898","","null","","","null","27","","","","","","","","","","","","","","","",""
"","ISI","","html-keyboard-response","190","398307","0.0-1.0-246.0","0","0","50898","","null","","","null","27","NaN","","","","","","","","","","","","","","",""
"","S2","","html-keyboard-response","191","398560","0.0-1.0-247.0","0","0","50898","","null","","","null","27","","NaN","","","","","","","","","","","","","",""
"","response","","html-keyboard-response","192","398723","0.0-1.0-248.0","0","0","50898","","162","","","68","27","","","1","27","training","adjacent","EF","5","6","P.jpg","O.jpg","1","1","1","",""
"","feedback","","html-keyboard-response","193","399725","0.0-1.0-249.0-0.0","0","0","50898","","null","","","null","27","","","","","","","","","","","","","","","",""
"","ITI","","html-keyboard-response","194","400728","0.0-1.0-252.0","0","0","50898","","null","","","null","27","","","","","","","","","","","","","","","NaN",""
"","S1","","html-keyboard-response","195","400981","0.0-1.0-254.0","0","0","50898","","null","","","null","28","","","","","","","","","","","","","","","",""
"","ISI","","html-keyboard-response","196","402984","0.0-1.0-255.0","0","0","50898","","null","","","null","28","NaN","","","","","","","","","","","","","","",""
"","S2","","html-keyboard-response","197","403236","0.0-1.0-256.0","0","0","50898","","null","","","null","28","","NaN","","","","","","","","","","","","","",""
"","response","","html-keyboard-response","198","403619","0.0-1.0-257.0","0","0","50898","","381","","","75","28","","","1","28","training","adjacent","AB","1","2","N.jpg","R.jpg","0","1","0","",""
"","feedback","","html-keyboard-response","199","404636","0.0-1.0-258.0-0.0","0","0","50898","","null","","","null","28","","","","","","","","","","","","","","","",""
"","time_out","","html-keyboard-response","200","406638","0.0-1.0-260.0-0.0","0","0","50898","","null","","","null","28","","","","","","","","","","","","","","","",""
"","ITI","","html-keyboard-response","201","407641","0.0-1.0-261.0","0","0","50898","","null","","","null","28","","","","","","","","","","","","","","","NaN",""
"","S1","","html-keyboard-response","202","407894","0.0-1.0-263.0","0","0","50898","","null","","","null","29","","","","","","","","","","","","","","","",""
"","ISI","","html-keyboard-response","203","409897","0.0-1.0-264.0","0","0","50898","","220","","","68","29","d","","","","","","","","","","","","","","",""
"","S2","","html-keyboard-response","204","410150","0.0-1.0-265.0","0","0","50898","","null","","","null","29","","NaN","","","","","","","","","","","","","",""
"","response","","html-keyboard-response","205","410539","0.0-1.0-266.0","0","0","50898","","388","","","68","29","","","1","29","training","adjacent","DE","4","5","Q.jpg","P.jpg","1","1","1","",""
"","feedback","","html-keyboard-response","206","411541","0.0-1.0-267.0-0.0","0","0","50898","","null","","","null","29","","","","","","","","","","","","","","","",""
"","ITI","","html-keyboard-response","207","412544","0.0-1.0-270.0","0","0","50898","","null","","","null","29","","","","","","","","","","","","","","","NaN",""
"","S1","","html-keyboard-response","208","412797","0.0-1.0-272.0","0","0","50898","","null","","","null","30","","","","","","","","","","","","","","","",""
"","ISI","","html-keyboard-response","209","414800","0.0-1.0-273.0","0","0","50898","","null","","","null","30","NaN","","","","","","","","","","","","","","",""
"","S2","","html-keyboard-response","210","415053","0.0-1.0-274.0","0","0","50898","","null","","","null","30","","NaN","","","","","","","","","","","","","",""
"","response","","html-keyboard-response","211","415875","0.0-1.0-275.0","0","0","50898","","821","","","75","30","","","1","30","training","adjacent","FE","6","5","O.jpg","P.jpg","0","0","1","",""
"","feedback","","html-keyboard-response","212","416877","0.0-1.0-276.0-0.0","0","0","50898","","null","","","null","30","","","","","","","","","","","","","","","",""
"","ITI","","html-keyboard-response","213","417880","0.0-1.0-279.0","0","0","50898","","null","","","null","30","","","","","","","","","","","","","","","NaN",""
"","S1","","html-keyboard-response","214","418133","0.0-1.0-281.0","0","0","50898","","null","","","null","31","","","","","","","","","","","","","","","",""
"","ISI","","html-keyboard-response","215","420136","0.0-1.0-282.0","0","0","50898","","null","","","null","31","NaN","","","","","","","","","","","","","","",""
"","S2","","html-keyboard-response","216","420389","0.0-1.0-283.0","0","0","50898","","null","","","null","31","","NaN","","","","","","","","","","","","","",""
"","response","","html-keyboard-response","217","420739","0.0-1.0-284.0","0","0","50898","","349","","","75","31","","","1","31","training","adjacent","BC","2","3","R.jpg","M.jpg","0","1","0","",""
"","feedback","","html-keyboard-response","218","421742","0.0-1.0-285.0-0.0","0","0","50898","","null","","","null","31","","","","","","","","","","","","","","","",""
"","time_out","","html-keyboard-response","219","423745","0.0-1.0-287.0-0.0","0","0","50898","","null","","","null","31","","","","","","","","","","","","","","","",""
"","ITI","","html-keyboard-response","220","424747","0.0-1.0-288.0","0","0","50898","","null","","","null","31","","","","","","","","","","","","","","","NaN",""
"","S1","","html-keyboard-response","221","425000","0.0-1.0-290.0","0","0","50898","","null","","","null","32","","","","","","","","","","","","","","","",""
"","ISI","","html-keyboard-response","222","427003","0.0-1.0-291.0","0","0","50898","","null","","","null","32","NaN","","","","","","","","","","","","","","",""
"","S2","","html-keyboard-response","223","427256","0.0-1.0-292.0","0","0","50898","","null","","","null","32","","NaN","","","","","","","","","","","","","",""
"","response","","html-keyboard-response","224","427491","0.0-1.0-293.0","0","0","50898","","234","","","68","32","","","1","32","training","adjacent","GF","7","6","L.jpg","O.jpg","1","0","0","",""
"","feedback","","html-keyboard-response","225","428494","0.0-1.0-294.0-0.0","0","0","50898","","null","","","null","32","","","","","","","","","","","","","","","",""
"","time_out","","html-keyboard-response","226","430497","0.0-1.0-296.0-0.0","0","0","50898","","null","","","null","32","","","","","","","","","","","","","","","",""
"","ITI","","html-keyboard-response","227","431506","0.0-1.0-297.0","0","0","50898","","null","","","null","32","","","","","","","","","","","","","","","NaN",""
"","S1","","html-keyboard-response","228","431759","0.0-1.0-299.0","0","0","50898","","null","","","null","33","","","","","","","","","","","","","","","",""
"","ISI","","html-keyboard-response","229","433766","0.0-1.0-300.0","0","0","50898","","null","","","null","33","NaN","","","","","","","","","","","","","","",""
"","S2","","html-keyboard-response","230","434020","0.0-1.0-301.0","0","0","50898","","null","","","null","33","","NaN","","","","","","","","","","","","","",""
"","response","","html-keyboard-response","231","436023","0.0-1.0-302.0","0","0","50898","","null","","","null","33","","","1","33","training","adjacent","CB","3","2","M.jpg","R.jpg","NaN","0","0","",""
"","too_slow_prompt","","html-keyboard-response","232","437026","0.0-1.0-304.0-0.0","1","0","50898","","null","","","null","","","","","","","","","","","","","","","","",""
"","time_out","","html-keyboard-response","233","439029","0.0-1.0-305.0-0.0","0","0","50898","","null","","","null","33","","","","","","","","","","","","","","","",""
"","ITI","","html-keyboard-response","234","440031","0.0-1.0-306.0","0","0","50898","","null","","","null","33","","","","","","","","","","","","","","","NaN",""
"","S1","","html-keyboard-response","235","440284","0.0-1.0-308.0","0","0","50898","","null","","","null","34","","","","","","","","","","","","","","","",""
"","ISI","","html-keyboard-response","236","442287","0.0-1.0-309.0","0","0","50898","","null","","","null","34","NaN","","","","","","","","","","","","","","",""
"","S2","","html-keyboard-response","237","442540","0.0-1.0-310.0","0","0","50898","","null","","","null","34","","NaN","","","","","","","","","","","","","",""
"","response","","html-keyboard-response","238","442611","0.0-1.0-311.0","0","0","50898","","70","","","75","34","","","1","34","training","adjacent","FE","6","5","O.jpg","P.jpg","0","0","1","",""
"","feedback","","html-keyboard-response","239","443614","0.0-1.0-312.0-0.0","0","0","50898","","null","","","null","34","","","","","","","","","","","","","","","",""
"","ITI","","html-keyboard-response","240","444617","0.0-1.0-315.0","0","0","50898","","null","","","null","34","","","","","","","","","","","","","","","NaN",""
"","S1","","html-keyboard-response","241","444869","0.0-1.0-317.0","0","0","50898","","null","","","null","35","","","","","","","","","","","","","","","",""
"","ISI","","html-keyboard-response","242","446872","0.0-1.0-318.0","0","0","50898","","null","","","null","35","NaN","","","","","","","","","","","","","","",""
"","S2","","html-keyboard-response","243","447125","0.0-1.0-319.0","0","0","50898","","null","","","null","35","","NaN","","","","","","","","","","","","","",""
"","response","","html-keyboard-response","244","447179","0.0-1.0-320.0","0","0","50898","","53","","","68","35","","","1","35","training","adjacent","DC","4","3","Q.jpg","M.jpg","1","0","0","",""
"","feedback","","html-keyboard-response","245","448182","0.0-1.0-321.0-0.0","0","0","50898","","null","","","null","35","","","","","","","","","","","","","","","",""
"","time_out","","html-keyboard-response","246","450185","0.0-1.0-323.0-0.0","0","0","50898","","null","","","null","35","","","","","","","","","","","","","","","",""
"","ITI","","html-keyboard-response","247","451188","0.0-1.0-324.0","0","0","50898","","null","","","null","35","","","","","","","","","","","","","","","NaN",""
"","S1","","html-keyboard-response","248","451441","0.0-1.0-326.0","0","0","50898","","null","","","null","36","","","","","","","","","","","","","","","",""
"","ISI","","html-keyboard-response","249","453443","0.0-1.0-327.0","0","0","50898","","null","","","null","36","NaN","","","","","","","","","","","","","","",""
"","S2","","html-keyboard-response","250","453696","0.0-1.0-328.0","0","0","50898","","null","","","null","36","","NaN","","","","","","","","","","","","","",""
"","response","","html-keyboard-response","251","453843","0.0-1.0-329.0","0","0","50898","","146","","","75","36","","","1","36","training","adjacent","BA","2","1","R.jpg","N.jpg","0","0","1","",""
"","feedback","","html-keyboard-response","252","454845","0.0-1.0-330.0-0.0","0","0","50898","","null","","","null","36","","","","","","","","","","","","","","","",""
"","ITI","","html-keyboard-response","253","455848","0.0-1.0-333.0","0","0","50898","","null","","","null","36","","","","","","","","","","","","","","","NaN",""
"","S1","","html-keyboard-response","254","456101","0.0-1.0-335.0","0","0","50898","","null","","","null","37","","","","","","","","","","","","","","","",""
"","ISI","","html-keyboard-response","255","458104","0.0-1.0-336.0","0","0","50898","","null","","","null","37","NaN","","","","","","","","","","","","","","",""
"","S2","","html-keyboard-response","256","458357","0.0-1.0-337.0","0","0","50898","","null","","","null","37","","NaN","","","","","","","","","","","","","",""
"","response","","html-keyboard-response","257","458467","0.0-1.0-338.0","0","0","50898","","109","","","68","37","","","1","37","training","adjacent","FG","6","7","O.jpg","L.jpg","1","1","1","",""
"","feedback","","html-keyboard-response","258","459481","0.0-1.0-339.0-0.0","0","0","50898","","null","","","null","37","","","","","","","","","","","","","","","",""
"","ITI","","html-keyboard-response","259","460483","0.0-1.0-342.0","0","0","50898","","null","","","null","37","","","","","","","","","","","","","","","NaN",""
"","S1","","html-keyboard-response","260","460736","0.0-1.0-344.0","0","0","50898","","null","","","null","38","","","","","","","","","","","","","","","",""
"","ISI","","html-keyboard-response","261","462739","0.0-1.0-345.0","0","0","50898","","null","","","null","38","NaN","","","","","","","","","","","","","","",""
"","S2","","html-keyboard-response","262","462992","0.0-1.0-346.0","0","0","50898","","null","","","null","38","","NaN","","","","","","","","","","","","","",""
"","response","","html-keyboard-response","263","463435","0.0-1.0-347.0","0","0","50898","","442","","","68","38","","","1","38","training","adjacent","DC","4","3","Q.jpg","M.jpg","1","0","0","",""
"","feedback","","html-keyboard-response","264","464438","0.0-1.0-348.0-0.0","0","0","50898","","null","","","null","38","","","","","","","","","","","","","","","",""
"","time_out","","html-keyboard-response","265","466441","0.0-1.0-350.0-0.0","0","0","50898","","null","","","null","38","","","","","","","","","","","","","","","",""
"","ITI","","html-keyboard-response","266","467443","0.0-1.0-351.0","0","0","50898","","null","","","null","38","","","","","","","","","","","","","","","NaN",""
"","S1","","html-keyboard-response","267","467696","0.0-1.0-353.0","0","0","50898","","null","","","null","39","","","","","","","","","","","","","","","",""
"","ISI","","html-keyboard-response","268","469699","0.0-1.0-354.0","0","0","50898","","null","","","null","39","NaN","","","","","","","","","","","","","","",""
"","S2","","html-keyboard-response","269","469952","0.0-1.0-355.0","0","0","50898","","null","","","null","39","","NaN","","","","","","","","","","","","","",""
"","response","","html-keyboard-response","270","470019","0.0-1.0-356.0","0","0","50898","","66","","","75","39","","","1","39","training","adjacent","DE","4","5","Q.jpg","P.jpg","0","1","0","",""
"","feedback","","html-keyboard-response","271","471022","0.0-1.0-357.0-0.0","0","0","50898","","null","","","null","39","","","","","","","","","","","","","","","",""
"","time_out","","html-keyboard-response","272","473025","0.0-1.0-359.0-0.0","0","0","50898","","null","","","null","39","","","","","","","","","","","","","","","",""
"","ITI","","html-keyboard-response","273","474028","0.0-1.0-360.0","0","0","50898","","null","","","null","39","","","","","","","","","","","","","","","NaN",""
"","S1","","html-keyboard-response","274","474280","0.0-1.0-362.0","0","0","50898","","null","","","null","40","","","","","","","","","","","","","","","",""
"","ISI","","html-keyboard-response","275","476283","0.0-1.0-363.0","0","0","50898","","249","","","68","40","d","","","","","","","","","","","","","","",""
"","S2","","html-keyboard-response","276","476536","0.0-1.0-364.0","0","0","50898","","null","","","null","40","","NaN","","","","","","","","","","","","","",""
"","response","","html-keyboard-response","277","476899","0.0-1.0-365.0","0","0","50898","","362","","","68","40","","","1","40","training","adjacent","AB","1","2","N.jpg","R.jpg","1","1","1","",""
"","feedback","","html-keyboard-response","278","477902","0.0-1.0-366.0-0.0","0","0","50898","","null","","","null","40","","","","","","","","","","","","","","","",""
"","ITI","","html-keyboard-response","279","478905","0.0-1.0-369.0","0","0","50898","","null","","","null","40","","","","","","","","","","","","","","","NaN",""
"","S1","","html-keyboard-response","280","479157","0.0-1.0-371.0","0","0","50898","","null","","","null","41","","","","","","","","","","","","","","","",""
"","ISI","","html-keyboard-response","281","481160","0.0-1.0-372.0","0","0","50898","","null","","","null","41","NaN","","","","","","","","","","","","","","",""
"","S2","","html-keyboard-response","282","481413","0.0-1.0-373.0","0","0","50898","","null","","","null","41","","NaN","","","","","","","","","","","","","",""
"","response","","html-keyboard-response","283","481947","0.0-1.0-374.0","0","0","50898","","532","","","75","41","","","1","41","training","adjacent","GF","7","6","L.jpg","O.jpg","0","0","1","",""
"","feedback","","html-keyboard-response","284","482951","0.0-1.0-375.0-0.0","0","0","50898","","null","","","null","41","","","","","","","","","","","","","","","",""
"","ITI","","html-keyboard-response","285","483953","0.0-1.0-378.0","0","0","50898","","null","","","null","41","","","","","","","","","","","","","","","NaN",""
"","S1","","html-keyboard-response","286","484206","0.0-1.0-380.0","0","0","50898","","null","","","null","42","","","","","","","","","","","","","","","",""
"","ISI","","html-keyboard-response","287","486208","0.0-1.0-381.0","0","0","50898","","null","","","null","42","NaN","","","","","","","","","","","","","","",""
"","S2","","html-keyboard-response","288","486462","0.0-1.0-382.0","0","0","50898","","null","","","null","42","","NaN","","","","","","","","","","","","","",""
"","response","","html-keyboard-response","289","486971","0.0-1.0-383.0","0","0","50898","","508","","","75","42","","","1","42","training","adjacent","FG","6","7","O.jpg","L.jpg","0","1","0","",""
"","feedback","","html-keyboard-response","290","487974","0.0-1.0-384.0-0.0","0","0","50898","","null","","","null","42","","","","","","","","","","","","","","","",""
"","time_out","","html-keyboard-response","291","489976","0.0-1.0-386.0-0.0","0","0","50898","","null","","","null","42","","","","","","","","","","","","","","","",""
"","ITI","","html-keyboard-response","292","490979","0.0-1.0-387.0","0","0","50898","","null","","","null","42","","","","","","","","","","","","","","","NaN",""
"","S1","","html-keyboard-response","293","491232","0.0-1.0-389.0","0","0","50898","","null","","","null","43","","","","","","","","","","","","","","","",""
"","ISI","","html-keyboard-response","294","493234","0.0-1.0-390.0","0","0","50898","","null","","","null","43","NaN","","","","","","","","","","","","","","",""
"","S2","","html-keyboard-response","295","493487","0.0-1.0-391.0","0","0","50898","","null","","","null","43","","NaN","","","","","","","","","","","","","",""
"","response","","html-keyboard-response","296","493675","0.0-1.0-392.0","0","0","50898","","186","","","75","43","","","1","43","training","adjacent","CD","3","4","M.jpg","Q.jpg","0","1","0","",""
"","feedback","","html-keyboard-response","297","494678","0.0-1.0-393.0-0.0","0","0","50898","","null","","","null","43","","","","","","","","","","","","","","","",""
"","time_out","","html-keyboard-response","298","496681","0.0-1.0-395.0-0.0","0","0","50898","","null","","","null","43","","","","","","","","","","","","","","","",""
"","ITI","","html-keyboard-response","299","497683","0.0-1.0-396.0","0","0","50898","","null","","","null","43","","","","","","","","","","","","","","","NaN",""
"","S1","","html-keyboard-response","300","497936","0.0-1.0-398.0","0","0","50898","","null","","","null","44","","","","","","","","","","","","","","","",""
"","ISI","","html-keyboard-response","301","499939","0.0-1.0-399.0","0","0","50898","","null","","","null","44","NaN","","","","","","","","","","","","","","",""
"","S2","","html-keyboard-response","302","500192","0.0-1.0-400.0","0","0","50898","","null","","","null","44","","NaN","","","","","","","","","","","","","",""
"","response","","html-keyboard-response","303","500259","0.0-1.0-401.0","0","0","50898","","66","","","68","44","","","1","44","training","adjacent","DC","4","3","Q.jpg","M.jpg","1","0","0","",""
"","feedback","","html-keyboard-response","304","501262","0.0-1.0-402.0-0.0","0","0","50898","","null","","","null","44","","","","","","","","","","","","","","","",""
"","time_out","","html-keyboard-response","305","503265","0.0-1.0-404.0-0.0","0","0","50898","","null","","","null","44","","","","","","","","","","","","","","","",""
"","ITI","","html-keyboard-response","306","504267","0.0-1.0-405.0","0","0","50898","","null","","","null","44","","","","","","","","","","","","","","","NaN",""
"","S1","","html-keyboard-response","307","504520","0.0-1.0-407.0","0","0","50898","","null","","","null","45","","","","","","","","","","","","","","","",""
"","ISI","","html-keyboard-response","308","506523","0.0-1.0-408.0","0","0","50898","","null","","","null","45","NaN","","","","","","","","","","","","","","",""
"","S2","","html-keyboard-response","309","506776","0.0-1.0-409.0","0","0","50898","","null","","","null","45","","NaN","","","","","","","","","","","","","",""
"","response","","html-keyboard-response","310","506971","0.0-1.0-410.0","0","0","50898","","193","","","75","45","","","1","45","training","adjacent","BC","2","3","R.jpg","M.jpg","0","1","0","",""
"","feedback","","html-keyboard-response","311","507973","0.0-1.0-411.0-0.0","0","0","50898","","null","","","null","45","","","","","","","","","","","","","","","",""
"","time_out","","html-keyboard-response","312","509976","0.0-1.0-413.0-0.0","0","0","50898","","null","","","null","45","","","","","","","","","","","","","","","",""
"","ITI","","html-keyboard-response","313","510979","0.0-1.0-414.0","0","0","50898","","null","","","null","45","","","","","","","","","","","","","","","NaN",""
"","S1","","html-keyboard-response","314","511231","0.0-1.0-416.0","0","0","50898","","null","","","null","46","","","","","","","","","","","","","","","",""
"","ISI","","html-keyboard-response","315","513234","0.0-1.0-417.0","0","0","50898","","706","","","68","46","d","","","","","","","","","","","","","","",""
"","S2","","html-keyboard-response","316","513487","0.0-1.0-418.0","0","0","50898","","239","","","68","46","","d","","","","","","","","","","","","","",""
"","response","","html-keyboard-response","317","515504","0.0-1.0-419.0","0","0","50898","","null","","","null","46","","","1","46","training","adjacent","DC","4","3","Q.jpg","M.jpg","NaN","0","0","",""
"","too_slow_prompt","","html-keyboard-response","318","516506","0.0-1.0-421.0-0.0","1","0","50898","","null","","","null","","","","","","","","","","","","","","","","",""
"","time_out","","html-keyboard-response","319","518509","0.0-1.0-422.0-0.0","0","0","50898","","null","","","null","46","","","","","","","","","","","","","","","",""
"","ITI","","html-keyboard-response","320","519513","0.0-1.0-423.0","0","0","50898","","null","","","null","46","","","","","","","","","","","","","","","NaN",""
"","S1","","html-keyboard-response","321","519766","0.0-1.0-425.0","0","0","50898","","null","","","null","47","","","","","","","","","","","","","","","",""
"","ISI","","html-keyboard-response","322","521768","0.0-1.0-426.0","0","0","50898","","null","","","null","47","NaN","","","","","","","","","","","","","","",""
"","S2","","html-keyboard-response","323","522020","0.0-1.0-427.0","0","0","50898","","249","","","75","47","","k","","","","","","","","","","","","","",""
"","response","","html-keyboard-response","324","522731","0.0-1.0-428.0","0","0","50898","","710","","","75","47","","","1","47","training","adjacent","CB","3","2","M.jpg","R.jpg","0","0","1","",""
"","feedback","","html-keyboard-response","325","523733","0.0-1.0-429.0-0.0","0","0","50898","","null","","","null","47","","","","","","","","","","","","","","","",""
"","ITI","","html-keyboard-response","326","524735","0.0-1.0-432.0","0","0","50898","","null","","","null","47","","","","","","","","","","","","","","","NaN",""
"","block_over","","html-keyboard-response","327","613738","0.0-1.0-433.0-0.0","0","0","50898","","89001","","","32","47","","","","","","","","","","","","","","","",""
"","S1","","html-keyboard-response","328","613991","0.0-1.0-434.0","0","0","50898","","null","","","null","48","","","","","","","","","","","","","","","",""
"","ISI","","html-keyboard-response","329","615994","0.0-1.0-435.0","0","0","50898","","null","","","null","48","NaN","","","","","","","","","","","","","","",""
"","S2","","html-keyboard-response","330","616246","0.0-1.0-436.0","0","0","50898","","null","","","null","48","","NaN","","","","","","","","","","","","","",""
"","response","","html-keyboard-response","331","617298","0.0-1.0-437.0","0","0","50898","","1050","","","68","48","","","2","48","training","adjacent","ED","5","4","P.jpg","Q.jpg","1","0","0","",""
"","feedback","","html-keyboard-response","332","618301","0.0-1.0-438.0-0.0","0","0","50898","","null","","","null","48","","","","","","","","","","","","","","","",""
"","time_out","","html-keyboard-response","333","620304","0.0-1.0-440.0-0.0","0","0","50898","","null","","","null","48","","","","","","","","","","","","","","","",""
"","ITI","","html-keyboard-response","334","621307","0.0-1.0-441.0","0","0","50898","","null","","","null","48","","","","","","","","","","","","","","","NaN",""
"","S1","","html-keyboard-response","335","621560","0.0-1.0-443.0","0","0","50898","","null","","","null","49","","","","","","","","","","","","","","","",""
"","ISI","","html-keyboard-response","336","623562","0.0-1.0-444.0","0","0","50898","","null","","","null","49","NaN","","","","","","","","","","","","","","",""
"","S2","","html-keyboard-response","337","623815","0.0-1.0-445.0","0","0","50898","","null","","","null","49","","NaN","","","","","","","","","","","","","",""
"","response","","html-keyboard-response","338","624162","0.0-1.0-446.0","0","0","50898","","345","","","75","49","","","2","49","training","adjacent","EF","5","6","P.jpg","O.jpg","0","1","0","",""
"","feedback","","html-keyboard-response","339","625165","0.0-1.0-447.0-0.0","0","0","50898","","null","","","null","49","","","","","","","","","","","","","","","",""
"","time_out","","html-keyboard-response","340","627168","0.0-1.0-449.0-0.0","0","0","50898","","null","","","null","49","","","","","","","","","","","","","","","",""
"","ITI","","html-keyboard-response","341","628171","0.0-1.0-450.0","0","0","50898","","null","","","null","49","","","","","","","","","","","","","","","NaN",""
"","S1","","html-keyboard-response","342","628424","0.0-1.0-452.0","0","0","50898","","null","","","null","50","","","","","","","","","","","","","","","",""
"","ISI","","html-keyboard-response","343","630426","0.0-1.0-453.0","0","0","50898","","null","","","null","50","NaN","","","","","","","","","","","","","","",""
"","S2","","html-keyboard-response","344","630679","0.0-1.0-454.0","0","0","50898","","null","","","null","50","","NaN","","","","","","","","","","","","","",""
"","response","","html-keyboard-response","345","631322","0.0-1.0-455.0","0","0","50898","","641","","","68","50","","","2","50","training","adjacent","ED","5","4","P.jpg","Q.jpg","1","0","0","",""
"","feedback","","html-keyboard-response","346","632328","0.0-1.0-456.0-0.0","0","0","50898","","null","","","null","50","","","","","","","","","","","","","","","",""
"","time_out","","html-keyboard-response","347","634331","0.0-1.0-458.0-0.0","0","0","50898","","null","","","null","50","","","","","","","","","","","","","","","",""
"","ITI","","html-keyboard-response","348","635334","0.0-1.0-459.0","0","0","50898","","null","","","null","50","","","","","","","","","","","","","","","NaN",""
"","S1","","html-keyboard-response","349","635586","0.0-1.0-461.0","0","0","50898","","null","","","null","51","","","","","","","","","","","","","","","",""
"","ISI","","html-keyboard-response","350","637589","0.0-1.0-462.0","0","0","50898","","null","","","null","51","NaN","","","","","","","","","","","","","","",""
"","S2","","html-keyboard-response","351","637844","0.0-1.0-463.0","0","0","50898","","null","","","null","51","","NaN","","","","","","","","","","","","","",""
"","response","","html-keyboard-response","352","638098","0.0-1.0-464.0","0","0","50898","","253","","","68","51","","","2","51","training","adjacent","GF","7","6","L.jpg","O.jpg","1","0","0","",""
"","feedback","","html-keyboard-response","353","639100","0.0-1.0-465.0-0.0","0","0","50898","","null","","","null","51","","","","","","","","","","","","","","","",""
"","time_out","","html-keyboard-response","354","641103","0.0-1.0-467.0-0.0","0","0","50898","","null","","","null","51","","","","","","","","","","","","","","","",""
"","ITI","","html-keyboard-response","355","642115","0.0-1.0-468.0","0","0","50898","","null","","","null","51","","","","","","","","","","","","","","","NaN",""
"","S1","","html-keyboard-response","356","642369","0.0-1.0-470.0","0","0","50898","","null","","","null","52","","","","","","","","","","","","","","","",""
"","ISI","","html-keyboard-response","357","644371","0.0-1.0-471.0","0","0","50898","","null","","","null","52","NaN","","","","","","","","","","","","","","",""
"","S2","","html-keyboard-response","358","644624","0.0-1.0-472.0","0","0","50898","","null","","","null","52","","NaN","","","","","","","","","","","","","",""
"","response","","html-keyboard-response","359","644898","0.0-1.0-473.0","0","0","50898","","273","","","75","52","","","2","52","training","adjacent","BA","2","1","R.jpg","N.jpg","0","0","1","",""
"","feedback","","html-keyboard-response","360","645902","0.0-1.0-474.0-0.0","0","0","50898","","null","","","null","52","","","","","","","","","","","","","","","",""
"","ITI","","html-keyboard-response","361","646905","0.0-1.0-477.0","0","0","50898","","null","","","null","52","","","","","","","","","","","","","","","NaN",""
"","S1","","html-keyboard-response","362","647159","0.0-1.0-479.0","0","0","50898","","null","","","null","53","","","","","","","","","","","","","","","",""
"","ISI","","html-keyboard-response","363","649161","0.0-1.0-480.0","0","0","50898","","null","","","null","53","NaN","","","","","","","","","","","","","","",""
"","S2","","html-keyboard-response","364","649414","0.0-1.0-481.0","0","0","50898","","null","","","null","53","","NaN","","","","","","","","","","","","","",""
"","response","","html-keyboard-response","365","649690","0.0-1.0-482.0","0","0","50898","","274","","","75","53","","","2","53","training","adjacent","AB","1","2","N.jpg","R.jpg","0","1","0","",""
"","feedback","","html-keyboard-response","366","650693","0.0-1.0-483.0-0.0","0","0","50898","","null","","","null","53","","","","","","","","","","","","","","","",""
"","time_out","","html-keyboard-response","367","652695","0.0-1.0-485.0-0.0","0","0","50898","","null","","","null","53","","","","","","","","","","","","","","","",""
"","ITI","","html-keyboard-response","368","653698","0.0-1.0-486.0","0","0","50898","","null","","","null","53","","","","","","","","","","","","","","","NaN",""
"","S1","","html-keyboard-response","369","653951","0.0-1.0-488.0","0","0","50898","","null","","","null","54","","","","","","","","","","","","","","","",""
"","ISI","","html-keyboard-response","370","655953","0.0-1.0-489.0","0","0","50898","","178","","","68","54","d","","","","","","","","","","","","","","",""
"","S2","","html-keyboard-response","371","656207","0.0-1.0-490.0","0","0","50898","","null","","","null","54","","NaN","","","","","","","","","","","","","",""
"","response","","html-keyboard-response","372","656922","0.0-1.0-491.0","0","0","50898","","714","","","75","54","","","2","54","training","adjacent","FE","6","5","O.jpg","P.jpg","0","0","1","",""
"","feedback","","html-keyboard-response","373","657924","0.0-1.0-492.0-0.0","0","0","50898","","null","","","null","54","","","","","","","","","","","","","","","",""
"","ITI","","html-keyboard-response","374","658927","0.0-1.0-495.0","0","0","50898","","null","","","null","54","","","","","","","","","","","","","","","NaN",""
"","S1","","html-keyboard-response","375","659180","0.0-1.0-497.0","0","0","50898","","null","","","null","55","","","","","","","","","","","","","","","",""
"","ISI","","html-keyboard-response","376","661182","0.0-1.0-498.0","0","0","50898","","null","","","null","55","NaN","","","","","","","","","","","","","","",""
"","S2","","html-keyboard-response","377","661435","0.0-1.0-499.0","0","0","50898","","null","","","null","55","","NaN","","","","","","","","","","","","","",""
"","response","","html-keyboard-response","378","662938","0.0-1.0-500.0","0","0","50898","","1501","","","75","55","","","2","55","training","adjacent","DC","4","3","Q.jpg","M.jpg","0","0","1","",""
"","feedback","","html-keyboard-response","379","663951","0.0-1.0-501.0-0.0","0","0","50898","","null","","","null","55","","","","","","","","","","","","","","","",""
"","ITI","","html-keyboard-response","380","664953","0.0-1.0-504.0","0","0","50898","","null","","","null","55","","","","","","","","","","","","","","","NaN",""
"","S1","","html-keyboard-response","381","665206","0.0-1.0-506.0","0","0","50898","","null","","","null","56","","","","","","","","","","","","","","","",""
"","ISI","","html-keyboard-response","382","667209","0.0-1.0-507.0","0","0","50898","","null","","","null","56","NaN","","","","","","","","","","","","","","",""
"","S2","","html-keyboard-response","383","667462","0.0-1.0-508.0","0","0","50898","","null","","","null","56","","NaN","","","","","","","","","","","","","",""
"","response","","html-keyboard-response","384","667714","0.0-1.0-509.0","0","0","50898","","250","","","68","56","","","2","56","training","adjacent","FG","6","7","O.jpg","L.jpg","1","1","1","",""
"","feedback","","html-keyboard-response","385","668716","0.0-1.0-510.0-0.0","0","0","50898","","null","","","null","56","","","","","","","","","","","","","","","",""
"","ITI","","html-keyboard-response","386","669719","0.0-1.0-513.0","0","0","50898","","null","","","null","56","","","","","","","","","","","","","","","NaN",""
"","S1","","html-keyboard-response","387","669972","0.0-1.0-515.0","0","0","50898","","null","","","null","57","","","","","","","","","","","","","","","",""
"","ISI","","html-keyboard-response","388","671974","0.0-1.0-516.0","0","0","50898","","null","","","null","57","NaN","","","","","","","","","","","","","","",""
"","S2","","html-keyboard-response","389","672227","0.0-1.0-517.0","0","0","50898","","null","","","null","57","","NaN","","","","","","","","","","","","","",""
"","response","","html-keyboard-response","390","672458","0.0-1.0-518.0","0","0","50898","","229","","","68","57","","","2","57","training","adjacent","FE","6","5","O.jpg","P.jpg","1","0","0","",""
"","feedback","","html-keyboard-response","391","673460","0.0-1.0-519.0-0.0","0","0","50898","","null","","","null","57","","","","","","","","","","","","","","","",""
"","time_out","","html-keyboard-response","392","675463","0.0-1.0-521.0-0.0","0","0","50898","","null","","","null","57","","","","","","","","","","","","","","","",""
"","ITI","","html-keyboard-response","393","676477","0.0-1.0-522.0","0","0","50898","","null","","","null","57","","","","","","","","","","","","","","","NaN",""
"","S1","","html-keyboard-response","394","676730","0.0-1.0-524.0","0","0","50898","","null","","","null","58","","","","","","","","","","","","","","","",""
"","ISI","","html-keyboard-response","395","678733","0.0-1.0-525.0","0","0","50898","","null","","","null","58","NaN","","","","","","","","","","","","","","",""
"","S2","","html-keyboard-response","396","678986","0.0-1.0-526.0","0","0","50898","","null","","","null","58","","NaN","","","","","","","","","","","","","",""
"","response","","html-keyboard-response","397","679193","0.0-1.0-527.0","0","0","50898","","206","","","75","58","","","2","58","training","adjacent","BC","2","3","R.jpg","M.jpg","0","1","0","",""
"","feedback","","html-keyboard-response","398","680196","0.0-1.0-528.0-0.0","0","0","50898","","null","","","null","58","","","","","","","","","","","","","","","",""
"","time_out","","html-keyboard-response","399","682199","0.0-1.0-530.0-0.0","0","0","50898","","null","","","null","58","","","","","","","","","","","","","","","",""
"","ITI","","html-keyboard-response","400","683201","0.0-1.0-531.0","0","0","50898","","null","","","null","58","","","","","","","","","","","","","","","NaN",""
"","S1","","html-keyboard-response","401","683454","0.0-1.0-533.0","0","0","50898","","null","","","null","59","","","","","","","","","","","","","","","",""
"","ISI","","html-keyboard-response","402","685457","0.0-1.0-534.0","0","0","50898","","null","","","null","59","NaN","","","","","","","","","","","","","","",""
"","S2","","html-keyboard-response","403","685710","0.0-1.0-535.0","0","0","50898","","null","","","null","59","","NaN","","","","","","","","","","","","","",""
"","response","","html-keyboard-response","404","686457","0.0-1.0-536.0","0","0","50898","","746","","","68","59","","","2","59","training","adjacent","CD","3","4","M.jpg","Q.jpg","1","1","1","",""
"","feedback","","html-keyboard-response","405","687460","0.0-1.0-537.0-0.0","0","0","50898","","null","","","null","59","","","","","","","","","","","","","","","",""
"","ITI","","html-keyboard-response","406","688462","0.0-1.0-540.0","0","0","50898","","null","","","null","59","","","","","","","","","","","","","","","NaN",""
"","S1","","html-keyboard-response","407","688715","0.0-1.0-542.0","0","0","50898","","null","","","null","60","","","","","","","","","","","","","","","",""
"","ISI","","html-keyboard-response","408","690718","0.0-1.0-543.0","0","0","50898","","null","","","null","60","NaN","","","","","","","","","","","","","","",""
"","S2","","html-keyboard-response","409","690971","0.0-1.0-544.0","0","0","50898","","null","","","null","60","","NaN","","","","","","","","","","","","","",""
"","response","","html-keyboard-response","410","691913","0.0-1.0-545.0","0","0","50898","","941","","","75","60","","","2","60","training","adjacent","BA","2","1","R.jpg","N.jpg","0","0","1","",""
"","feedback","","html-keyboard-response","411","692916","0.0-1.0-546.0-0.0","0","0","50898","","null","","","null","60","","","","","","","","","","","","","","","",""
"","ITI","","html-keyboard-response","412","693919","0.0-1.0-549.0","0","0","50898","","null","","","null","60","","","","","","","","","","","","","","","NaN",""
"","S1","","html-keyboard-response","413","694172","0.0-1.0-551.0","0","0","50898","","null","","","null","61","","","","","","","","","","","","","","","",""
"","ISI","","html-keyboard-response","414","696175","0.0-1.0-552.0","0","0","50898","","null","","","null","61","NaN","","","","","","","","","","","","","","",""
"","S2","","html-keyboard-response","415","696428","0.0-1.0-553.0","0","0","50898","","null","","","null","61","","NaN","","","","","","","","","","","","","",""
"","response","","html-keyboard-response","416","697185","0.0-1.0-554.0","0","0","50898","","756","","","68","61","","","2","61","training","adjacent","ED","5","4","P.jpg","Q.jpg","1","0","0","",""
"","feedback","","html-keyboard-response","417","698188","0.0-1.0-555.0-0.0","0","0","50898","","null","","","null","61","","","","","","","","","","","","","","","",""
"","time_out","","html-keyboard-response","418","700190","0.0-1.0-557.0-0.0","0","0","50898","","null","","","null","61","","","","","","","","","","","","","","","",""
"","ITI","","html-keyboard-response","419","701193","0.0-1.0-558.0","0","0","50898","","null","","","null","61","","","","","","","","","","","","","","","NaN",""
"","S1","","html-keyboard-response","420","701446","0.0-1.0-560.0","0","0","50898","","null","","","null","62","","","","","","","","","","","","","","","",""
"","ISI","","html-keyboard-response","421","703449","0.0-1.0-561.0","0","0","50898","","null","","","null","62","NaN","","","","","","","","","","","","","","",""
"","S2","","html-keyboard-response","422","703701","0.0-1.0-562.0","0","0","50898","","null","","","null","62","","NaN","","","","","","","","","","","","","",""
"","response","","html-keyboard-response","423","703769","0.0-1.0-563.0","0","0","50898","","66","","","68","62","","","2","62","training","adjacent","CD","3","4","M.jpg","Q.jpg","1","1","1","",""
"","feedback","","html-keyboard-response","424","704772","0.0-1.0-564.0-0.0","0","0","50898","","null","","","null","62","","","","","","","","","","","","","","","",""
"","ITI","","html-keyboard-response","425","705775","0.0-1.0-567.0","0","0","50898","","null","","","null","62","","","","","","","","","","","","","","","NaN",""
"","S1","","html-keyboard-response","426","706028","0.0-1.0-569.0","0","0","50898","","null","","","null","63","","","","","","","","","","","","","","","",""
"","ISI","","html-keyboard-response","427","708031","0.0-1.0-570.0","0","0","50898","","null","","","null","63","NaN","","","","","","","","","","","","","","",""
"","S2","","html-keyboard-response","428","708284","0.0-1.0-571.0","0","0","50898","","null","","","null","63","","NaN","","","","","","","","","","","","","",""
"","response","","html-keyboard-response","429","708609","0.0-1.0-572.0","0","0","50898","","324","","","75","63","","","2","63","training","adjacent","CD","3","4","M.jpg","Q.jpg","0","1","0","",""
"","feedback","","html-keyboard-response","430","709612","0.0-1.0-573.0-0.0","0","0","50898","","null","","","null","63","","","","","","","","","","","","","","","",""
"","time_out","","html-keyboard-response","431","711615","0.0-1.0-575.0-0.0","0","0","50898","","null","","","null","63","","","","","","","","","","","","","","","",""
"","ITI","","html-keyboard-response","432","712617","0.0-1.0-576.0","0","0","50898","","null","","","null","63","","","","","","","","","","","","","","","NaN",""
"","S1","","html-keyboard-response","433","712870","0.0-1.0-578.0","0","0","50898","","null","","","null","64","","","","","","","","","","","","","","","",""
"","ISI","","html-keyboard-response","434","714873","0.0-1.0-579.0","0","0","50898","","null","","","null","64","NaN","","","","","","","","","","","","","","",""
"","S2","","html-keyboard-response","435","715126","0.0-1.0-580.0","0","0","50898","","null","","","null","64","","NaN","","","","","","","","","","","","","",""
"","response","","html-keyboard-response","436","715585","0.0-1.0-581.0","0","0","50898","","458","","","75","64","","","2","64","training","adjacent","DE","4","5","Q.jpg","P.jpg","0","1","0","",""
"","feedback","","html-keyboard-response","437","716588","0.0-1.0-582.0-0.0","0","0","50898","","null","","","null","64","","","","","","","","","","","","","","","",""
"","time_out","","html-keyboard-response","438","718590","0.0-1.0-584.0-0.0","0","0","50898","","null","","","null","64","","","","","","","","","","","","","","","",""
"","ITI","","html-keyboard-response","439","719592","0.0-1.0-585.0","0","0","50898","","null","","","null","64","","","","","","","","","","","","","","","NaN",""
"","S1","","html-keyboard-response","440","719845","0.0-1.0-587.0","0","0","50898","","null","","","null","65","","","","","","","","","","","","","","","",""
"","ISI","","html-keyboard-response","441","721848","0.0-1.0-588.0","0","0","50898","","null","","","null","65","NaN","","","","","","","","","","","","","","",""
"","S2","","html-keyboard-response","442","722101","0.0-1.0-589.0","0","0","50898","","null","","","null","65","","NaN","","","","","","","","","","","","","",""
"","response","","html-keyboard-response","443","722273","0.0-1.0-590.0","0","0","50898","","171","","","75","65","","","2","65","training","adjacent","FG","6","7","O.jpg","L.jpg","0","1","0","",""
"","feedback","","html-keyboard-response","444","723275","0.0-1.0-591.0-0.0","0","0","50898","","null","","","null","65","","","","","","","","","","","","","","","",""
"","time_out","","html-keyboard-response","445","725278","0.0-1.0-593.0-0.0","0","0","50898","","null","","","null","65","","","","","","","","","","","","","","","",""
"","ITI","","html-keyboard-response","446","726281","0.0-1.0-594.0","0","0","50898","","null","","","null","65","","","","","","","","","","","","","","","NaN",""
"","S1","","html-keyboard-response","447","726533","0.0-1.0-596.0","0","0","50898","","null","","","null","66","","","","","","","","","","","","","","","",""
"","ISI","","html-keyboard-response","448","728536","0.0-1.0-597.0","0","0","50898","","498","","","68","66","d","","","","","","","","","","","","","","",""
"","S2","","html-keyboard-response","449","728789","0.0-1.0-598.0","0","0","50898","","null","","","null","66","","NaN","","","","","","","","","","","","","",""
"","response","","html-keyboard-response","450","729521","0.0-1.0-599.0","0","0","50898","","730","","","68","66","","","2","66","training","adjacent","EF","5","6","P.jpg","O.jpg","1","1","1","",""
"","feedback","","html-keyboard-response","451","730523","0.0-1.0-600.0-0.0","0","0","50898","","null","","","null","66","","","","","","","","","","","","","","","",""
"","ITI","","html-keyboard-response","452","731525","0.0-1.0-603.0","0","0","50898","","null","","","null","66","","","","","","","","","","","","","","","NaN",""
"","S1","","html-keyboard-response","453","731778","0.0-1.0-605.0","0","0","50898","","null","","","null","67","","","","","","","","","","","","","","","",""
"","ISI","","html-keyboard-response","454","733781","0.0-1.0-606.0","0","0","50898","","1685","","","68","67","d","","","","","","","","","","","","","","",""
"","S2","","html-keyboard-response","455","734035","0.0-1.0-607.0","0","0","50898","","null","","","null","67","","NaN","","","","","","","","","","","","","",""
"","response","","html-keyboard-response","456","734514","0.0-1.0-608.0","0","0","50898","","477","","","68","67","","","2","67","training","adjacent","FE","6","5","O.jpg","P.jpg","1","0","0","",""
"","feedback","","html-keyboard-response","457","735517","0.0-1.0-609.0-0.0","0","0","50898","","null","","","null","67","","","","","","","","","","","","","","","",""
"","time_out","","html-keyboard-response","458","737520","0.0-1.0-611.0-0.0","0","0","50898","","null","","","null","67","","","","","","","","","","","","","","","",""
"","ITI","","html-keyboard-response","459","738522","0.0-1.0-612.0","0","0","50898","","null","","","null","67","","","","","","","","","","","","","","","NaN",""
"","S1","","html-keyboard-response","460","738775","0.0-1.0-614.0","0","0","50898","","null","","","null","68","","","","","","","","","","","","","","","",""
"","ISI","","html-keyboard-response","461","740778","0.0-1.0-615.0","0","0","50898","","null","","","null","68","NaN","","","","","","","","","","","","","","",""
"","S2","","html-keyboard-response","462","741031","0.0-1.0-616.0","0","0","50898","","null","","","null","68","","NaN","","","","","","","","","","","","","",""
"","response","","html-keyboard-response","463","741506","0.0-1.0-617.0","0","0","50898","","473","","","75","68","","","2","68","training","adjacent","BA","2","1","R.jpg","N.jpg","0","0","1","",""
"","feedback","","html-keyboard-response","464","742509","0.0-1.0-618.0-0.0","0","0","50898","","null","","","null","68","","","","","","","","","","","","","","","",""
"","ITI","","html-keyboard-response","465","743512","0.0-1.0-621.0","0","0","50898","","null","","","null","68","","","","","","","","","","","","","","","NaN",""
"","S1","","html-keyboard-response","466","743765","0.0-1.0-623.0","0","0","50898","","null","","","null","69","","","","","","","","","","","","","","","",""
"","ISI","","html-keyboard-response","467","745768","0.0-1.0-624.0","0","0","50898","","null","","","null","69","NaN","","","","","","","","","","","","","","",""
"","S2","","html-keyboard-response","468","746021","0.0-1.0-625.0","0","0","50898","","null","","","null","69","","NaN","","","","","","","","","","","","","",""
"","response","","html-keyboard-response","469","746594","0.0-1.0-626.0","0","0","50898","","570","","","75","69","","","2","69","training","adjacent","DE","4","5","Q.jpg","P.jpg","0","1","0","",""
"","feedback","","html-keyboard-response","470","747596","0.0-1.0-627.0-0.0","0","0","50898","","null","","","null","69","","","","","","","","","","","","","","","",""
"","time_out","","html-keyboard-response","471","749598","0.0-1.0-629.0-0.0","0","0","50898","","null","","","null","69","","","","","","","","","","","","","","","",""
"","ITI","","html-keyboard-response","472","750601","0.0-1.0-630.0","0","0","50898","","null","","","null","69","","","","","","","","","","","","","","","NaN",""
"","S1","","html-keyboard-response","473","750853","0.0-1.0-632.0","0","0","50898","","null","","","null","70","","","","","","","","","","","","","","","",""
"","ISI","","html-keyboard-response","474","752856","0.0-1.0-633.0","0","0","50898","","null","","","null","70","NaN","","","","","","","","","","","","","","",""
"","S2","","html-keyboard-response","475","753109","0.0-1.0-634.0","0","0","50898","","null","","","null","70","","NaN","","","","","","","","","","","","","",""
"","response","","html-keyboard-response","476","753826","0.0-1.0-635.0","0","0","50898","","716","","","75","70","","","2","70","training","adjacent","DC","4","3","Q.jpg","M.jpg","0","0","1","",""
"","feedback","","html-keyboard-response","477","754829","0.0-1.0-636.0-0.0","0","0","50898","","null","","","null","70","","","","","","","","","","","","","","","",""
"","ITI","","html-keyboard-response","478","755832","0.0-1.0-639.0","0","0","50898","","null","","","null","70","","","","","","","","","","","","","","","NaN",""
"","S1","","html-keyboard-response","479","756085","0.0-1.0-641.0","0","0","50898","","null","","","null","71","","","","","","","","","","","","","","","",""
"","ISI","","html-keyboard-response","480","758088","0.0-1.0-642.0","0","0","50898","","null","","","null","71","NaN","","","","","","","","","","","","","","",""
"","S2","","html-keyboard-response","481","758341","0.0-1.0-643.0","0","0","50898","","null","","","null","71","","NaN","","","","","","","","","","","","","",""
"","response","","html-keyboard-response","482","758857","0.0-1.0-644.0","0","0","50898","","515","","","75","71","","","2","71","training","adjacent","CB","3","2","M.jpg","R.jpg","0","0","1","",""
"","feedback","","html-keyboard-response","483","759860","0.0-1.0-645.0-0.0","0","0","50898","","null","","","null","71","","","","","","","","","","","","","","","",""
"","ITI","","html-keyboard-response","484","760863","0.0-1.0-648.0","0","0","50898","","null","","","null","71","","","","","","","","","","","","","","","NaN",""
"","S1","","html-keyboard-response","485","761116","0.0-1.0-650.0","0","0","50898","","null","","","null","72","","","","","","","","","","","","","","","",""
"","ISI","","html-keyboard-response","486","763118","0.0-1.0-651.0","0","0","50898","","null","","","null","72","NaN","","","","","","","","","","","","","","",""
"","S2","","html-keyboard-response","487","763371","0.0-1.0-652.0","0","0","50898","","null","","","null","72","","NaN","","","","","","","","","","","","","",""
"","response","","html-keyboard-response","488","764186","0.0-1.0-653.0","0","0","50898","","813","","","75","72","","","2","72","training","adjacent","CD","3","4","M.jpg","Q.jpg","0","1","0","",""
"","feedback","","html-keyboard-response","489","765189","0.0-1.0-654.0-0.0","0","0","50898","","null","","","null","72","","","","","","","","","","","","","","","",""
"","time_out","","html-keyboard-response","490","767192","0.0-1.0-656.0-0.0","0","0","50898","","null","","","null","72","","","","","","","","","","","","","","","",""
"","ITI","","html-keyboard-response","491","768195","0.0-1.0-657.0","0","0","50898","","null","","","null","72","","","","","","","","","","","","","","","NaN",""
"","S1","","html-keyboard-response","492","768448","0.0-1.0-659.0","0","0","50898","","null","","","null","73","","","","","","","","","","","","","","","",""
"","ISI","","html-keyboard-response","493","770451","0.0-1.0-660.0","0","0","50898","","null","","","null","73","NaN","","","","","","","","","","","","","","",""
"","S2","","html-keyboard-response","494","770704","0.0-1.0-661.0","0","0","50898","","null","","","null","73","","NaN","","","","","","","","","","","","","",""
"","response","","html-keyboard-response","495","771337","0.0-1.0-662.0","0","0","50898","","632","","","75","73","","","2","73","training","adjacent","BA","2","1","R.jpg","N.jpg","0","0","1","",""
"","feedback","","html-keyboard-response","496","772341","0.0-1.0-663.0-0.0","0","0","50898","","null","","","null","73","","","","","","","","","","","","","","","",""
"","ITI","","html-keyboard-response","497","773343","0.0-1.0-666.0","0","0","50898","","null","","","null","73","","","","","","","","","","","","","","","NaN",""
"","S1","","html-keyboard-response","498","773596","0.0-1.0-668.0","0","0","50898","","null","","","null","74","","","","","","","","","","","","","","","",""
"","ISI","","html-keyboard-response","499","775599","0.0-1.0-669.0","0","0","50898","","null","","","null","74","NaN","","","","","","","","","","","","","","",""
"","S2","","html-keyboard-response","500","775852","0.0-1.0-670.0","0","0","50898","","null","","","null","74","","NaN","","","","","","","","","","","","","",""
"","response","","html-keyboard-response","501","776274","0.0-1.0-671.0","0","0","50898","","421","","","75","74","","","2","74","training","adjacent","EF","5","6","P.jpg","O.jpg","0","1","0","",""
"","feedback","","html-keyboard-response","502","777276","0.0-1.0-672.0-0.0","0","0","50898","","null","","","null","74","","","","","","","","","","","","","","","",""
"","time_out","","html-keyboard-response","503","779279","0.0-1.0-674.0-0.0","0","0","50898","","null","","","null","74","","","","","","","","","","","","","","","",""
"","ITI","","html-keyboard-response","504","780281","0.0-1.0-675.0","0","0","50898","","null","","","null","74","","","","","","","","","","","","","","","NaN",""
"","S1","","html-keyboard-response","505","780534","0.0-1.0-677.0","0","0","50898","","null","","","null","75","","","","","","","","","","","","","","","",""
"","ISI","","html-keyboard-response","506","782537","0.0-1.0-678.0","0","0","50898","","null","","","null","75","NaN","","","","","","","","","","","","","","",""
"","S2","","html-keyboard-response","507","782790","0.0-1.0-679.0","0","0","50898","","null","","","null","75","","NaN","","","","","","","","","","","","","",""
"","response","","html-keyboard-response","508","783889","0.0-1.0-680.0","0","0","50898","","1098","","","68","75","","","2","75","training","adjacent","GF","7","6","L.jpg","O.jpg","1","0","0","",""
"","feedback","","html-keyboard-response","509","784893","0.0-1.0-681.0-0.0","0","0","50898","","null","","","null","75","","","","","","","","","","","","","","","",""
"","time_out","","html-keyboard-response","510","786896","0.0-1.0-683.0-0.0","0","0","50898","","null","","","null","75","","","","","","","","","","","","","","","",""
"","ITI","","html-keyboard-response","511","787899","0.0-1.0-684.0","0","0","50898","","null","","","null","75","","","","","","","","","","","","","","","NaN",""
"","S1","","html-keyboard-response","512","788152","0.0-1.0-686.0","0","0","50898","","null","","","null","76","","","","","","","","","","","","","","","",""
"","ISI","","html-keyboard-response","513","790155","0.0-1.0-687.0","0","0","50898","","null","","","null","76","NaN","","","","","","","","","","","","","","",""
"","S2","","html-keyboard-response","514","790408","0.0-1.0-688.0","0","0","50898","","null","","","null","76","","NaN","","","","","","","","","","","","","",""
"","response","","html-keyboard-response","515","790786","0.0-1.0-689.0","0","0","50898","","376","","","75","76","","","2","76","training","adjacent","DE","4","5","Q.jpg","P.jpg","0","1","0","",""
"","feedback","","html-keyboard-response","516","791789","0.0-1.0-690.0-0.0","0","0","50898","","null","","","null","76","","","","","","","","","","","","","","","",""
"","time_out","","html-keyboard-response","517","793791","0.0-1.0-692.0-0.0","0","0","50898","","null","","","null","76","","","","","","","","","","","","","","","",""
"","ITI","","html-keyboard-response","518","794794","0.0-1.0-693.0","0","0","50898","","null","","","null","76","","","","","","","","","","","","","","","NaN",""
"","S1","","html-keyboard-response","519","795048","0.0-1.0-695.0","0","0","50898","","null","","","null","77","","","","","","","","","","","","","","","",""
"","ISI","","html-keyboard-response","520","797050","0.0-1.0-696.0","0","0","50898","","null","","","null","77","NaN","","","","","","","","","","","","","","",""
"","S2","","html-keyboard-response","521","797303","0.0-1.0-697.0","0","0","50898","","null","","","null","77","","NaN","","","","","","","","","","","","","",""
"","response","","html-keyboard-response","522","797680","0.0-1.0-698.0","0","0","50898","","376","","","68","77","","","2","77","training","adjacent","DC","4","3","Q.jpg","M.jpg","1","0","0","",""
"","feedback","","html-keyboard-response","523","798683","0.0-1.0-699.0-0.0","0","0","50898","","null","","","null","77","","","","","","","","","","","","","","","",""
"","time_out","","html-keyboard-response","524","800686","0.0-1.0-701.0-0.0","0","0","50898","","null","","","null","77","","","","","","","","","","","","","","","",""
"","ITI","","html-keyboard-response","525","801688","0.0-1.0-702.0","0","0","50898","","null","","","null","77","","","","","","","","","","","","","","","NaN",""
"","S1","","html-keyboard-response","526","801941","0.0-1.0-704.0","0","0","50898","","null","","","null","78","","","","","","","","","","","","","","","",""
"","ISI","","html-keyboard-response","527","803944","0.0-1.0-705.0","0","0","50898","","null","","","null","78","NaN","","","","","","","","","","","","","","",""
"","S2","","html-keyboard-response","528","804197","0.0-1.0-706.0","0","0","50898","","null","","","null","78","","NaN","","","","","","","","","","","","","",""
"","response","","html-keyboard-response","529","804593","0.0-1.0-707.0","0","0","50898","","395","","","75","78","","","2","78","training","adjacent","BC","2","3","R.jpg","M.jpg","0","1","0","",""
"","feedback","","html-keyboard-response","530","805596","0.0-1.0-708.0-0.0","0","0","50898","","null","","","null","78","","","","","","","","","","","","","","","",""
"","time_out","","html-keyboard-response","531","807599","0.0-1.0-710.0-0.0","0","0","50898","","null","","","null","78","","","","","","","","","","","","","","","",""
"","ITI","","html-keyboard-response","532","808601","0.0-1.0-711.0","0","0","50898","","null","","","null","78","","","","","","","","","","","","","","","NaN",""
"","S1","","html-keyboard-response","533","808854","0.0-1.0-713.0","0","0","50898","","null","","","null","79","","","","","","","","","","","","","","","",""
"","ISI","","html-keyboard-response","534","810857","0.0-1.0-714.0","0","0","50898","","161","","","68","79","d","","","","","","","","","","","","","","",""
"","S2","","html-keyboard-response","535","811110","0.0-1.0-715.0","0","0","50898","","null","","","null","79","","NaN","","","","","","","","","","","","","",""
"","response","","html-keyboard-response","536","811424","0.0-1.0-716.0","0","0","50898","","313","","","75","79","","","2","79","training","adjacent","GF","7","6","L.jpg","O.jpg","0","0","1","",""
"","feedback","","html-keyboard-response","537","812427","0.0-1.0-717.0-0.0","0","0","50898","","null","","","null","79","","","","","","","","","","","","","","","",""
"","ITI","","html-keyboard-response","538","813429","0.0-1.0-720.0","0","0","50898","","null","","","null","79","","","","","","","","","","","","","","","NaN",""
"","S1","","html-keyboard-response","539","813682","0.0-1.0-722.0","0","0","50898","","null","","","null","80","","","","","","","","","","","","","","","",""
"","ISI","","html-keyboard-response","540","815685","0.0-1.0-723.0","0","0","50898","","null","","","null","80","NaN","","","","","","","","","","","","","","",""
"","S2","","html-keyboard-response","541","815938","0.0-1.0-724.0","0","0","50898","","null","","","null","80","","NaN","","","","","","","","","","","","","",""
"","response","","html-keyboard-response","542","816696","0.0-1.0-725.0","0","0","50898","","758","","","75","80","","","2","80","training","adjacent","DC","4","3","Q.jpg","M.jpg","0","0","1","",""
"","feedback","","html-keyboard-response","543","817700","0.0-1.0-726.0-0.0","0","0","50898","","null","","","null","80","","","","","","","","","","","","","","","",""
"","ITI","","html-keyboard-response","544","818703","0.0-1.0-729.0","0","0","50898","","null","","","null","80","","","","","","","","","","","","","","","NaN",""
"","S1","","html-keyboard-response","545","818956","0.0-1.0-731.0","0","0","50898","","null","","","null","81","","","","","","","","","","","","","","","",""
"","ISI","","html-keyboard-response","546","820959","0.0-1.0-732.0","0","0","50898","","null","","","null","81","NaN","","","","","","","","","","","","","","",""
"","S2","","html-keyboard-response","547","821212","0.0-1.0-733.0","0","0","50898","","null","","","null","81","","NaN","","","","","","","","","","","","","",""
"","response","","html-keyboard-response","548","823128","0.0-1.0-734.0","0","0","50898","","1915","","","75","81","","","2","81","training","adjacent","AB","1","2","N.jpg","R.jpg","0","1","0","",""
"","feedback","","html-keyboard-response","549","824131","0.0-1.0-735.0-0.0","0","0","50898","","null","","","null","81","","","","","","","","","","","","","","","",""
"","time_out","","html-keyboard-response","550","826135","0.0-1.0-737.0-0.0","0","0","50898","","null","","","null","81","","","","","","","","","","","","","","","",""
"","ITI","","html-keyboard-response","551","827137","0.0-1.0-738.0","0","0","50898","","null","","","null","81","","","","","","","","","","","","","","","NaN",""
"","S1","","html-keyboard-response","552","827394","0.0-1.0-740.0","0","0","50898","","null","","","null","82","","","","","","","","","","","","","","","",""
"","ISI","","html-keyboard-response","553","829396","0.0-1.0-741.0","0","0","50898","","null","","","null","82","NaN","","","","","","","","","","","","","","",""
"","S2","","html-keyboard-response","554","829649","0.0-1.0-742.0","0","0","50898","","null","","","null","82","","NaN","","","","","","","","","","","","","",""
"","response","","html-keyboard-response","555","830465","0.0-1.0-743.0","0","0","50898","","814","","","68","82","","","2","82","training","adjacent","AB","1","2","N.jpg","R.jpg","1","1","1","",""
"","feedback","","html-keyboard-response","556","831468","0.0-1.0-744.0-0.0","0","0","50898","","null","","","null","82","","","","","","","","","","","","","","","",""
"","ITI","","html-keyboard-response","557","832471","0.0-1.0-747.0","0","0","50898","","null","","","null","82","","","","","","","","","","","","","","","NaN",""
"","S1","","html-keyboard-response","558","832724","0.0-1.0-749.0","0","0","50898","","null","","","null","83","","","","","","","","","","","","","","","",""
"","ISI","","html-keyboard-response","559","834727","0.0-1.0-750.0","0","0","50898","","null","","","null","83","NaN","","","","","","","","","","","","","","",""
"","S2","","html-keyboard-response","560","834980","0.0-1.0-751.0","0","0","50898","","null","","","null","83","","NaN","","","","","","","","","","","","","",""
"","response","","html-keyboard-response","561","835776","0.0-1.0-752.0","0","0","50898","","795","","","68","83","","","2","83","training","adjacent","FE","6","5","O.jpg","P.jpg","1","0","0","",""
"","feedback","","html-keyboard-response","562","836779","0.0-1.0-753.0-0.0","0","0","50898","","null","","","null","83","","","","","","","","","","","","","","","",""
"","time_out","","html-keyboard-response","563","838782","0.0-1.0-755.0-0.0","0","0","50898","","null","","","null","83","","","","","","","","","","","","","","","",""
"","ITI","","html-keyboard-response","564","839784","0.0-1.0-756.0","0","0","50898","","null","","","null","83","","","","","","","","","","","","","","","NaN",""
"","S1","","html-keyboard-response","565","840037","0.0-1.0-758.0","0","0","50898","","null","","","null","84","","","","","","","","","","","","","","","",""
"","ISI","","html-keyboard-response","566","842040","0.0-1.0-759.0","0","0","50898","","null","","","null","84","NaN","","","","","","","","","","","","","","",""
"","S2","","html-keyboard-response","567","842293","0.0-1.0-760.0","0","0","50898","","null","","","null","84","","NaN","","","","","","","","","","","","","",""
"","response","","html-keyboard-response","568","842792","0.0-1.0-761.0","0","0","50898","","498","","","75","84","","","2","84","training","adjacent","DE","4","5","Q.jpg","P.jpg","0","1","0","",""
"","feedback","","html-keyboard-response","569","843795","0.0-1.0-762.0-0.0","0","0","50898","","null","","","null","84","","","","","","","","","","","","","","","",""
"","time_out","","html-keyboard-response","570","845798","0.0-1.0-764.0-0.0","0","0","50898","","null","","","null","84","","","","","","","","","","","","","","","",""
"","ITI","","html-keyboard-response","571","846801","0.0-1.0-765.0","0","0","50898","","null","","","null","84","","","","","","","","","","","","","","","NaN",""
"","S1","","html-keyboard-response","572","847054","0.0-1.0-767.0","0","0","50898","","null","","","null","85","","","","","","","","","","","","","","","",""
"","ISI","","html-keyboard-response","573","849057","0.0-1.0-768.0","0","0","50898","","null","","","null","85","NaN","","","","","","","","","","","","","","",""
"","S2","","html-keyboard-response","574","849310","0.0-1.0-769.0","0","0","50898","","null","","","null","85","","NaN","","","","","","","","","","","","","",""
"","response","","html-keyboard-response","575","851311","0.0-1.0-770.0","0","0","50898","","null","","","null","85","","","2","85","training","adjacent","GF","7","6","L.jpg","O.jpg","NaN","0","0","",""
"","too_slow_prompt","","html-keyboard-response","576","852315","0.0-1.0-772.0-0.0","1","0","50898","","null","","","null","","","","","","","","","","","","","","","","",""
"","time_out","","html-keyboard-response","577","854318","0.0-1.0-773.0-0.0","0","0","50898","","null","","","null","85","","","","","","","","","","","","","","","",""
"","ITI","","html-keyboard-response","578","855320","0.0-1.0-774.0","0","0","50898","","null","","","null","85","","","","","","","","","","","","","","","NaN",""
"","S1","","html-keyboard-response","579","855573","0.0-1.0-776.0","0","0","50898","","null","","","null","86","","","","","","","","","","","","","","","",""
