"success","ttype","start_time","trial_type","trial_index","time_elapsed","internal_node_id","warning","missed_checkup","PID","view_history","rt","responses","repeat_instructions","key_press","index","keypress_isi","keypress_S2","block","trial_num","phase","group_type","pair_type","S1_stim","S2_stim","S1_img","S2_img","S1_chosen","S1_higher","accuracy","keypress_iti","total_bonus_tally"
"true","full_screen","d03032023hr1943","fullscreen","0","20076","0.0-0.0","0","0","90971","","","","","","","","","","","","","","","","","","","","","",""
"","instructions","","instructions","1","95691","0.0-1.0-0.0-0.0","0","0","90971","[{""page_index"":0,""viewing_time"":10500},{""page_index"":1,""viewing_time"":36696},{""page_index"":2,""viewing_time"":23966},{""page_index"":3,""viewing_time"":4448}]","75611","","","","","","","","","","","","","","","","","","","",""
"","comprehension_check","","survey-multi-choice","2","181151","0.0-1.0-0.0-1.0","0","0","90971","","85454","{""Q0"":""True"",""Q1"":""K"",""Q2"":""Once the second image appears and while the screen 'MAKE A CHOICE' is shown"",""Q3"":""Green mark"",""Q4"":""either D or K""}","0","","","","","","","","","","","","","","","","","",""
"","start_exp","","html-keyboard-response","3","187524","0.0-1.0-1.0","0","0","90971","","6368","","","32","","","","","","","","","","","","","","","","",""
"","S1","","html-keyboard-response","4","187779","0.0-1.0-2.0","0","0","90971","","null","","","null","0","","","","","","","","","","","","","","","",""
"","ISI","","html-keyboard-response","5","188283","0.0-1.0-3.0","0","0","90971","","null","","","null","0","NaN","","","","","","","","","","","","","","",""
"","S2","","html-keyboard-response","6","188549","0.0-1.0-4.0","0","0","90971","","null","","","null","0","","NaN","","","","","","","","","","","","","",""
"","response","","html-keyboard-response","7","189592","0.0-1.0-5.0-0.0","0","0","90971","","1038","","","68","0","","","1","0","training","adjacent","CB","3","2","N.jpg","Q.jpg","0","0","1","",""
"","feedback","","html-keyboard-response","8","190595","0.0-1.0-6.0-0.0","0","0","90971","","null","","","null","0","","","","","","","","","","","","","","","",""
"","ITI","","html-keyboard-response","9","191599","0.0-1.0-9.0","0","0","90971","","null","","","null","0","","","","","","","","","","","","","","","NaN",""
"","S1","","html-keyboard-response","10","191854","0.0-1.0-11.0","0","0","90971","","null","","","null","1","","","","","","","","","","","","","","","",""
"","ISI","","html-keyboard-response","11","192358","0.0-1.0-12.0","0","0","90971","","264","","","68","1","d","","","","","","","","","","","","","","",""
"","S2","","html-keyboard-response","12","192613","0.0-1.0-13.0","0","0","90971","","null","","","null","1","","NaN","","","","","","","","","","","","","",""
"","response","","html-keyboard-response","13","193184","0.0-1.0-14.0-0.0","0","0","90971","","568","","","75","1","","","1","1","training","adjacent","CB","3","2","N.jpg","Q.jpg","1","0","0","",""
"","feedback","","html-keyboard-response","14","194188","0.0-1.0-15.0-0.0","0","0","90971","","null","","","null","1","","","","","","","","","","","","","","","",""
"","time_out","","html-keyboard-response","15","196190","0.0-1.0-17.0-0.0","0","0","90971","","null","","","null","1","","","","","","","","","","","","","","","",""
"","ITI","","html-keyboard-response","16","197194","0.0-1.0-18.0","0","0","90971","","null","","","null","1","","","","","","","","","","","","","","","NaN",""
"","S1","","html-keyboard-response","17","197449","0.0-1.0-20.0","0","0","90971","","null","","","null","2","","","","","","","","","","","","","","","",""
"","ISI","","html-keyboard-response","18","197951","0.0-1.0-21.0","0","0","90971","","491","","","68","2","d","","","","","","","","","","","","","","",""
"","S2","","html-keyboard-response","19","198204","0.0-1.0-22.0","0","0","90971","","null","","","null","2","","NaN","","","","","","","","","","","","","",""
"","response","","html-keyboard-response","20","199231","0.0-1.0-23.0-0.0","0","0","90971","","1024","","","68","2","","","1","2","training","adjacent","FE","6","5","R.jpg","O.jpg","0","0","1","",""
"","feedback","","html-keyboard-response","21","200235","0.0-1.0-24.0-0.0","0","0","90971","","null","","","null","2","","","","","","","","","","","","","","","",""
"","ITI","","html-keyboard-response","22","201238","0.0-1.0-27.0","0","0","90971","","null","","","null","2","","","","","","","","","","","","","","","NaN",""
"","S1","","html-keyboard-response","23","201492","0.0-1.0-29.0","0","0","90971","","null","","","null","3","","","","","","","","","","","","","","","",""
"","ISI","","html-keyboard-response","24","201994","0.0-1.0-30.0","0","0","90971","","null","","","null","3","NaN","","","","","","","","","","","","","","",""
"","S2","","html-keyboard-response","25","202248","0.0-1.0-31.0","0","0","90971","","null","","","null","3","","NaN","","","","","","","","","","","","","",""
"","response","","html-keyboard-response","26","202871","0.0-1.0-32.0-0.0","0","0","90971","","621","","","68","3","","","1","3","training","adjacent","DE","4","5","L.jpg","O.jpg","0","1","0","",""
"","feedback","","html-keyboard-response","27","203876","0.0-1.0-33.0-0.0","0","0","90971","","null","","","null","3","","","","","","","","","","","","","","","",""
"","time_out","","html-keyboard-response","28","205879","0.0-1.0-35.0-0.0","0","0","90971","","null","","","null","3","","","","","","","","","","","","","","","",""
"","ITI","","html-keyboard-response","29","206882","0.0-1.0-36.0","0","0","90971","","null","","","null","3","","","","","","","","","","","","","","","NaN",""
"","S1","","html-keyboard-response","30","207135","0.0-1.0-38.0","0","0","90971","","null","","","null","4","","","","","","","","","","","","","","","",""
"","ISI","","html-keyboard-response","31","207638","0.0-1.0-39.0","0","0","90971","","null","","","null","4","NaN","","","","","","","","","","","","","","",""
"","S2","","html-keyboard-response","32","207892","0.0-1.0-40.0","0","0","90971","","null","","","null","4","","NaN","","","","","","","","","","","","","",""
"","response","","html-keyboard-response","33","208302","0.0-1.0-41.0-0.0","0","0","90971","","407","","","75","4","","","1","4","training","adjacent","DE","4","5","L.jpg","O.jpg","1","1","1","",""
"","feedback","","html-keyboard-response","34","209305","0.0-1.0-42.0-0.0","0","0","90971","","null","","","null","4","","","","","","","","","","","","","","","",""
"","ITI","","html-keyboard-response","35","210309","0.0-1.0-45.0","0","0","90971","","null","","","null","4","","","","","","","","","","","","","","","NaN",""
"","S1","","html-keyboard-response","36","210565","0.0-1.0-47.0","0","0","90971","","null","","","null","5","","","","","","","","","","","","","","","",""
"","ISI","","html-keyboard-response","37","211069","0.0-1.0-48.0","0","0","90971","","null","","","null","5","NaN","","","","","","","","","","","","","","",""
"","S2","","html-keyboard-response","38","211323","0.0-1.0-49.0","0","0","90971","","null","","","null","5","","NaN","","","","","","","","","","","","","",""
"","response","","html-keyboard-response","39","211510","0.0-1.0-50.0-0.0","0","0","90971","","184","","","68","5","","","1","5","training","adjacent","ED","5","4","O.jpg","L.jpg","0","0","1","",""
"","feedback","","html-keyboard-response","40","212515","0.0-1.0-51.0-0.0","0","0","90971","","null","","","null","5","","","","","","","","","","","","","","","",""
"","ITI","","html-keyboard-response","41","213518","0.0-1.0-54.0","0","0","90971","","null","","","null","5","","","","","","","","","","","","","","","NaN",""
"","S1","","html-keyboard-response","42","213774","0.0-1.0-56.0","0","0","90971","","null","","","null","6","","","","","","","","","","","","","","","",""
"","ISI","","html-keyboard-response","43","214277","0.0-1.0-57.0","0","0","90971","","null","","","null","6","NaN","","","","","","","","","","","","","","",""
"","S2","","html-keyboard-response","44","214532","0.0-1.0-58.0","0","0","90971","","null","","","null","6","","NaN","","","","","","","","","","","","","",""
"","response","","html-keyboard-response","45","214940","0.0-1.0-59.0-0.0","0","0","90971","","405","","","75","6","","","1","6","training","adjacent","GF","7","6","P.jpg","R.jpg","1","0","0","",""
"","feedback","","html-keyboard-response","46","215944","0.0-1.0-60.0-0.0","0","0","90971","","null","","","null","6","","","","","","","","","","","","","","","",""
"","time_out","","html-keyboard-response","47","217947","0.0-1.0-62.0-0.0","0","0","90971","","null","","","null","6","","","","","","","","","","","","","","","",""
"","ITI","","html-keyboard-response","48","218952","0.0-1.0-63.0","0","0","90971","","null","","","null","6","","","","","","","","","","","","","","","NaN",""
"","S1","","html-keyboard-response","49","219206","0.0-1.0-65.0","0","0","90971","","null","","","null","7","","","","","","","","","","","","","","","",""
"","ISI","","html-keyboard-response","50","219711","0.0-1.0-66.0","0","0","90971","","null","","","null","7","NaN","","","","","","","","","","","","","","",""
"","S2","","html-keyboard-response","51","219965","0.0-1.0-67.0","0","0","90971","","null","","","null","7","","NaN","","","","","","","","","","","","","",""
"","response","","html-keyboard-response","52","220637","0.0-1.0-68.0-0.0","0","0","90971","","670","","","68","7","","","1","7","training","adjacent","BA","2","1","Q.jpg","M.jpg","0","0","1","",""
"","feedback","","html-keyboard-response","53","221641","0.0-1.0-69.0-0.0","0","0","90971","","null","","","null","7","","","","","","","","","","","","","","","",""
"","ITI","","html-keyboard-response","54","222644","0.0-1.0-72.0","0","0","90971","","null","","","null","7","","","","","","","","","","","","","","","NaN",""
"","S1","","html-keyboard-response","55","222897","0.0-1.0-74.0","0","0","90971","","null","","","null","8","","","","","","","","","","","","","","","",""
"","ISI","","html-keyboard-response","56","223402","0.0-1.0-75.0","0","0","90971","","null","","","null","8","NaN","","","","","","","","","","","","","","",""
"","S2","","html-keyboard-response","57","223655","0.0-1.0-76.0","0","0","90971","","null","","","null","8","","NaN","","","","","","","","","","","","","",""
"","response","","html-keyboard-response","58","224092","0.0-1.0-77.0-0.0","0","0","90971","","435","","","68","8","","","1","8","training","adjacent","GF","7","6","P.jpg","R.jpg","0","0","1","",""
"","feedback","","html-keyboard-response","59","225096","0.0-1.0-78.0-0.0","0","0","90971","","null","","","null","8","","","","","","","","","","","","","","","",""
"","ITI","","html-keyboard-response","60","226100","0.0-1.0-81.0","0","0","90971","","null","","","null","8","","","","","","","","","","","","","","","NaN",""
"","S1","","html-keyboard-response","61","226353","0.0-1.0-83.0","0","0","90971","","null","","","null","9","","","","","","","","","","","","","","","",""
"","ISI","","html-keyboard-response","62","226857","0.0-1.0-84.0","0","0","90971","","null","","","null","9","NaN","","","","","","","","","","","","","","",""
"","S2","","html-keyboard-response","63","227111","0.0-1.0-85.0","0","0","90971","","null","","","null","9","","NaN","","","","","","","","","","","","","",""
"","response","","html-keyboard-response","64","227649","0.0-1.0-86.0-0.0","0","0","90971","","537","","","68","9","","","1","9","training","adjacent","DC","4","3","L.jpg","N.jpg","0","0","1","",""
"","feedback","","html-keyboard-response","65","228653","0.0-1.0-87.0-0.0","0","0","90971","","null","","","null","9","","","","","","","","","","","","","","","",""
"","ITI","","html-keyboard-response","66","229656","0.0-1.0-90.0","0","0","90971","","null","","","null","9","","","","","","","","","","","","","","","NaN",""
"","S1","","html-keyboard-response","67","229924","0.0-1.0-92.0","0","0","90971","","null","","","null","10","","","","","","","","","","","","","","","",""
"","ISI","","html-keyboard-response","68","230429","0.0-1.0-93.0","0","0","90971","","null","","","null","10","NaN","","","","","","","","","","","","","","",""
"","S2","","html-keyboard-response","69","230683","0.0-1.0-94.0","0","0","90971","","null","","","null","10","","NaN","","","","","","","","","","","","","",""
"","response","","html-keyboard-response","70","231456","0.0-1.0-95.0-0.0","0","0","90971","","771","","","68","10","","","1","10","training","adjacent","FG","6","7","R.jpg","P.jpg","0","1","0","",""
"","feedback","","html-keyboard-response","71","232460","0.0-1.0-96.0-0.0","0","0","90971","","null","","","null","10","","","","","","","","","","","","","","","",""
"","time_out","","html-keyboard-response","72","234464","0.0-1.0-98.0-0.0","0","0","90971","","null","","","null","10","","","","","","","","","","","","","","","",""
"","ITI","","html-keyboard-response","73","235468","0.0-1.0-99.0","0","0","90971","","null","","","null","10","","","","","","","","","","","","","","","NaN",""
"","S1","","html-keyboard-response","74","235723","0.0-1.0-101.0","0","0","90971","","null","","","null","11","","","","","","","","","","","","","","","",""
"","ISI","","html-keyboard-response","75","236226","0.0-1.0-102.0","0","0","90971","","294","","","75","11","k","","","","","","","","","","","","","","",""
"","S2","","html-keyboard-response","76","236479","0.0-1.0-103.0","0","0","90971","","null","","","null","11","","NaN","","","","","","","","","","","","","",""
"","response","","html-keyboard-response","77","237010","0.0-1.0-104.0-0.0","0","0","90971","","529","","","75","11","","","1","11","training","adjacent","FG","6","7","R.jpg","P.jpg","1","1","1","",""
"","feedback","","html-keyboard-response","78","238014","0.0-1.0-105.0-0.0","0","0","90971","","null","","","null","11","","","","","","","","","","","","","","","",""
"","ITI","","html-keyboard-response","79","239019","0.0-1.0-108.0","0","0","90971","","null","","","null","11","","","","","","","","","","","","","","","NaN",""
"","S1","","html-keyboard-response","80","239273","0.0-1.0-110.0","0","0","90971","","null","","","null","12","","","","","","","","","","","","","","","",""
"","ISI","","html-keyboard-response","81","239800","0.0-1.0-111.0","0","0","90971","","null","","","null","12","NaN","","","","","","","","","","","","","","",""
"","S2","","html-keyboard-response","82","240053","0.0-1.0-112.0","0","0","90971","","null","","","null","12","","NaN","","","","","","","","","","","","","",""
"","response","","html-keyboard-response","83","240330","0.0-1.0-113.0-0.0","0","0","90971","","275","","","68","12","","","1","12","training","adjacent","BA","2","1","Q.jpg","M.jpg","0","0","1","",""
"","feedback","","html-keyboard-response","84","241335","0.0-1.0-114.0-0.0","0","0","90971","","null","","","null","12","","","","","","","","","","","","","","","",""
"","ITI","","html-keyboard-response","85","242338","0.0-1.0-117.0","0","0","90971","","null","","","null","12","","","","","","","","","","","","","","","NaN",""
"","S1","","html-keyboard-response","86","242591","0.0-1.0-119.0","0","0","90971","","null","","","null","13","","","","","","","","","","","","","","","",""
"","ISI","","html-keyboard-response","87","243093","0.0-1.0-120.0","0","0","90971","","null","","","null","13","NaN","","","","","","","","","","","","","","",""
"","S2","","html-keyboard-response","88","243346","0.0-1.0-121.0","0","0","90971","","null","","","null","13","","NaN","","","","","","","","","","","","","",""
"","response","","html-keyboard-response","89","243723","0.0-1.0-122.0-0.0","0","0","90971","","374","","","75","13","","","1","13","training","adjacent","FG","6","7","R.jpg","P.jpg","1","1","1","",""
"","feedback","","html-keyboard-response","90","244729","0.0-1.0-123.0-0.0","0","0","90971","","null","","","null","13","","","","","","","","","","","","","","","",""
"","ITI","","html-keyboard-response","91","245732","0.0-1.0-126.0","0","0","90971","","null","","","null","13","","","","","","","","","","","","","","","NaN",""
"","S1","","html-keyboard-response","92","245987","0.0-1.0-128.0","0","0","90971","","null","","","null","14","","","","","","","","","","","","","","","",""
"","ISI","","html-keyboard-response","93","246491","0.0-1.0-129.0","0","0","90971","","null","","","null","14","NaN","","","","","","","","","","","","","","",""
"","S2","","html-keyboard-response","94","246743","0.0-1.0-130.0","0","0","90971","","null","","","null","14","","NaN","","","","","","","","","","","","","",""
"","response","","html-keyboard-response","95","247060","0.0-1.0-131.0-0.0","0","0","90971","","314","","","68","14","","","1","14","training","adjacent","CD","3","4","N.jpg","L.jpg","0","1","0","",""
"","feedback","","html-keyboard-response","96","248065","0.0-1.0-132.0-0.0","0","0","90971","","null","","","null","14","","","","","","","","","","","","","","","",""
"","time_out","","html-keyboard-response","97","250070","0.0-1.0-134.0-0.0","0","0","90971","","null","","","null","14","","","","","","","","","","","","","","","",""
"","ITI","","html-keyboard-response","98","251074","0.0-1.0-135.0","0","0","90971","","null","","","null","14","","","","","","","","","","","","","","","NaN",""
"","S1","","html-keyboard-response","99","251328","0.0-1.0-137.0","0","0","90971","","null","","","null","15","","","","","","","","","","","","","","","",""
"","ISI","","html-keyboard-response","100","251830","0.0-1.0-138.0","0","0","90971","","null","","","null","15","NaN","","","","","","","","","","","","","","",""
"","S2","","html-keyboard-response","101","251930","0.0-1.0-139.0","0","0","90971","","98","","","75","15","","k","1","15","training","adjacent","BC","2","3","Q.jpg","N.jpg","1","1","1","",""
"","feedback","","html-keyboard-response","102","252934","0.0-1.0-141.0-0.0","0","0","90971","","null","","","null","15","","","","","","","","","","","","","","","",""
"","ITI","","html-keyboard-response","103","253950","0.0-1.0-144.0","0","0","90971","","null","","","null","15","","","","","","","","","","","","","","","NaN",""
"","S1","","html-keyboard-response","104","254205","0.0-1.0-146.0","0","0","90971","","null","","","null","16","","","","","","","","","","","","","","","",""
"","ISI","","html-keyboard-response","105","254708","0.0-1.0-147.0","0","0","90971","","317","","","68","16","d","","","","","","","","","","","","","","",""
"","S2","","html-keyboard-response","106","254962","0.0-1.0-148.0","0","0","90971","","null","","","null","16","","NaN","","","","","","","","","","","","","",""
"","response","","html-keyboard-response","107","255421","0.0-1.0-149.0-0.0","0","0","90971","","457","","","68","16","","","1","16","training","adjacent","GF","7","6","P.jpg","R.jpg","0","0","1","",""
"","feedback","","html-keyboard-response","108","256425","0.0-1.0-150.0-0.0","0","0","90971","","null","","","null","16","","","","","","","","","","","","","","","",""
"","ITI","","html-keyboard-response","109","257428","0.0-1.0-153.0","0","0","90971","","null","","","null","16","","","","","","","","","","","","","","","NaN",""
"","S1","","html-keyboard-response","110","257682","0.0-1.0-155.0","0","0","90971","","null","","","null","17","","","","","","","","","","","","","","","",""
"","ISI","","html-keyboard-response","111","258186","0.0-1.0-156.0","0","0","90971","","null","","","null","17","NaN","","","","","","","","","","","","","","",""
"","S2","","html-keyboard-response","112","258439","0.0-1.0-157.0","0","0","90971","","null","","","null","17","","NaN","","","","","","","","","","","","","",""
"","response","","html-keyboard-response","113","259240","0.0-1.0-158.0-0.0","0","0","90971","","799","","","68","17","","","1","17","training","adjacent","AB","1","2","M.jpg","Q.jpg","0","1","0","",""
"","feedback","","html-keyboard-response","114","260244","0.0-1.0-159.0-0.0","0","0","90971","","null","","","null","17","","","","","","","","","","","","","","","",""
"","time_out","","html-keyboard-response","115","262247","0.0-1.0-161.0-0.0","0","0","90971","","null","","","null","17","","","","","","","","","","","","","","","",""
"","ITI","","html-keyboard-response","116","263252","0.0-1.0-162.0","0","0","90971","","null","","","null","17","","","","","","","","","","","","","","","NaN",""
"","S1","","html-keyboard-response","117","263505","0.0-1.0-164.0","0","0","90971","","null","","","null","18","","","","","","","","","","","","","","","",""
"","ISI","","html-keyboard-response","118","264008","0.0-1.0-165.0","0","0","90971","","214","","","75","18","k","","","","","","","","","","","","","","",""
"","S2","","html-keyboard-response","119","264263","0.0-1.0-166.0","0","0","90971","","null","","","null","18","","NaN","","","","","","","","","","","","","",""
"","response","","html-keyboard-response","120","264520","0.0-1.0-167.0-0.0","0","0","90971","","254","","","75","18","","","1","18","training","adjacent","AB","1","2","M.jpg","Q.jpg","1","1","1","",""
"","feedback","","html-keyboard-response","121","265525","0.0-1.0-168.0-0.0","0","0","90971","","null","","","null","18","","","","","","","","","","","","","","","",""
"","ITI","","html-keyboard-response","122","266541","0.0-1.0-171.0","0","0","90971","","null","","","null","18","","","","","","","","","","","","","","","NaN",""
"","S1","","html-keyboard-response","123","266794","0.0-1.0-173.0","0","0","90971","","null","","","null","19","","","","","","","","","","","","","","","",""
"","ISI","","html-keyboard-response","124","267297","0.0-1.0-174.0","0","0","90971","","225","","","68","19","d","","","","","","","","","","","","","","",""
"","S2","","html-keyboard-response","125","267556","0.0-1.0-175.0","0","0","90971","","null","","","null","19","","NaN","","","","","","","","","","","","","",""
"","response","","html-keyboard-response","126","267977","0.0-1.0-176.0-0.0","0","0","90971","","418","","","68","19","","","1","19","training","adjacent","EF","5","6","O.jpg","R.jpg","0","1","0","",""
"","feedback","","html-keyboard-response","127","268982","0.0-1.0-177.0-0.0","0","0","90971","","null","","","null","19","","","","","","","","","","","","","","","",""
"","time_out","","html-keyboard-response","128","270985","0.0-1.0-179.0-0.0","0","0","90971","","null","","","null","19","","","","","","","","","","","","","","","",""
"","ITI","","html-keyboard-response","129","271990","0.0-1.0-180.0","0","0","90971","","null","","","null","19","","","","","","","","","","","","","","","NaN",""
"","S1","","html-keyboard-response","130","272243","0.0-1.0-182.0","0","0","90971","","null","","","null","20","","","","","","","","","","","","","","","",""
"","ISI","","html-keyboard-response","131","272749","0.0-1.0-183.0","0","0","90971","","154","","","75","20","k","","","","","","","","","","","","","","",""
"","S2","","html-keyboard-response","132","273002","0.0-1.0-184.0","0","0","90971","","null","","","null","20","","NaN","","","","","","","","","","","","","",""
"","response","","html-keyboard-response","133","273090","0.0-1.0-185.0-0.0","0","0","90971","","86","","","75","20","","","1","20","training","adjacent","FE","6","5","R.jpg","O.jpg","1","0","0","",""
"","feedback","","html-keyboard-response","134","274119","0.0-1.0-186.0-0.0","0","0","90971","","null","","","null","20","","","","","","","","","","","","","","","",""
"","time_out","","html-keyboard-response","135","276121","0.0-1.0-188.0-0.0","0","0","90971","","null","","","null","20","","","","","","","","","","","","","","","",""
"","ITI","","html-keyboard-response","136","277127","0.0-1.0-189.0","0","0","90971","","null","","","null","20","","","","","","","","","","","","","","","NaN",""
"","S1","","html-keyboard-response","137","277382","0.0-1.0-191.0","0","0","90971","","null","","","null","21","","","","","","","","","","","","","","","",""
"","ISI","","html-keyboard-response","138","277886","0.0-1.0-192.0","0","0","90971","","null","","","null","21","NaN","","","","","","","","","","","","","","",""
"","S2","","html-keyboard-response","139","278138","0.0-1.0-193.0","0","0","90971","","null","","","null","21","","NaN","","","","","","","","","","","","","",""
"","response","","html-keyboard-response","140","278521","0.0-1.0-194.0-0.0","0","0","90971","","380","","","68","21","","","1","21","training","adjacent","DC","4","3","L.jpg","N.jpg","0","0","1","",""
"","feedback","","html-keyboard-response","141","279524","0.0-1.0-195.0-0.0","0","0","90971","","null","","","null","21","","","","","","","","","","","","","","","",""
"","ITI","","html-keyboard-response","142","280528","0.0-1.0-198.0","0","0","90971","","null","","","null","21","","","","","","","","","","","","","","","NaN",""
"","S1","","html-keyboard-response","143","280783","0.0-1.0-200.0","0","0","90971","","null","","","null","22","","","","","","","","","","","","","","","",""
"","ISI","","html-keyboard-response","144","281287","0.0-1.0-201.0","0","0","90971","","null","","","null","22","NaN","","","","","","","","","","","","","","",""
"","S2","","html-keyboard-response","145","281541","0.0-1.0-202.0","0","0","90971","","null","","","null","22","","NaN","","","","","","","","","","","","","",""
"","response","","html-keyboard-response","146","281880","0.0-1.0-203.0-0.0","0","0","90971","","337","","","68","22","","","1","22","training","adjacent","CB","3","2","N.jpg","Q.jpg","0","0","1","",""
"","feedback","","html-keyboard-response","147","282884","0.0-1.0-204.0-0.0","0","0","90971","","null","","","null","22","","","","","","","","","","","","","","","",""
"","ITI","","html-keyboard-response","148","283888","0.0-1.0-207.0","0","0","90971","","null","","","null","22","","","","","","","","","","","","","","","NaN",""
"","S1","","html-keyboard-response","149","284142","0.0-1.0-209.0","0","0","90971","","null","","","null","23","","","","","","","","","","","","","","","",""
"","ISI","","html-keyboard-response","150","284645","0.0-1.0-210.0","0","0","90971","","245","","","75","23","k","","","","","","","","","","","","","","",""
"","S2","","html-keyboard-response","151","284900","0.0-1.0-211.0","0","0","90971","","null","","","null","23","","NaN","","","","","","","","","","","","","",""
"","response","","html-keyboard-response","152","285150","0.0-1.0-212.0-0.0","0","0","90971","","247","","","75","23","","","1","23","training","adjacent","BA","2","1","Q.jpg","M.jpg","1","0","0","",""
"","feedback","","html-keyboard-response","153","286153","0.0-1.0-213.0-0.0","0","0","90971","","null","","","null","23","","","","","","","","","","","","","","","",""
"","time_out","","html-keyboard-response","154","288163","0.0-1.0-215.0-0.0","0","0","90971","","null","","","null","23","","","","","","","","","","","","","","","",""
"","ITI","","html-keyboard-response","155","289165","0.0-1.0-216.0","0","0","90971","","null","","","null","23","","","","","","","","","","","","","","","NaN",""
"","S1","","html-keyboard-response","156","289417","0.0-1.0-218.0","0","0","90971","","null","","","null","24","","","","","","","","","","","","","","","",""
"","ISI","","html-keyboard-response","157","289929","0.0-1.0-219.0","0","0","90971","","162","","","68","24","d","","","","","","","","","","","","","","",""
"","S2","","html-keyboard-response","158","290183","0.0-1.0-220.0","0","0","90971","","null","","","null","24","","NaN","","","","","","","","","","","","","",""
"","response","","html-keyboard-response","159","290189","0.0-1.0-221.0-0.0","0","0","90971","","4","","","68","24","","","1","24","training","adjacent","FE","6","5","R.jpg","O.jpg","0","0","1","",""
"","feedback","","html-keyboard-response","160","291193","0.0-1.0-222.0-0.0","0","0","90971","","null","","","null","24","","","","","","","","","","","","","","","",""
"","ITI","","html-keyboard-response","161","292197","0.0-1.0-225.0","0","0","90971","","null","","","null","24","","","","","","","","","","","","","","","NaN",""
"","S1","","html-keyboard-response","162","292468","0.0-1.0-227.0","0","0","90971","","null","","","null","25","","","","","","","","","","","","","","","",""
"","ISI","","html-keyboard-response","163","292971","0.0-1.0-228.0","0","0","90971","","null","","","null","25","NaN","","","","","","","","","","","","","","",""
"","S2","","html-keyboard-response","164","293224","0.0-1.0-229.0","0","0","90971","","null","","","null","25","","NaN","","","","","","","","","","","","","",""
"","response","","html-keyboard-response","165","293751","0.0-1.0-230.0-0.0","0","0","90971","","523","","","68","25","","","1","25","training","adjacent","FG","6","7","R.jpg","P.jpg","0","1","0","",""
"","feedback","","html-keyboard-response","166","294755","0.0-1.0-231.0-0.0","0","0","90971","","null","","","null","25","","","","","","","","","","","","","","","",""
"","time_out","","html-keyboard-response","167","296769","0.0-1.0-233.0-0.0","0","0","90971","","null","","","null","25","","","","","","","","","","","","","","","",""
"","ITI","","html-keyboard-response","168","297773","0.0-1.0-234.0","0","0","90971","","null","","","null","25","","","","","","","","","","","","","","","NaN",""
"","S1","","html-keyboard-response","169","298027","0.0-1.0-236.0","0","0","90971","","null","","","null","26","","","","","","","","","","","","","","","",""
"","ISI","","html-keyboard-response","170","298529","0.0-1.0-237.0","0","0","90971","","281","","","75","26","k","","","","","","","","","","","","","","",""
"","S2","","html-keyboard-response","171","298810","0.0-1.0-238.0","0","0","90971","","null","","","null","26","","NaN","","","","","","","","","","","","","",""
"","response","","html-keyboard-response","172","298969","0.0-1.0-239.0-0.0","0","0","90971","","158","","","75","26","","","1","26","training","adjacent","BC","2","3","Q.jpg","N.jpg","1","1","1","",""
"","feedback","","html-keyboard-response","173","299974","0.0-1.0-240.0-0.0","0","0","90971","","null","","","null","26","","","","","","","","","","","","","","","",""
"","ITI","","html-keyboard-response","174","300979","0.0-1.0-243.0","0","0","90971","","null","","","null","26","","","","","","","","","","","","","","","NaN",""
"","S1","","html-keyboard-response","175","301232","0.0-1.0-245.0","0","0","90971","","null","","","null","27","","","","","","","","","","","","","","","",""
"","ISI","","html-keyboard-response","176","301868","0.0-1.0-246.0","0","0","90971","","null","","","null","27","NaN","","","","","","","","","","","","","","",""
"","S2","","html-keyboard-response","177","302122","0.0-1.0-247.0","0","0","90971","","null","","","null","27","","NaN","","","","","","","","","","","","","",""
"","response","","html-keyboard-response","178","302743","0.0-1.0-248.0-0.0","0","0","90971","","617","","","68","27","","","1","27","training","adjacent","DE","4","5","L.jpg","O.jpg","0","1","0","",""
"","feedback","","html-keyboard-response","179","303748","0.0-1.0-249.0-0.0","0","0","90971","","null","","","null","27","","","","","","","","","","","","","","","",""
"","time_out","","html-keyboard-response","180","305751","0.0-1.0-251.0-0.0","0","0","90971","","null","","","null","27","","","","","","","","","","","","","","","",""
"","ITI","","html-keyboard-response","181","306757","0.0-1.0-252.0","0","0","90971","","296","","","68","27","","","","","","","","","","","","","","","d",""
"","S1","","html-keyboard-response","182","307012","0.0-1.0-254.0","0","0","90971","","null","","","null","28","","","","","","","","","","","","","","","",""
"","ISI","","html-keyboard-response","183","307515","0.0-1.0-255.0","0","0","90971","","35","","","68","28","d","","","","","","","","","","","","","","",""
"","S2","","html-keyboard-response","184","307519","0.0-1.0-256.0","0","0","90971","","2","","","68","28","","d","1","28","training","adjacent","ED","5","4","O.jpg","L.jpg","0","0","1","",""
"","feedback","","html-keyboard-response","185","308526","0.0-1.0-258.0-0.0","0","0","90971","","null","","","null","28","","","","","","","","","","","","","","","",""
"","ITI","","html-keyboard-response","186","309530","0.0-1.0-261.0","0","0","90971","","292","","","68","28","","","","","","","","","","","","","","","d",""
"","S1","","html-keyboard-response","187","309783","0.0-1.0-263.0","0","0","90971","","null","","","null","29","","","","","","","","","","","","","","","",""
"","ISI","","html-keyboard-response","188","310290","0.0-1.0-264.0","0","0","90971","","283","","","75","29","k","","","","","","","","","","","","","","",""
"","S2","","html-keyboard-response","189","310543","0.0-1.0-265.0","0","0","90971","","null","","","null","29","","NaN","","","","","","","","","","","","","",""
"","response","","html-keyboard-response","190","310821","0.0-1.0-266.0-0.0","0","0","90971","","275","","","75","29","","","1","29","training","adjacent","AB","1","2","M.jpg","Q.jpg","1","1","1","",""
"","feedback","","html-keyboard-response","191","311826","0.0-1.0-267.0-0.0","0","0","90971","","null","","","null","29","","","","","","","","","","","","","","","",""
"","ITI","","html-keyboard-response","192","312829","0.0-1.0-270.0","0","0","90971","","null","","","null","29","","","","","","","","","","","","","","","NaN",""
"","S1","","html-keyboard-response","193","313083","0.0-1.0-272.0","0","0","90971","","null","","","null","30","","","","","","","","","","","","","","","",""
"","ISI","","html-keyboard-response","194","313587","0.0-1.0-273.0","0","0","90971","","null","","","null","30","NaN","","","","","","","","","","","","","","",""
"","S2","","html-keyboard-response","195","313841","0.0-1.0-274.0","0","0","90971","","null","","","null","30","","NaN","","","","","","","","","","","","","",""
"","response","","html-keyboard-response","196","314081","0.0-1.0-275.0-0.0","0","0","90971","","238","","","68","30","","","1","30","training","adjacent","DC","4","3","L.jpg","N.jpg","0","0","1","",""
"","feedback","","html-keyboard-response","197","315085","0.0-1.0-276.0-0.0","0","0","90971","","null","","","null","30","","","","","","","","","","","","","","","",""
"","ITI","","html-keyboard-response","198","316089","0.0-1.0-279.0","0","0","90971","","null","","","null","30","","","","","","","","","","","","","","","NaN",""
"","S1","","html-keyboard-response","199","316342","0.0-1.0-281.0","0","0","90971","","null","","","null","31","","","","","","","","","","","","","","","",""
"","ISI","","html-keyboard-response","200","316845","0.0-1.0-282.0","0","0","90971","","null","","","null","31","NaN","","","","","","","","","","","","","","",""
"","S2","","html-keyboard-response","201","317099","0.0-1.0-283.0","0","0","90971","","null","","","null","31","","NaN","","","","","","","","","","","","","",""
"","response","","html-keyboard-response","202","317941","0.0-1.0-284.0-0.0","0","0","90971","","838","","","68","31","","","1","31","training","adjacent","CD","3","4","N.jpg","L.jpg","0","1","0","",""
"","feedback","","html-keyboard-response","203","318945","0.0-1.0-285.0-0.0","0","0","90971","","null","","","null","31","","","","","","","","","","","","","","","",""
"","time_out","","html-keyboard-response","204","320949","0.0-1.0-287.0-0.0","0","0","90971","","null","","","null","31","","","","","","","","","","","","","","","",""
"","ITI","","html-keyboard-response","205","321953","0.0-1.0-288.0","0","0","90971","","null","","","null","31","","","","","","","","","","","","","","","NaN",""
"","S1","","html-keyboard-response","206","322207","0.0-1.0-290.0","0","0","90971","","null","","","null","32","","","","","","","","","","","","","","","",""
"","ISI","","html-keyboard-response","207","322709","0.0-1.0-291.0","0","0","90971","","null","","","null","32","NaN","","","","","","","","","","","","","","",""
"","S2","","html-keyboard-response","208","322963","0.0-1.0-292.0","0","0","90971","","null","","","null","32","","NaN","","","","","","","","","","","","","",""
"","response","","html-keyboard-response","209","323321","0.0-1.0-293.0-0.0","0","0","90971","","356","","","75","32","","","1","32","training","adjacent","ED","5","4","O.jpg","L.jpg","1","0","0","",""
"","feedback","","html-keyboard-response","210","324325","0.0-1.0-294.0-0.0","0","0","90971","","null","","","null","32","","","","","","","","","","","","","","","",""
"","time_out","","html-keyboard-response","211","326328","0.0-1.0-296.0-0.0","0","0","90971","","null","","","null","32","","","","","","","","","","","","","","","",""
"","ITI","","html-keyboard-response","212","327332","0.0-1.0-297.0","0","0","90971","","null","","","null","32","","","","","","","","","","","","","","","NaN",""
"","S1","","html-keyboard-response","213","327587","0.0-1.0-299.0","0","0","90971","","null","","","null","33","","","","","","","","","","","","","","","",""
"","ISI","","html-keyboard-response","214","328091","0.0-1.0-300.0","0","0","90971","","224","","","68","33","d","","","","","","","","","","","","","","",""
"","S2","","html-keyboard-response","215","328354","0.0-1.0-301.0","0","0","90971","","null","","","null","33","","NaN","","","","","","","","","","","","","",""
"","response","","html-keyboard-response","216","328359","0.0-1.0-302.0-0.0","0","0","90971","","3","","","68","33","","","1","33","training","adjacent","EF","5","6","O.jpg","R.jpg","0","1","0","",""
"","feedback","","html-keyboard-response","217","329362","0.0-1.0-303.0-0.0","0","0","90971","","null","","","null","33","","","","","","","","","","","","","","","",""
"","time_out","","html-keyboard-response","218","331367","0.0-1.0-305.0-0.0","0","0","90971","","null","","","null","33","","","","","","","","","","","","","","","",""
"","ITI","","html-keyboard-response","219","332370","0.0-1.0-306.0","0","0","90971","","null","","","null","33","","","","","","","","","","","","","","","NaN",""
"","S1","","html-keyboard-response","220","332624","0.0-1.0-308.0","0","0","90971","","null","","","null","34","","","","","","","","","","","","","","","",""
"","ISI","","html-keyboard-response","221","333128","0.0-1.0-309.0","0","0","90971","","184","","","68","34","d","","","","","","","","","","","","","","",""
"","S2","","html-keyboard-response","222","333383","0.0-1.0-310.0","0","0","90971","","null","","","null","34","","NaN","","","","","","","","","","","","","",""
"","response","","html-keyboard-response","223","333590","0.0-1.0-311.0-0.0","0","0","90971","","205","","","68","34","","","1","34","training","adjacent","FE","6","5","R.jpg","O.jpg","0","0","1","",""
"","feedback","","html-keyboard-response","224","334595","0.0-1.0-312.0-0.0","0","0","90971","","null","","","null","34","","","","","","","","","","","","","","","",""
"","ITI","","html-keyboard-response","225","335600","0.0-1.0-315.0","0","0","90971","","null","","","null","34","","","","","","","","","","","","","","","NaN",""
"","S1","","html-keyboard-response","226","335853","0.0-1.0-317.0","0","0","90971","","null","","","null","35","","","","","","","","","","","","","","","",""
"","ISI","","html-keyboard-response","227","336359","0.0-1.0-318.0","0","0","90971","","null","","","null","35","NaN","","","","","","","","","","","","","","",""
"","S2","","html-keyboard-response","228","336618","0.0-1.0-319.0","0","0","90971","","null","","","null","35","","NaN","","","","","","","","","","","","","",""
"","response","","html-keyboard-response","229","337241","0.0-1.0-320.0-0.0","0","0","90971","","620","","","68","35","","","1","35","training","adjacent","BC","2","3","Q.jpg","N.jpg","0","1","0","",""
"","feedback","","html-keyboard-response","230","338286","0.0-1.0-321.0-0.0","0","0","90971","","null","","","null","35","","","","","","","","","","","","","","","",""
"","time_out","","html-keyboard-response","231","340323","0.0-1.0-323.0-0.0","0","0","90971","","null","","","null","35","","","","","","","","","","","","","","","",""
"","ITI","","html-keyboard-response","232","341326","0.0-1.0-324.0","0","0","90971","","null","","","null","35","","","","","","","","","","","","","","","NaN",""
"","S1","","html-keyboard-response","233","341579","0.0-1.0-326.0","0","0","90971","","null","","","null","36","","","","","","","","","","","","","","","",""
"","ISI","","html-keyboard-response","234","342083","0.0-1.0-327.0","0","0","90971","","null","","","null","36","NaN","","","","","","","","","","","","","","",""
"","S2","","html-keyboard-response","235","342310","0.0-1.0-328.0","0","0","90971","","224","","","68","36","","d","1","36","training","adjacent","BC","2","3","Q.jpg","N.jpg","0","1","0","",""
"","feedback","","html-keyboard-response","236","343314","0.0-1.0-330.0-0.0","0","0","90971","","null","","","null","36","","","","","","","","","","","","","","","",""
"","time_out","","html-keyboard-response","237","345318","0.0-1.0-332.0-0.0","0","0","90971","","null","","","null","36","","","","","","","","","","","","","","","",""
"","ITI","","html-keyboard-response","238","346323","0.0-1.0-333.0","0","0","90971","","null","","","null","36","","","","","","","","","","","","","","","NaN",""
"","S1","","html-keyboard-response","239","346592","0.0-1.0-335.0","0","0","90971","","null","","","null","37","","","","","","","","","","","","","","","",""
"","ISI","","html-keyboard-response","240","347095","0.0-1.0-336.0","0","0","90971","","null","","","null","37","NaN","","","","","","","","","","","","","","",""
"","S2","","html-keyboard-response","241","347349","0.0-1.0-337.0","0","0","90971","","null","","","null","37","","NaN","","","","","","","","","","","","","",""
"","response","","html-keyboard-response","242","347530","0.0-1.0-338.0-0.0","0","0","90971","","178","","","75","37","","","1","37","training","adjacent","CD","3","4","N.jpg","L.jpg","1","1","1","",""
"","feedback","","html-keyboard-response","243","348566","0.0-1.0-339.0-0.0","0","0","90971","","null","","","null","37","","","","","","","","","","","","","","","",""
"","ITI","","html-keyboard-response","244","349580","0.0-1.0-342.0","0","0","90971","","null","","","null","37","","","","","","","","","","","","","","","NaN",""
"","S1","","html-keyboard-response","245","349834","0.0-1.0-344.0","0","0","90971","","null","","","null","38","","","","","","","","","","","","","","","",""
"","ISI","","html-keyboard-response","246","350337","0.0-1.0-345.0","0","0","90971","","null","","","null","38","NaN","","","","","","","","","","","","","","",""
"","S2","","html-keyboard-response","247","350591","0.0-1.0-346.0","0","0","90971","","null","","","null","38","","NaN","","","","","","","","","","","","","",""
"","response","","html-keyboard-response","248","350742","0.0-1.0-347.0-0.0","0","0","90971","","148","","","75","38","","","1","38","training","adjacent","DE","4","5","L.jpg","O.jpg","1","1","1","",""
"","feedback","","html-keyboard-response","249","351746","0.0-1.0-348.0-0.0","0","0","90971","","null","","","null","38","","","","","","","","","","","","","","","",""
"","ITI","","html-keyboard-response","250","352750","0.0-1.0-351.0","0","0","90971","","null","","","null","38","","","","","","","","","","","","","","","NaN",""
"","S1","","html-keyboard-response","251","353004","0.0-1.0-353.0","0","0","90971","","null","","","null","39","","","","","","","","","","","","","","","",""
"","ISI","","html-keyboard-response","252","353512","0.0-1.0-354.0","0","0","90971","","null","","","null","39","NaN","","","","","","","","","","","","","","",""
"","S2","","html-keyboard-response","253","353776","0.0-1.0-355.0","0","0","90971","","null","","","null","39","","NaN","","","","","","","","","","","","","",""
"","response","","html-keyboard-response","254","353906","0.0-1.0-356.0-0.0","0","0","90971","","126","","","75","39","","","1","39","training","adjacent","DC","4","3","L.jpg","N.jpg","1","0","0","",""
"","feedback","","html-keyboard-response","255","354913","0.0-1.0-357.0-0.0","0","0","90971","","null","","","null","39","","","","","","","","","","","","","","","",""
"","time_out","","html-keyboard-response","256","356945","0.0-1.0-359.0-0.0","0","0","90971","","null","","","null","39","","","","","","","","","","","","","","","",""
"","ITI","","html-keyboard-response","257","357948","0.0-1.0-360.0","0","0","90971","","null","","","null","39","","","","","","","","","","","","","","","NaN",""
"","S1","","html-keyboard-response","258","358201","0.0-1.0-362.0","0","0","90971","","null","","","null","40","","","","","","","","","","","","","","","",""
"","ISI","","html-keyboard-response","259","358704","0.0-1.0-363.0","0","0","90971","","null","","","null","40","NaN","","","","","","","","","","","","","","",""
"","S2","","html-keyboard-response","260","358959","0.0-1.0-364.0","0","0","90971","","null","","","null","40","","NaN","","","","","","","","","","","","","",""
"","response","","html-keyboard-response","261","359190","0.0-1.0-365.0-0.0","0","0","90971","","228","","","75","40","","","1","40","training","adjacent","CD","3","4","N.jpg","L.jpg","1","1","1","",""
"","feedback","","html-keyboard-response","262","360195","0.0-1.0-366.0-0.0","0","0","90971","","null","","","null","40","","","","","","","","","","","","","","","",""
"","ITI","","html-keyboard-response","263","361200","0.0-1.0-369.0","0","0","90971","","null","","","null","40","","","","","","","","","","","","","","","NaN",""
"","S1","","html-keyboard-response","264","361471","0.0-1.0-371.0","0","0","90971","","null","","","null","41","","","","","","","","","","","","","","","",""
"","ISI","","html-keyboard-response","265","361975","0.0-1.0-372.0","0","0","90971","","null","","","null","41","NaN","","","","","","","","","","","","","","",""
"","S2","","html-keyboard-response","266","362237","0.0-1.0-373.0","0","0","90971","","null","","","null","41","","NaN","","","","","","","","","","","","","",""
"","response","","html-keyboard-response","267","362692","0.0-1.0-374.0-0.0","0","0","90971","","451","","","68","41","","","1","41","training","adjacent","BA","2","1","Q.jpg","M.jpg","0","0","1","",""
"","feedback","","html-keyboard-response","268","363696","0.0-1.0-375.0-0.0","0","0","90971","","null","","","null","41","","","","","","","","","","","","","","","",""
"","ITI","","html-keyboard-response","269","364700","0.0-1.0-378.0","0","0","90971","","null","","","null","41","","","","","","","","","","","","","","","NaN",""
"","S1","","html-keyboard-response","270","364953","0.0-1.0-380.0","0","0","90971","","null","","","null","42","","","","","","","","","","","","","","","",""
"","ISI","","html-keyboard-response","271","365480","0.0-1.0-381.0","0","0","90971","","null","","","null","42","NaN","","","","","","","","","","","","","","",""
"","S2","","html-keyboard-response","272","365734","0.0-1.0-382.0","0","0","90971","","null","","","null","42","","NaN","","","","","","","","","","","","","",""
"","response","","html-keyboard-response","273","366050","0.0-1.0-383.0-0.0","0","0","90971","","312","","","75","42","","","1","42","training","adjacent","ED","5","4","O.jpg","L.jpg","1","0","0","",""
"","feedback","","html-keyboard-response","274","367055","0.0-1.0-384.0-0.0","0","0","90971","","null","","","null","42","","","","","","","","","","","","","","","",""
"","time_out","","html-keyboard-response","275","369058","0.0-1.0-386.0-0.0","0","0","90971","","null","","","null","42","","","","","","","","","","","","","","","",""
"","ITI","","html-keyboard-response","276","370063","0.0-1.0-387.0","0","0","90971","","null","","","null","42","","","","","","","","","","","","","","","NaN",""
"","S1","","html-keyboard-response","277","370318","0.0-1.0-389.0","0","0","90971","","null","","","null","43","","","","","","","","","","","","","","","",""
"","ISI","","html-keyboard-response","278","370821","0.0-1.0-390.0","0","0","90971","","450","","","75","43","k","","","","","","","","","","","","","","",""
"","S2","","html-keyboard-response","279","371075","0.0-1.0-391.0","0","0","90971","","null","","","null","43","","NaN","","","","","","","","","","","","","",""
"","response","","html-keyboard-response","280","371505","0.0-1.0-392.0-0.0","0","0","90971","","427","","","68","43","","","1","43","training","adjacent","EF","5","6","O.jpg","R.jpg","0","1","0","",""
"","feedback","","html-keyboard-response","281","372509","0.0-1.0-393.0-0.0","0","0","90971","","null","","","null","43","","","","","","","","","","","","","","","",""
"","time_out","","html-keyboard-response","282","374512","0.0-1.0-395.0-0.0","0","0","90971","","null","","","null","43","","","","","","","","","","","","","","","",""
"","ITI","","html-keyboard-response","283","375521","0.0-1.0-396.0","0","0","90971","","null","","","null","43","","","","","","","","","","","","","","","NaN",""
"","S1","","html-keyboard-response","284","375777","0.0-1.0-398.0","0","0","90971","","null","","","null","44","","","","","","","","","","","","","","","",""
"","ISI","","html-keyboard-response","285","376283","0.0-1.0-399.0","0","0","90971","","212","","","75","44","k","","","","","","","","","","","","","","",""
"","S2","","html-keyboard-response","286","376538","0.0-1.0-400.0","0","0","90971","","null","","","null","44","","NaN","","","","","","","","","","","","","",""
"","response","","html-keyboard-response","287","376929","0.0-1.0-401.0-0.0","0","0","90971","","388","","","75","44","","","1","44","training","adjacent","EF","5","6","O.jpg","R.jpg","1","1","1","",""
"","feedback","","html-keyboard-response","288","377935","0.0-1.0-402.0-0.0","0","0","90971","","null","","","null","44","","","","","","","","","","","","","","","",""
"","ITI","","html-keyboard-response","289","378938","0.0-1.0-405.0","0","0","90971","","null","","","null","44","","","","","","","","","","","","","","","NaN",""
"","S1","","html-keyboard-response","290","379192","0.0-1.0-407.0","0","0","90971","","null","","","null","45","","","","","","","","","","","","","","","",""
"","ISI","","html-keyboard-response","291","379695","0.0-1.0-408.0","0","0","90971","","null","","","null","45","NaN","","","","","","","","","","","","","","",""
"","S2","","html-keyboard-response","292","379948","0.0-1.0-409.0","0","0","90971","","null","","","null","45","","NaN","","","","","","","","","","","","","",""
"","response","","html-keyboard-response","293","380782","0.0-1.0-410.0-0.0","0","0","90971","","829","","","68","45","","","1","45","training","adjacent","CB","3","2","N.jpg","Q.jpg","0","0","1","",""
"","feedback","","html-keyboard-response","294","381787","0.0-1.0-411.0-0.0","0","0","90971","","null","","","null","45","","","","","","","","","","","","","","","",""
"","ITI","","html-keyboard-response","295","382790","0.0-1.0-414.0","0","0","90971","","null","","","null","45","","","","","","","","","","","","","","","NaN",""
"","S1","","html-keyboard-response","296","383050","0.0-1.0-416.0","0","0","90971","","null","","","null","46","","","","","","","","","","","","","","","",""
"","ISI","","html-keyboard-response","297","383554","0.0-1.0-417.0","0","0","90971","","null","","","null","46","NaN","","","","","","","","","","","","","","",""
"","S2","","html-keyboard-response","298","383808","0.0-1.0-418.0","0","0","90971","","null","","","null","46","","NaN","","","","","","","","","","","","","",""
"","response","","html-keyboard-response","299","384150","0.0-1.0-419.0-0.0","0","0","90971","","339","","","75","46","","","1","46","training","adjacent","AB","1","2","M.jpg","Q.jpg","1","1","1","",""
"","feedback","","html-keyboard-response","300","385154","0.0-1.0-420.0-0.0","0","0","90971","","null","","","null","46","","","","","","","","","","","","","","","",""
"","ITI","","html-keyboard-response","301","386158","0.0-1.0-423.0","0","0","90971","","null","","","null","46","","","","","","","","","","","","","","","NaN",""
"","S1","","html-keyboard-response","302","386464","0.0-1.0-425.0","0","0","90971","","null","","","null","47","","","","","","","","","","","","","","","",""
"","ISI","","html-keyboard-response","303","386967","0.0-1.0-426.0","0","0","90971","","null","","","null","47","NaN","","","","","","","","","","","","","","",""
"","S2","","html-keyboard-response","304","387220","0.0-1.0-427.0","0","0","90971","","null","","","null","47","","NaN","","","","","","","","","","","","","",""
"","response","","html-keyboard-response","305","387710","0.0-1.0-428.0-0.0","0","0","90971","","488","","","75","47","","","1","47","training","adjacent","GF","7","6","P.jpg","R.jpg","1","0","0","",""
"","feedback","","html-keyboard-response","306","388715","0.0-1.0-429.0-0.0","0","0","90971","","null","","","null","47","","","","","","","","","","","","","","","",""
"","time_out","","html-keyboard-response","307","390720","0.0-1.0-431.0-0.0","0","0","90971","","null","","","null","47","","","","","","","","","","","","","","","",""
"","ITI","","html-keyboard-response","308","391723","0.0-1.0-432.0","0","0","90971","","null","","","null","47","","","","","","","","","","","","","","","NaN",""
"","block_over","","html-keyboard-response","309","399722","0.0-1.0-433.0-0.0","0","0","90971","","7994","","","32","47","","","","","","","","","","","","","","","",""
"","S1","","html-keyboard-response","310","399976","0.0-1.0-434.0","0","0","90971","","null","","","null","48","","","","","","","","","","","","","","","",""
"","ISI","","html-keyboard-response","311","400479","0.0-1.0-435.0","0","0","90971","","null","","","null","48","NaN","","","","","","","","","","","","","","",""
"","S2","","html-keyboard-response","312","400736","0.0-1.0-436.0","0","0","90971","","null","","","null","48","","NaN","","","","","","","","","","","","","",""
"","response","","html-keyboard-response","313","401184","0.0-1.0-437.0-0.0","0","0","90971","","443","","","75","48","","","2","48","training","adjacent","ED","5","4","O.jpg","L.jpg","1","0","0","",""
"","feedback","","html-keyboard-response","314","402188","0.0-1.0-438.0-0.0","0","0","90971","","null","","","null","48","","","","","","","","","","","","","","","",""
"","time_out","","html-keyboard-response","315","404192","0.0-1.0-440.0-0.0","0","0","90971","","null","","","null","48","","","","","","","","","","","","","","","",""
"","ITI","","html-keyboard-response","316","405196","0.0-1.0-441.0","0","0","90971","","954","","","68","48","","","","","","","","","","","","","","","d",""
"","S1","","html-keyboard-response","317","405450","0.0-1.0-443.0","0","0","90971","","null","","","null","49","","","","","","","","","","","","","","","",""
"","ISI","","html-keyboard-response","318","405954","0.0-1.0-444.0","0","0","90971","","null","","","null","49","NaN","","","","","","","","","","","","","","",""
"","S2","","html-keyboard-response","319","406099","0.0-1.0-445.0","0","0","90971","","143","","","68","49","","d","2","49","training","adjacent","EF","5","6","O.jpg","R.jpg","0","1","0","",""
"","feedback","","html-keyboard-response","320","407104","0.0-1.0-447.0-0.0","0","0","90971","","null","","","null","49","","","","","","","","","","","","","","","",""
"","time_out","","html-keyboard-response","321","409107","0.0-1.0-449.0-0.0","0","0","90971","","null","","","null","49","","","","","","","","","","","","","","","",""
"","ITI","","html-keyboard-response","322","410109","0.0-1.0-450.0","0","0","90971","","null","","","null","49","","","","","","","","","","","","","","","NaN",""
"","S1","","html-keyboard-response","323","410363","0.0-1.0-452.0","0","0","90971","","null","","","null","50","","","","","","","","","","","","","","","",""
"","ISI","","html-keyboard-response","324","410866","0.0-1.0-453.0","0","0","90971","","177","","","75","50","k","","","","","","","","","","","","","","",""
"","S2","","html-keyboard-response","325","411120","0.0-1.0-454.0","0","0","90971","","null","","","null","50","","NaN","","","","","","","","","","","","","",""
"","response","","html-keyboard-response","326","411239","0.0-1.0-455.0-0.0","0","0","90971","","116","","","75","50","","","2","50","training","adjacent","DC","4","3","L.jpg","N.jpg","1","0","0","",""
"","feedback","","html-keyboard-response","327","412243","0.0-1.0-456.0-0.0","0","0","90971","","null","","","null","50","","","","","","","","","","","","","","","",""
"","time_out","","html-keyboard-response","328","414246","0.0-1.0-458.0-0.0","0","0","90971","","null","","","null","50","","","","","","","","","","","","","","","",""
"","ITI","","html-keyboard-response","329","415249","0.0-1.0-459.0","0","0","90971","","null","","","null","50","","","","","","","","","","","","","","","NaN",""
"","S1","","html-keyboard-response","330","415502","0.0-1.0-461.0","0","0","90971","","null","","","null","51","","","","","","","","","","","","","","","",""
"","ISI","","html-keyboard-response","331","416005","0.0-1.0-462.0","0","0","90971","","235","","","68","51","d","","","","","","","","","","","","","","",""
"","S2","","html-keyboard-response","332","416088","0.0-1.0-463.0","0","0","90971","","80","","","68","51","","d","2","51","training","adjacent","DE","4","5","L.jpg","O.jpg","0","1","0","",""
"","feedback","","html-keyboard-response","333","417118","0.0-1.0-465.0-0.0","0","0","90971","","null","","","null","51","","","","","","","","","","","","","","","",""
"","time_out","","html-keyboard-response","334","419121","0.0-1.0-467.0-0.0","0","0","90971","","null","","","null","51","","","","","","","","","","","","","","","",""
"","ITI","","html-keyboard-response","335","420124","0.0-1.0-468.0","0","0","90971","","null","","","null","51","","","","","","","","","","","","","","","NaN",""
"","S1","","html-keyboard-response","336","420378","0.0-1.0-470.0","0","0","90971","","null","","","null","52","","","","","","","","","","","","","","","",""
"","ISI","","html-keyboard-response","337","420889","0.0-1.0-471.0","0","0","90971","","null","","","null","52","NaN","","","","","","","","","","","","","","",""
"","S2","","html-keyboard-response","338","421141","0.0-1.0-472.0","0","0","90971","","null","","","null","52","","NaN","","","","","","","","","","","","","",""
"","response","","html-keyboard-response","339","421480","0.0-1.0-473.0-0.0","0","0","90971","","336","","","68","52","","","2","52","training","adjacent","BC","2","3","Q.jpg","N.jpg","0","1","0","",""
"","feedback","","html-keyboard-response","340","422484","0.0-1.0-474.0-0.0","0","0","90971","","null","","","null","52","","","","","","","","","","","","","","","",""
"","time_out","","html-keyboard-response","341","424491","0.0-1.0-476.0-0.0","0","0","90971","","null","","","null","52","","","","","","","","","","","","","","","",""
"","ITI","","html-keyboard-response","342","425494","0.0-1.0-477.0","0","0","90971","","null","","","null","52","","","","","","","","","","","","","","","NaN",""
"","S1","","html-keyboard-response","343","425749","0.0-1.0-479.0","0","0","90971","","null","","","null","53","","","","","","","","","","","","","","","",""
"","ISI","","html-keyboard-response","344","426255","0.0-1.0-480.0","0","0","90971","","null","","","null","53","NaN","","","","","","","","","","","","","","",""
"","S2","","html-keyboard-response","345","426528","0.0-1.0-481.0","0","0","90971","","null","","","null","53","","NaN","","","","","","","","","","","","","",""
"","response","","html-keyboard-response","346","426670","0.0-1.0-482.0-0.0","0","0","90971","","139","","","68","53","","","2","53","training","adjacent","EF","5","6","O.jpg","R.jpg","0","1","0","",""
"","feedback","","html-keyboard-response","347","427674","0.0-1.0-483.0-0.0","0","0","90971","","null","","","null","53","","","","","","","","","","","","","","","",""
"","time_out","","html-keyboard-response","348","429678","0.0-1.0-485.0-0.0","0","0","90971","","null","","","null","53","","","","","","","","","","","","","","","",""
"","ITI","","html-keyboard-response","349","430726","0.0-1.0-486.0","0","0","90971","","null","","","null","53","","","","","","","","","","","","","","","NaN",""
"","S1","","html-keyboard-response","350","430979","0.0-1.0-488.0","0","0","90971","","null","","","null","54","","","","","","","","","","","","","","","",""
"","ISI","","html-keyboard-response","351","431484","0.0-1.0-489.0","0","0","90971","","null","","","null","54","NaN","","","","","","","","","","","","","","",""
"","S2","","html-keyboard-response","352","431739","0.0-1.0-490.0","0","0","90971","","null","","","null","54","","NaN","","","","","","","","","","","","","",""
"","response","","html-keyboard-response","353","431863","0.0-1.0-491.0-0.0","0","0","90971","","121","","","75","54","","","2","54","training","adjacent","DC","4","3","L.jpg","N.jpg","1","0","0","",""
"","feedback","","html-keyboard-response","354","432869","0.0-1.0-492.0-0.0","0","0","90971","","null","","","null","54","","","","","","","","","","","","","","","",""
"","time_out","","html-keyboard-response","355","434873","0.0-1.0-494.0-0.0","0","0","90971","","null","","","null","54","","","","","","","","","","","","","","","",""
"","ITI","","html-keyboard-response","356","435878","0.0-1.0-495.0","0","0","90971","","null","","","null","54","","","","","","","","","","","","","","","NaN",""
"","S1","","html-keyboard-response","357","436131","0.0-1.0-497.0","0","0","90971","","null","","","null","55","","","","","","","","","","","","","","","",""
"","ISI","","html-keyboard-response","358","436635","0.0-1.0-498.0","0","0","90971","","366","","","75","55","k","","","","","","","","","","","","","","",""
"","S2","","html-keyboard-response","359","436971","0.0-1.0-499.0","0","0","90971","","null","","","null","55","","NaN","","","","","","","","","","","","","",""
"","response","","html-keyboard-response","360","437105","0.0-1.0-500.0-0.0","0","0","90971","","131","","","75","55","","","2","55","training","adjacent","FE","6","5","R.jpg","O.jpg","1","0","0","",""
"","feedback","","html-keyboard-response","361","438108","0.0-1.0-501.0-0.0","0","0","90971","","null","","","null","55","","","","","","","","","","","","","","","",""
"","time_out","","html-keyboard-response","362","440113","0.0-1.0-503.0-0.0","0","0","90971","","null","","","null","55","","","","","","","","","","","","","","","",""
"","ITI","","html-keyboard-response","363","441117","0.0-1.0-504.0","0","0","90971","","null","","","null","55","","","","","","","","","","","","","","","NaN",""
"","S1","","html-keyboard-response","364","441371","0.0-1.0-506.0","0","0","90971","","null","","","null","56","","","","","","","","","","","","","","","",""
"","ISI","","html-keyboard-response","365","441876","0.0-1.0-507.0","0","0","90971","","null","","","null","56","NaN","","","","","","","","","","","","","","",""
"","S2","","html-keyboard-response","366","442129","0.0-1.0-508.0","0","0","90971","","null","","","null","56","","NaN","","","","","","","","","","","","","",""
"","response","","html-keyboard-response","367","442372","0.0-1.0-509.0-0.0","0","0","90971","","239","","","68","56","","","2","56","training","adjacent","FE","6","5","R.jpg","O.jpg","0","0","1","",""
"","feedback","","html-keyboard-response","368","443376","0.0-1.0-510.0-0.0","0","0","90971","","null","","","null","56","","","","","","","","","","","","","","","",""
"","ITI","","html-keyboard-response","369","444379","0.0-1.0-513.0","0","0","90971","","null","","","null","56","","","","","","","","","","","","","","","NaN",""
"","S1","","html-keyboard-response","370","444634","0.0-1.0-515.0","0","0","90971","","null","","","null","57","","","","","","","","","","","","","","","",""
"","ISI","","html-keyboard-response","371","445137","0.0-1.0-516.0","0","0","90971","","null","","","null","57","NaN","","","","","","","","","","","","","","",""
"","S2","","html-keyboard-response","372","445391","0.0-1.0-517.0","0","0","90971","","null","","","null","57","","NaN","","","","","","","","","","","","","",""
"","response","","html-keyboard-response","373","445630","0.0-1.0-518.0-0.0","0","0","90971","","237","","","68","57","","","2","57","training","adjacent","CD","3","4","N.jpg","L.jpg","0","1","0","",""
"","feedback","","html-keyboard-response","374","446635","0.0-1.0-519.0-0.0","0","0","90971","","null","","","null","57","","","","","","","","","","","","","","","",""
"","time_out","","html-keyboard-response","375","448643","0.0-1.0-521.0-0.0","0","0","90971","","null","","","null","57","","","","","","","","","","","","","","","",""
"","ITI","","html-keyboard-response","376","449648","0.0-1.0-522.0","0","0","90971","","null","","","null","57","","","","","","","","","","","","","","","NaN",""
"","S1","","html-keyboard-response","377","449903","0.0-1.0-524.0","0","0","90971","","null","","","null","58","","","","","","","","","","","","","","","",""
"","ISI","","html-keyboard-response","378","450408","0.0-1.0-525.0","0","0","90971","","225","","","75","58","k","","","","","","","","","","","","","","",""
"","S2","","html-keyboard-response","379","450664","0.0-1.0-526.0","0","0","90971","","null","","","null","58","","NaN","","","","","","","","","","","","","",""
"","response","","html-keyboard-response","380","450912","0.0-1.0-527.0-0.0","0","0","90971","","233","","","75","58","","","2","58","training","adjacent","GF","7","6","P.jpg","R.jpg","1","0","0","",""
"","feedback","","html-keyboard-response","381","451919","0.0-1.0-528.0-0.0","0","0","90971","","null","","","null","58","","","","","","","","","","","","","","","",""
"","time_out","","html-keyboard-response","382","453923","0.0-1.0-530.0-0.0","0","0","90971","","null","","","null","58","","","","","","","","","","","","","","","",""
"","ITI","","html-keyboard-response","383","454928","0.0-1.0-531.0","0","0","90971","","null","","","null","58","","","","","","","","","","","","","","","NaN",""
"","S1","","html-keyboard-response","384","455181","0.0-1.0-533.0","0","0","90971","","null","","","null","59","","","","","","","","","","","","","","","",""
"","ISI","","html-keyboard-response","385","455685","0.0-1.0-534.0","0","0","90971","","339","","","75","59","k","","","","","","","","","","","","","","",""
"","S2","","html-keyboard-response","386","455942","0.0-1.0-535.0","0","0","90971","","null","","","null","59","","NaN","","","","","","","","","","","","","",""
"","response","","html-keyboard-response","387","456243","0.0-1.0-536.0-0.0","0","0","90971","","296","","","75","59","","","2","59","training","adjacent","DC","4","3","L.jpg","N.jpg","1","0","0","",""
"","feedback","","html-keyboard-response","388","457248","0.0-1.0-537.0-0.0","0","0","90971","","null","","","null","59","","","","","","","","","","","","","","","",""
"","time_out","","html-keyboard-response","389","459254","0.0-1.0-539.0-0.0","0","0","90971","","null","","","null","59","","","","","","","","","","","","","","","",""
"","ITI","","html-keyboard-response","390","460259","0.0-1.0-540.0","0","0","90971","","null","","","null","59","","","","","","","","","","","","","","","NaN",""
"","S1","","html-keyboard-response","391","460514","0.0-1.0-542.0","0","0","90971","","null","","","null","60","","","","","","","","","","","","","","","",""
"","ISI","","html-keyboard-response","392","461019","0.0-1.0-543.0","0","0","90971","","363","","","68","60","d","","","","","","","","","","","","","","",""
"","S2","","html-keyboard-response","393","461273","0.0-1.0-544.0","0","0","90971","","null","","","null","60","","NaN","","","","","","","","","","","","","",""
"","response","","html-keyboard-response","394","461469","0.0-1.0-545.0-0.0","0","0","90971","","193","","","68","60","","","2","60","training","adjacent","BA","2","1","Q.jpg","M.jpg","0","0","1","",""
"","feedback","","html-keyboard-response","395","462477","0.0-1.0-546.0-0.0","0","0","90971","","null","","","null","60","","","","","","","","","","","","","","","",""
"","ITI","","html-keyboard-response","396","463482","0.0-1.0-549.0","0","0","90971","","null","","","null","60","","","","","","","","","","","","","","","NaN",""
"","S1","","html-keyboard-response","397","463735","0.0-1.0-551.0","0","0","90971","","null","","","null","61","","","","","","","","","","","","","","","",""
"","ISI","","html-keyboard-response","398","464239","0.0-1.0-552.0","0","0","90971","","null","","","null","61","NaN","","","","","","","","","","","","","","",""
"","S2","","html-keyboard-response","399","464493","0.0-1.0-553.0","0","0","90971","","null","","","null","61","","NaN","","","","","","","","","","","","","",""
"","response","","html-keyboard-response","400","464910","0.0-1.0-554.0-0.0","0","0","90971","","414","","","75","61","","","2","61","training","adjacent","CD","3","4","N.jpg","L.jpg","1","1","1","",""
"","feedback","","html-keyboard-response","401","465915","0.0-1.0-555.0-0.0","0","0","90971","","null","","","null","61","","","","","","","","","","","","","","","",""
"","ITI","","html-keyboard-response","402","466937","0.0-1.0-558.0","0","0","90971","","null","","","null","61","","","","","","","","","","","","","","","NaN",""
"","S1","","html-keyboard-response","403","467191","0.0-1.0-560.0","0","0","90971","","null","","","null","62","","","","","","","","","","","","","","","",""
"","ISI","","html-keyboard-response","404","467714","0.0-1.0-561.0","0","0","90971","","null","","","null","62","NaN","","","","","","","","","","","","","","",""
"","S2","","html-keyboard-response","405","467967","0.0-1.0-562.0","0","0","90971","","null","","","null","62","","NaN","","","","","","","","","","","","","",""
"","response","","html-keyboard-response","406","468640","0.0-1.0-563.0-0.0","0","0","90971","","670","","","68","62","","","2","62","training","adjacent","FE","6","5","R.jpg","O.jpg","0","0","1","",""
"","feedback","","html-keyboard-response","407","469645","0.0-1.0-564.0-0.0","0","0","90971","","null","","","null","62","","","","","","","","","","","","","","","",""
"","ITI","","html-keyboard-response","408","470647","0.0-1.0-567.0","0","0","90971","","null","","","null","62","","","","","","","","","","","","","","","NaN",""
"","S1","","html-keyboard-response","409","470902","0.0-1.0-569.0","0","0","90971","","null","","","null","63","","","","","","","","","","","","","","","",""
"","ISI","","html-keyboard-response","410","471405","0.0-1.0-570.0","0","0","90971","","null","","","null","63","NaN","","","","","","","","","","","","","","",""
"","S2","","html-keyboard-response","411","471809","0.0-1.0-571.0","0","0","90971","","null","","","null","63","","NaN","","","","","","","","","","","","","",""
"","response","","html-keyboard-response","412","471883","0.0-1.0-572.0-0.0","0","0","90971","","70","","","75","63","","","2","63","training","adjacent","CB","3","2","N.jpg","Q.jpg","1","0","0","",""
"","feedback","","html-keyboard-response","413","472889","0.0-1.0-573.0-0.0","0","0","90971","","null","","","null","63","","","","","","","","","","","","","","","",""
"","time_out","","html-keyboard-response","414","474892","0.0-1.0-575.0-0.0","0","0","90971","","null","","","null","63","","","","","","","","","","","","","","","",""
"","ITI","","html-keyboard-response","415","475938","0.0-1.0-576.0","0","0","90971","","795","","","68","63","","","","","","","","","","","","","","","d",""
"","S1","","html-keyboard-response","416","476192","0.0-1.0-578.0","0","0","90971","","null","","","null","64","","","","","","","","","","","","","","","",""
"","ISI","","html-keyboard-response","417","476708","0.0-1.0-579.0","0","0","90971","","512","","","68","64","d","","","","","","","","","","","","","","",""
"","S2","","html-keyboard-response","418","476962","0.0-1.0-580.0","0","0","90971","","null","","","null","64","","NaN","","","","","","","","","","","","","",""
"","response","","html-keyboard-response","419","477259","0.0-1.0-581.0-0.0","0","0","90971","","294","","","68","64","","","2","64","training","adjacent","FE","6","5","R.jpg","O.jpg","0","0","1","",""
"","feedback","","html-keyboard-response","420","478264","0.0-1.0-582.0-0.0","0","0","90971","","null","","","null","64","","","","","","","","","","","","","","","",""
"","ITI","","html-keyboard-response","421","479268","0.0-1.0-585.0","0","0","90971","","null","","","null","64","","","","","","","","","","","","","","","NaN",""
"","S1","","html-keyboard-response","422","479522","0.0-1.0-587.0","0","0","90971","","null","","","null","65","","","","","","","","","","","","","","","",""
"","ISI","","html-keyboard-response","423","480027","0.0-1.0-588.0","0","0","90971","","null","","","null","65","NaN","","","","","","","","","","","","","","",""
"","S2","","html-keyboard-response","424","480314","0.0-1.0-589.0","0","0","90971","","null","","","null","65","","NaN","","","","","","","","","","","","","",""
"","response","","html-keyboard-response","425","480893","0.0-1.0-590.0-0.0","0","0","90971","","576","","","75","65","","","2","65","training","adjacent","FG","6","7","R.jpg","P.jpg","1","1","1","",""
"","feedback","","html-keyboard-response","426","481898","0.0-1.0-591.0-0.0","0","0","90971","","null","","","null","65","","","","","","","","","","","","","","","",""
"","ITI","","html-keyboard-response","427","482902","0.0-1.0-594.0","0","0","90971","","null","","","null","65","","","","","","","","","","","","","","","NaN",""
"","S1","","html-keyboard-response","428","483155","0.0-1.0-596.0","0","0","90971","","null","","","null","66","","","","","","","","","","","","","","","",""
"","ISI","","html-keyboard-response","429","483659","0.0-1.0-597.0","0","0","90971","","null","","","null","66","NaN","","","","","","","","","","","","","","",""
"","S2","","html-keyboard-response","430","483914","0.0-1.0-598.0","0","0","90971","","null","","","null","66","","NaN","","","","","","","","","","","","","",""
"","response","","html-keyboard-response","431","484579","0.0-1.0-599.0-0.0","0","0","90971","","662","","","68","66","","","2","66","training","adjacent","DE","4","5","L.jpg","O.jpg","0","1","0","",""
"","feedback","","html-keyboard-response","432","485584","0.0-1.0-600.0-0.0","0","0","90971","","null","","","null","66","","","","","","","","","","","","","","","",""
"","time_out","","html-keyboard-response","433","487588","0.0-1.0-602.0-0.0","0","0","90971","","null","","","null","66","","","","","","","","","","","","","","","",""
"","ITI","","html-keyboard-response","434","488592","0.0-1.0-603.0","0","0","90971","","null","","","null","66","","","","","","","","","","","","","","","NaN",""
"","S1","","html-keyboard-response","435","488847","0.0-1.0-605.0","0","0","90971","","null","","","null","67","","","","","","","","","","","","","","","",""
"","ISI","","html-keyboard-response","436","489350","0.0-1.0-606.0","0","0","90971","","null","","","null","67","NaN","","","","","","","","","","","","","","",""
"","S2","","html-keyboard-response","437","489605","0.0-1.0-607.0","0","0","90971","","null","","","null","67","","NaN","","","","","","","","","","","","","",""
"","response","","html-keyboard-response","438","490689","0.0-1.0-608.0-0.0","0","0","90971","","1081","","","75","67","","","2","67","training","adjacent","AB","1","2","M.jpg","Q.jpg","1","1","1","",""
"","feedback","","html-keyboard-response","439","491694","0.0-1.0-609.0-0.0","0","0","90971","","null","","","null","67","","","","","","","","","","","","","","","",""
"","ITI","","html-keyboard-response","440","492698","0.0-1.0-612.0","0","0","90971","","null","","","null","67","","","","","","","","","","","","","","","NaN",""
"","S1","","html-keyboard-response","441","492951","0.0-1.0-614.0","0","0","90971","","null","","","null","68","","","","","","","","","","","","","","","",""
"","ISI","","html-keyboard-response","442","493454","0.0-1.0-615.0","0","0","90971","","null","","","null","68","NaN","","","","","","","","","","","","","","",""
"","S2","","html-keyboard-response","443","493708","0.0-1.0-616.0","0","0","90971","","null","","","null","68","","NaN","","","","","","","","","","","","","",""
"","response","","html-keyboard-response","444","494230","0.0-1.0-617.0-0.0","0","0","90971","","520","","","68","68","","","2","68","training","adjacent","BA","2","1","Q.jpg","M.jpg","0","0","1","",""
"","feedback","","html-keyboard-response","445","495235","0.0-1.0-618.0-0.0","0","0","90971","","null","","","null","68","","","","","","","","","","","","","","","",""
"","ITI","","html-keyboard-response","446","496253","0.0-1.0-621.0","0","0","90971","","null","","","null","68","","","","","","","","","","","","","","","NaN",""
"","S1","","html-keyboard-response","447","496506","0.0-1.0-623.0","0","0","90971","","null","","","null","69","","","","","","","","","","","","","","","",""
"","ISI","","html-keyboard-response","448","497009","0.0-1.0-624.0","0","0","90971","","null","","","null","69","NaN","","","","","","","","","","","","","","",""
"","S2","","html-keyboard-response","449","497263","0.0-1.0-625.0","0","0","90971","","null","","","null","69","","NaN","","","","","","","","","","","","","",""
"","response","","html-keyboard-response","450","499016","0.0-1.0-626.0-0.0","0","0","90971","","null","","","null","69","","","2","69","training","adjacent","BA","2","1","Q.jpg","M.jpg","NaN","0","0","",""
"","too_slow_prompt","","html-keyboard-response","451","500019","0.0-1.0-628.0-0.0","1","0","90971","","null","","","null","","","","","","","","","","","","","","","","",""
"","time_out","","html-keyboard-response","452","502024","0.0-1.0-629.0-0.0","0","0","90971","","null","","","null","69","","","","","","","","","","","","","","","",""
"","ITI","","html-keyboard-response","453","503026","0.0-1.0-630.0","0","0","90971","","null","","","null","69","","","","","","","","","","","","","","","NaN",""
"","S1","","html-keyboard-response","454","503280","0.0-1.0-632.0","0","0","90971","","null","","","null","70","","","","","","","","","","","","","","","",""
"","ISI","","html-keyboard-response","455","503785","0.0-1.0-633.0","0","0","90971","","258","","","68","70","d","","","","","","","","","","","","","","",""
"","S2","","html-keyboard-response","456","503929","0.0-1.0-634.0","0","0","90971","","141","","","68","70","","d","2","70","training","adjacent","GF","7","6","P.jpg","R.jpg","0","0","1","",""
"","feedback","","html-keyboard-response","457","504934","0.0-1.0-636.0-0.0","0","0","90971","","null","","","null","70","","","","","","","","","","","","","","","",""
"","ITI","","html-keyboard-response","458","505938","0.0-1.0-639.0","0","0","90971","","null","","","null","70","","","","","","","","","","","","","","","NaN",""
"","S1","","html-keyboard-response","459","506191","0.0-1.0-641.0","0","0","90971","","null","","","null","71","","","","","","","","","","","","","","","",""
"","ISI","","html-keyboard-response","460","506696","0.0-1.0-642.0","0","0","90971","","355","","","75","71","k","","","","","","","","","","","","","","",""
"","S2","","html-keyboard-response","461","506940","0.0-1.0-643.0","0","0","90971","","237","","","75","71","","k","2","71","training","adjacent","GF","7","6","P.jpg","R.jpg","1","0","0","",""
"","feedback","","html-keyboard-response","462","507944","0.0-1.0-645.0-0.0","0","0","90971","","null","","","null","71","","","","","","","","","","","","","","","",""
"","time_out","","html-keyboard-response","463","509948","0.0-1.0-647.0-0.0","0","0","90971","","null","","","null","71","","","","","","","","","","","","","","","",""
"","ITI","","html-keyboard-response","464","510952","0.0-1.0-648.0","0","0","90971","","648","","","68","71","","","","","","","","","","","","","","","d",""
"","S1","","html-keyboard-response","465","511206","0.0-1.0-650.0","0","0","90971","","null","","","null","72","","","","","","","","","","","","","","","",""
"","ISI","","html-keyboard-response","466","511710","0.0-1.0-651.0","0","0","90971","","null","","","null","72","NaN","","","","","","","","","","","","","","",""
"","S2","","html-keyboard-response","467","511912","0.0-1.0-652.0","0","0","90971","","199","","","68","72","","d","2","72","training","adjacent","DE","4","5","L.jpg","O.jpg","0","1","0","",""
"","feedback","","html-keyboard-response","468","512963","0.0-1.0-654.0-0.0","0","0","90971","","null","","","null","72","","","","","","","","","","","","","","","",""
"","time_out","","html-keyboard-response","469","514966","0.0-1.0-656.0-0.0","0","0","90971","","null","","","null","72","","","","","","","","","","","","","","","",""
"","ITI","","html-keyboard-response","470","515970","0.0-1.0-657.0","0","0","90971","","null","","","null","72","","","","","","","","","","","","","","","NaN",""
"","S1","","html-keyboard-response","471","516223","0.0-1.0-659.0","0","0","90971","","null","","","null","73","","","","","","","","","","","","","","","",""
"","ISI","","html-keyboard-response","472","516728","0.0-1.0-660.0","0","0","90971","","null","","","null","73","NaN","","","","","","","","","","","","","","",""
"","S2","","html-keyboard-response","473","516982","0.0-1.0-661.0","0","0","90971","","null","","","null","73","","NaN","","","","","","","","","","","","","",""
"","response","","html-keyboard-response","474","517059","0.0-1.0-662.0-0.0","0","0","90971","","74","","","68","73","","","2","73","training","adjacent","BA","2","1","Q.jpg","M.jpg","0","0","1","",""
"","feedback","","html-keyboard-response","475","518063","0.0-1.0-663.0-0.0","0","0","90971","","null","","","null","73","","","","","","","","","","","","","","","",""
"","ITI","","html-keyboard-response","476","519075","0.0-1.0-666.0","0","0","90971","","null","","","null","73","","","","","","","","","","","","","","","NaN",""
"","S1","","html-keyboard-response","477","519331","0.0-1.0-668.0","0","0","90971","","null","","","null","74","","","","","","","","","","","","","","","",""
"","ISI","","html-keyboard-response","478","519835","0.0-1.0-669.0","0","0","90971","","null","","","null","74","NaN","","","","","","","","","","","","","","",""
"","S2","","html-keyboard-response","479","520089","0.0-1.0-670.0","0","0","90971","","null","","","null","74","","NaN","","","","","","","","","","","","","",""
"","response","","html-keyboard-response","480","520839","0.0-1.0-671.0-0.0","0","0","90971","","747","","","75","74","","","2","74","training","adjacent","BC","2","3","Q.jpg","N.jpg","1","1","1","",""
"","feedback","","html-keyboard-response","481","521843","0.0-1.0-672.0-0.0","0","0","90971","","null","","","null","74","","","","","","","","","","","","","","","",""
"","ITI","","html-keyboard-response","482","522846","0.0-1.0-675.0","0","0","90971","","null","","","null","74","","","","","","","","","","","","","","","NaN",""
"","S1","","html-keyboard-response","483","523101","0.0-1.0-677.0","0","0","90971","","null","","","null","75","","","","","","","","","","","","","","","",""
"","ISI","","html-keyboard-response","484","523604","0.0-1.0-678.0","0","0","90971","","null","","","null","75","NaN","","","","","","","","","","","","","","",""
"","S2","","html-keyboard-response","485","523859","0.0-1.0-679.0","0","0","90971","","null","","","null","75","","NaN","","","","","","","","","","","","","",""
"","response","","html-keyboard-response","486","524111","0.0-1.0-680.0-0.0","0","0","90971","","249","","","68","75","","","2","75","training","adjacent","AB","1","2","M.jpg","Q.jpg","0","1","0","",""
"","feedback","","html-keyboard-response","487","525115","0.0-1.0-681.0-0.0","0","0","90971","","null","","","null","75","","","","","","","","","","","","","","","",""
"","time_out","","html-keyboard-response","488","527131","0.0-1.0-683.0-0.0","0","0","90971","","null","","","null","75","","","","","","","","","","","","","","","",""
"","ITI","","html-keyboard-response","489","528135","0.0-1.0-684.0","0","0","90971","","null","","","null","75","","","","","","","","","","","","","","","NaN",""
"","S1","","html-keyboard-response","490","528389","0.0-1.0-686.0","0","0","90971","","null","","","null","76","","","","","","","","","","","","","","","",""
"","ISI","","html-keyboard-response","491","528893","0.0-1.0-687.0","0","0","90971","","null","","","null","76","NaN","","","","","","","","","","","","","","",""
"","S2","","html-keyboard-response","492","529148","0.0-1.0-688.0","0","0","90971","","null","","","null","76","","NaN","","","","","","","","","","","","","",""
"","response","","html-keyboard-response","493","529708","0.0-1.0-689.0-0.0","0","0","90971","","557","","","75","76","","","2","76","training","adjacent","FG","6","7","R.jpg","P.jpg","1","1","1","",""
"","feedback","","html-keyboard-response","494","530715","0.0-1.0-690.0-0.0","0","0","90971","","null","","","null","76","","","","","","","","","","","","","","","",""
"","ITI","","html-keyboard-response","495","531722","0.0-1.0-693.0","0","0","90971","","null","","","null","76","","","","","","","","","","","","","","","NaN",""
"","S1","","html-keyboard-response","496","531975","0.0-1.0-695.0","0","0","90971","","null","","","null","77","","","","","","","","","","","","","","","",""
"","ISI","","html-keyboard-response","497","532479","0.0-1.0-696.0","0","0","90971","","null","","","null","77","NaN","","","","","","","","","","","","","","",""
"","S2","","html-keyboard-response","498","532735","0.0-1.0-697.0","0","0","90971","","null","","","null","77","","NaN","","","","","","","","","","","","","",""
"","response","","html-keyboard-response","499","532948","0.0-1.0-698.0-0.0","0","0","90971","","211","","","68","77","","","2","77","training","adjacent","FG","6","7","R.jpg","P.jpg","0","1","0","",""
"","feedback","","html-keyboard-response","500","533951","0.0-1.0-699.0-0.0","0","0","90971","","null","","","null","77","","","","","","","","","","","","","","","",""
"","time_out","","html-keyboard-response","501","535956","0.0-1.0-701.0-0.0","0","0","90971","","null","","","null","77","","","","","","","","","","","","","","","",""
"","ITI","","html-keyboard-response","502","536960","0.0-1.0-702.0","0","0","90971","","null","","","null","77","","","","","","","","","","","","","","","NaN",""
"","S1","","html-keyboard-response","503","537220","0.0-1.0-704.0","0","0","90971","","null","","","null","78","","","","","","","","","","","","","","","",""
"","ISI","","html-keyboard-response","504","537724","0.0-1.0-705.0","0","0","90971","","null","","","null","78","NaN","","","","","","","","","","","","","","",""
"","S2","","html-keyboard-response","505","537978","0.0-1.0-706.0","0","0","90971","","null","","","null","78","","NaN","","","","","","","","","","","","","",""
"","response","","html-keyboard-response","506","538021","0.0-1.0-707.0-0.0","0","0","90971","","39","","","75","78","","","2","78","training","adjacent","EF","5","6","O.jpg","R.jpg","1","1","1","",""
"","feedback","","html-keyboard-response","507","539026","0.0-1.0-708.0-0.0","0","0","90971","","null","","","null","78","","","","","","","","","","","","","","","",""
"","ITI","","html-keyboard-response","508","540033","0.0-1.0-711.0","0","0","90971","","null","","","null","78","","","","","","","","","","","","","","","NaN",""
"","S1","","html-keyboard-response","509","540287","0.0-1.0-713.0","0","0","90971","","null","","","null","79","","","","","","","","","","","","","","","",""
"","ISI","","html-keyboard-response","510","540790","0.0-1.0-714.0","0","0","90971","","null","","","null","79","NaN","","","","","","","","","","","","","","",""
"","S2","","html-keyboard-response","511","541046","0.0-1.0-715.0","0","0","90971","","null","","","null","79","","NaN","","","","","","","","","","","","","",""
"","response","","html-keyboard-response","512","542800","0.0-1.0-716.0-0.0","0","0","90971","","null","","","null","79","","","2","79","training","adjacent","BC","2","3","Q.jpg","N.jpg","NaN","1","0","",""
"","too_slow_prompt","","html-keyboard-response","513","543805","0.0-1.0-718.0-0.0","1","0","90971","","null","","","null","","","","","","","","","","","","","","","","",""
"","time_out","","html-keyboard-response","514","545809","0.0-1.0-719.0-0.0","0","0","90971","","null","","","null","79","","","","","","","","","","","","","","","",""
"","ITI","","html-keyboard-response","515","546835","0.0-1.0-720.0","0","0","90971","","116","","","75","79","","","","","","","","","","","","","","","k",""
"","S1","","html-keyboard-response","516","547089","0.0-1.0-722.0","0","0","90971","","null","","","null","80","","","","","","","","","","","","","","","",""
"","ISI","","html-keyboard-response","517","547596","0.0-1.0-723.0","0","0","90971","","176","","","68","80","d","","","","","","","","","","","","","","",""
"","S2","","html-keyboard-response","518","547680","0.0-1.0-724.0","0","0","90971","","79","","","68","80","","d","2","80","training","adjacent","BC","2","3","Q.jpg","N.jpg","0","1","0","",""
"","feedback","","html-keyboard-response","519","548684","0.0-1.0-726.0-0.0","0","0","90971","","null","","","null","80","","","","","","","","","","","","","","","",""
"","time_out","","html-keyboard-response","520","550686","0.0-1.0-728.0-0.0","0","0","90971","","null","","","null","80","","","","","","","","","","","","","","","",""
"","ITI","","html-keyboard-response","521","551689","0.0-1.0-729.0","0","0","90971","","null","","","null","80","","","","","","","","","","","","","","","NaN",""
"","S1","","html-keyboard-response","522","551947","0.0-1.0-731.0","0","0","90971","","null","","","null","81","","","","","","","","","","","","","","","",""
"","ISI","","html-keyboard-response","523","552451","0.0-1.0-732.0","0","0","90971","","400","","","75","81","k","","","","","","","","","","","","","","",""
"","S2","","html-keyboard-response","524","552610","0.0-1.0-733.0","0","0","90971","","156","","","75","81","","k","2","81","training","adjacent","EF","5","6","O.jpg","R.jpg","1","1","1","",""
"","feedback","","html-keyboard-response","525","553616","0.0-1.0-735.0-0.0","0","0","90971","","null","","","null","81","","","","","","","","","","","","","","","",""
"","ITI","","html-keyboard-response","526","554621","0.0-1.0-738.0","0","0","90971","","null","","","null","81","","","","","","","","","","","","","","","NaN",""
"","S1","","html-keyboard-response","527","554876","0.0-1.0-740.0","0","0","90971","","null","","","null","82","","","","","","","","","","","","","","","",""
"","ISI","","html-keyboard-response","528","555378","0.0-1.0-741.0","0","0","90971","","null","","","null","82","NaN","","","","","","","","","","","","","","",""
"","S2","","html-keyboard-response","529","555632","0.0-1.0-742.0","0","0","90971","","null","","","null","82","","NaN","","","","","","","","","","","","","",""
"","response","","html-keyboard-response","530","555791","0.0-1.0-743.0-0.0","0","0","90971","","154","","","68","82","","","2","82","training","adjacent","CB","3","2","N.jpg","Q.jpg","0","0","1","",""
"","feedback","","html-keyboard-response","531","556795","0.0-1.0-744.0-0.0","0","0","90971","","null","","","null","82","","","","","","","","","","","","","","","",""
"","ITI","","html-keyboard-response","532","557800","0.0-1.0-747.0","0","0","90971","","null","","","null","82","","","","","","","","","","","","","","","NaN",""
"","S1","","html-keyboard-response","533","558054","0.0-1.0-749.0","0","0","90971","","null","","","null","83","","","","","","","","","","","","","","","",""
"","ISI","","html-keyboard-response","534","558570","0.0-1.0-750.0","0","0","90971","","null","","","null","83","NaN","","","","","","","","","","","","","","",""
"","S2","","html-keyboard-response","535","558712","0.0-1.0-751.0","0","0","90971","","140","","","75","83","","k","2","83","training","adjacent","DC","4","3","L.jpg","N.jpg","1","0","0","",""
"","feedback","","html-keyboard-response","536","559717","0.0-1.0-753.0-0.0","0","0","90971","","null","","","null","83","","","","","","","","","","","","","","","",""
"","time_out","","html-keyboard-response","537","561720","0.0-1.0-755.0-0.0","0","0","90971","","null","","","null","83","","","","","","","","","","","","","","","",""
"","ITI","","html-keyboard-response","538","562723","0.0-1.0-756.0","0","0","90971","","null","","","null","83","","","","","","","","","","","","","","","NaN",""
"","S1","","html-keyboard-response","539","563014","0.0-1.0-758.0","0","0","90971","","null","","","null","84","","","","","","","","","","","","","","","",""
"","ISI","","html-keyboard-response","540","563517","0.0-1.0-759.0","0","0","90971","","473","","","68","84","d","","","","","","","","","","","","","","",""
"","S2","","html-keyboard-response","541","563771","0.0-1.0-760.0","0","0","90971","","null","","","null","84","","NaN","","","","","","","","","","","","","",""
"","response","","html-keyboard-response","542","564024","0.0-1.0-761.0-0.0","0","0","90971","","250","","","68","84","","","2","84","training","adjacent","FG","6","7","R.jpg","P.jpg","0","1","0","",""
"","feedback","","html-keyboard-response","543","565031","0.0-1.0-762.0-0.0","0","0","90971","","null","","","null","84","","","","","","","","","","","","","","","",""
"","time_out","","html-keyboard-response","544","567035","0.0-1.0-764.0-0.0","0","0","90971","","null","","","null","84","","","","","","","","","","","","","","","",""
"","ITI","","html-keyboard-response","545","568037","0.0-1.0-765.0","0","0","90971","","null","","","null","84","","","","","","","","","","","","","","","NaN",""
"","S1","","html-keyboard-response","546","568291","0.0-1.0-767.0","0","0","90971","","null","","","null","85","","","","","","","","","","","","","","","",""
"","ISI","","html-keyboard-response","547","568794","0.0-1.0-768.0","0","0","90971","","266","","","75","85","k","","","","","","","","","","","","","","",""
"","S2","","html-keyboard-response","548","568843","0.0-1.0-769.0","0","0","90971","","46","","","75","85","","k","2","85","training","adjacent","GF","7","6","P.jpg","R.jpg","1","0","0","",""
"","feedback","","html-keyboard-response","549","569848","0.0-1.0-771.0-0.0","0","0","90971","","null","","","null","85","","","","","","","","","","","","","","","",""
"","time_out","","html-keyboard-response","550","571851","0.0-1.0-773.0-0.0","0","0","90971","","null","","","null","85","","","","","","","","","","","","","","","",""
"","ITI","","html-keyboard-response","551","572856","0.0-1.0-774.0","0","0","90971","","null","","","null","85","","","","","","","","","","","","","","","NaN",""
"","S1","","html-keyboard-response","552","573111","0.0-1.0-776.0","0","0","90971","","null","","","null","86","","","","","","","","","","","","","","","",""
"","ISI","","html-keyboard-response","553","573615","0.0-1.0-777.0","0","0","90971","","null","","","null","86","NaN","","","","","","","","","","","","","","",""
"","S2","","html-keyboard-response","554","573639","0.0-1.0-778.0","0","0","90971","","22","","","68","86","","d","2","86","training","adjacent","CD","3","4","N.jpg","L.jpg","0","1","0","",""
"","feedback","","html-keyboard-response","555","574643","0.0-1.0-780.0-0.0","0","0","90971","","null","","","null","86","","","","","","","","","","","","","","","",""
"","time_out","","html-keyboard-response","556","576648","0.0-1.0-782.0-0.0","0","0","90971","","null","","","null","86","","","","","","","","","","","","","","","",""
"","ITI","","html-keyboard-response","557","577652","0.0-1.0-783.0","0","0","90971","","null","","","null","86","","","","","","","","","","","","","","","NaN",""
"","S1","","html-keyboard-response","558","577907","0.0-1.0-785.0","0","0","90971","","null","","","null","87","","","","","","","","","","","","","","","",""
"","ISI","","html-keyboard-response","559","578410","0.0-1.0-786.0","0","0","90971","","189","","","75","87","k","","","","","","","","","","","","","","",""
"","S2","","html-keyboard-response","560","578579","0.0-1.0-787.0","0","0","90971","","166","","","75","87","","k","2","87","training","adjacent","AB","1","2","M.jpg","Q.jpg","1","1","1","",""
"","feedback","","html-keyboard-response","561","579583","0.0-1.0-789.0-0.0","0","0","90971","","null","","","null","87","","","","","","","","","","","","","","","",""
"","ITI","","html-keyboard-response","562","580586","0.0-1.0-792.0","0","0","90971","","null","","","null","87","","","","","","","","","","","","","","","NaN",""
"","S1","","html-keyboard-response","563","580920","0.0-1.0-794.0","0","0","90971","","null","","","null","88","","","","","","","","","","","","","","","",""
"","ISI","","html-keyboard-response","564","581423","0.0-1.0-795.0","0","0","90971","","null","","","null","88","NaN","","","","","","","","","","","","","","",""
"","S2","","html-keyboard-response","565","581677","0.0-1.0-796.0","0","0","90971","","null","","","null","88","","NaN","","","","","","","","","","","","","",""
"","response","","html-keyboard-response","566","581861","0.0-1.0-797.0-0.0","0","0","90971","","181","","","68","88","","","2","88","training","adjacent","CB","3","2","N.jpg","Q.jpg","0","0","1","",""
"","feedback","","html-keyboard-response","567","582867","0.0-1.0-798.0-0.0","0","0","90971","","null","","","null","88","","","","","","","","","","","","","","","",""
"","ITI","","html-keyboard-response","568","583869","0.0-1.0-801.0","0","0","90971","","null","","","null","88","","","","","","","","","","","","","","","NaN",""
"","S1","","html-keyboard-response","569","584123","0.0-1.0-803.0","0","0","90971","","null","","","null","89","","","","","","","","","","","","","","","",""
"","ISI","","html-keyboard-response","570","584626","0.0-1.0-804.0","0","0","90971","","null","","","null","89","NaN","","","","","","","","","","","","","","",""
"","S2","","html-keyboard-response","571","584880","0.0-1.0-805.0","0","0","90971","","null","","","null","89","","NaN","","","","","","","","","","","","","",""
"","response","","html-keyboard-response","572","585338","0.0-1.0-806.0-0.0","0","0","90971","","456","","","75","89","","","2","89","training","adjacent","ED","5","4","O.jpg","L.jpg","1","0","0","",""
"","feedback","","html-keyboard-response","573","586342","0.0-1.0-807.0-0.0","0","0","90971","","null","","","null","89","","","","","","","","","","","","","","","",""
"","time_out","","html-keyboard-response","574","588346","0.0-1.0-809.0-0.0","0","0","90971","","null","","","null","89","","","","","","","","","","","","","","","",""
"","ITI","","html-keyboard-response","575","589350","0.0-1.0-810.0","0","0","90971","","null","","","null","89","","","","","","","","","","","","","","","NaN",""
"","S1","","html-keyboard-response","576","589604","0.0-1.0-812.0","0","0","90971","","null","","","null","90","","","","","","","","","","","","","","","",""
"","ISI","","html-keyboard-response","577","590109","0.0-1.0-813.0","0","0","90971","","322","","","68","90","d","","","","","","","","","","","","","","",""
"","S2","","html-keyboard-response","578","590362","0.0-1.0-814.0","0","0","90971","","null","","","null","90","","NaN","","","","","","","","","","","","","",""
"","response","","html-keyboard-response","579","590388","0.0-1.0-815.0-0.0","0","0","90971","","24","","","68","90","","","2","90","training","adjacent","AB","1","2","M.jpg","Q.jpg","0","1","0","",""
"","feedback","","html-keyboard-response","580","591393","0.0-1.0-816.0-0.0","0","0","90971","","null","","","null","90","","","","","","","","","","","","","","","",""
"","time_out","","html-keyboard-response","581","593398","0.0-1.0-818.0-0.0","0","0","90971","","null","","","null","90","","","","","","","","","","","","","","","",""
"","ITI","","html-keyboard-response","582","594424","0.0-1.0-819.0","0","0","90971","","null","","","null","90","","","","","","","","","","","","","","","NaN",""
"","S1","","html-keyboard-response","583","594677","0.0-1.0-821.0","0","0","90971","","null","","","null","91","","","","","","","","","","","","","","","",""
