"success","ttype","start_time","trial_type","trial_index","time_elapsed","internal_node_id","warning","missed_checkup","PID","view_history","rt","responses","repeat_instructions","key_press","index","keypress_isi","keypress_S2","block","trial_num","phase","group_type","pair_type","S1_stim","S2_stim","S1_img","S2_img","S1_chosen","S1_higher","accuracy","keypress_iti","total_bonus_tally"
"true","full_screen","d08042022hr1750","fullscreen","0","13014","0.0-0.0","0","0","47885","","","","","","","","","","","","","","","","","","","","","",""
"","instructions","","instructions","1","57883","0.0-1.0-0.0-0.0","0","0","47885","[{""page_index"":0,""viewing_time"":4410},{""page_index"":1,""viewing_time"":30316},{""page_index"":2,""viewing_time"":6338},{""page_index"":3,""viewing_time"":3765}]","44853","","","","","","","","","","","","","","","","","","","",""
"","comprehension_check","","survey-multi-choice","2","105435","0.0-1.0-0.0-1.0","0","0","47885","","47518","{""Q0"":""True"",""Q1"":""D"",""Q2"":""Only when the screen 'MAKE A CHOICE' is shown"",""Q3"":""Green mark"",""Q4"":""either D or K""}","1","","","","","","","","","","","","","","","","","",""
"","missed_instruction_checkup","","html-keyboard-response","3","110813","0.0-1.0-0.0-2.0-0.0","0","1","47885","","5336","","","32","","","","","","","","","","","","","","","","",""
"","instructions","","instructions","4","125888","0.0-1.0-0.1-0.1","0","0","47885","[{""page_index"":0,""viewing_time"":2494},{""page_index"":1,""viewing_time"":2347},{""page_index"":2,""viewing_time"":7067},{""page_index"":3,""viewing_time"":3161}]","15069","","","","","","","","","","","","","","","","","","","",""
"","comprehension_check","","survey-multi-choice","5","158633","0.0-1.0-0.1-1.1","0","0","47885","","32728","{""Q0"":""True"",""Q1"":""D"",""Q2"":""Once the second image appears and while the screen 'MAKE A CHOICE' is shown"",""Q3"":""Green mark"",""Q4"":""either D or K""}","1","","","","","","","","","","","","","","","","","",""
"","missed_instruction_checkup","","html-keyboard-response","6","161176","0.0-1.0-0.1-2.1-0.1","0","1","47885","","2522","","","32","","","","","","","","","","","","","","","","",""
"","instructions","","instructions","7","171768","0.0-1.0-0.2-0.2","0","0","47885","[{""page_index"":0,""viewing_time"":1704},{""page_index"":1,""viewing_time"":6931},{""page_index"":2,""viewing_time"":1062},{""page_index"":3,""viewing_time"":889}]","10586","","","","","","","","","","","","","","","","","","","",""
"","comprehension_check","","survey-multi-choice","8","180979","0.0-1.0-0.2-1.2","0","0","47885","","9196","{""Q0"":""True"",""Q1"":""K"",""Q2"":""Once the second image appears and while the screen 'MAKE A CHOICE' is shown"",""Q3"":""Green mark"",""Q4"":""either D or K""}","0","","","","","","","","","","","","","","","","","",""
"","start_exp","","html-keyboard-response","9","187021","0.0-1.0-1.0","0","0","47885","","6034","","","32","","","","","","","","","","","","","","","","",""
"","S1","","html-keyboard-response","10","187280","0.0-1.0-2.0","0","0","47885","","null","","","null","0","","","","","","","","","","","","","","","",""
"","ISI","","html-keyboard-response","11","189287","0.0-1.0-3.0","0","0","47885","","1040","","","75","0","k","","","","","","","","","","","","","","",""
"","S2","","html-keyboard-response","12","189550","0.0-1.0-4.0","0","0","47885","","null","","","null","0","","NaN","","","","","","","","","","","","","",""
"","response","","html-keyboard-response","13","190151","0.0-1.0-5.0-0.0","0","0","47885","","593","","","68","0","","","1","0","training","adjacent","DC","4","3","L.jpg","O.jpg","0","0","1","",""
"","feedback","","html-keyboard-response","14","191172","0.0-1.0-6.0-0.0","0","0","47885","","null","","","null","0","","","","","","","","","","","","","","","",""
"","ITI","","html-keyboard-response","15","192184","0.0-1.0-9.0","0","0","47885","","null","","","null","0","","","","","","","","","","","","","","","NaN",""
"","S1","","html-keyboard-response","16","192491","0.0-1.0-11.0","0","0","47885","","null","","","null","1","","","","","","","","","","","","","","","",""
"","ISI","","html-keyboard-response","17","194549","0.0-1.0-12.0","0","0","47885","","269","","","68","1","d","","","","","","","","","","","","","","",""
"","S2","","html-keyboard-response","18","194813","0.0-1.0-13.0","0","0","47885","","null","","","null","1","","NaN","","","","","","","","","","","","","",""
"","response","","html-keyboard-response","19","195367","0.0-1.0-14.0-0.0","0","0","47885","","548","","","68","1","","","1","1","training","adjacent","DE","4","5","L.jpg","N.jpg","0","1","0","",""
"","feedback","","html-keyboard-response","20","196374","0.0-1.0-15.0-0.0","0","0","47885","","null","","","null","1","","","","","","","","","","","","","","","",""
"","time_out","","html-keyboard-response","21","198381","0.0-1.0-17.0-0.0","0","0","47885","","null","","","null","1","","","","","","","","","","","","","","","",""
"","ITI","","html-keyboard-response","22","199396","0.0-1.0-18.0","0","0","47885","","null","","","null","1","","","","","","","","","","","","","","","NaN",""
"","S1","","html-keyboard-response","23","199667","0.0-1.0-20.0","0","0","47885","","null","","","null","2","","","","","","","","","","","","","","","",""
"","ISI","","html-keyboard-response","24","201673","0.0-1.0-21.0","0","0","47885","","263","","","68","2","d","","","","","","","","","","","","","","",""
"","S2","","html-keyboard-response","25","201929","0.0-1.0-22.0","0","0","47885","","null","","","null","2","","NaN","","","","","","","","","","","","","",""
"","response","","html-keyboard-response","26","202149","0.0-1.0-23.0-0.0","0","0","47885","","203","","","68","2","","","1","2","training","adjacent","AB","1","2","R.jpg","Q.jpg","0","1","0","",""
"","feedback","","html-keyboard-response","27","203154","0.0-1.0-24.0-0.0","0","0","47885","","null","","","null","2","","","","","","","","","","","","","","","",""
"","time_out","","html-keyboard-response","28","205158","0.0-1.0-26.0-0.0","0","0","47885","","null","","","null","2","","","","","","","","","","","","","","","",""
"","ITI","","html-keyboard-response","29","206164","0.0-1.0-27.0","0","0","47885","","150","","","68","2","","","","","","","","","","","","","","","d",""
"","S1","","html-keyboard-response","30","206427","0.0-1.0-29.0","0","0","47885","","null","","","null","3","","","","","","","","","","","","","","","",""
"","ISI","","html-keyboard-response","31","208445","0.0-1.0-30.0","0","0","47885","","75","","","68","3","d","","","","","","","","","","","","","","",""
"","S2","","html-keyboard-response","32","208588","0.0-1.0-31.0","0","0","47885","","137","","","68","3","","d","1","3","training","adjacent","FG","6","7","M.jpg","P.jpg","0","1","0","",""
"","feedback","","html-keyboard-response","33","209594","0.0-1.0-33.0-0.0","0","0","47885","","null","","","null","3","","","","","","","","","","","","","","","",""
"","time_out","","html-keyboard-response","34","211612","0.0-1.0-35.0-0.0","0","0","47885","","null","","","null","3","","","","","","","","","","","","","","","",""
"","ITI","","html-keyboard-response","35","212618","0.0-1.0-36.0","0","0","47885","","122","","","75","3","","","","","","","","","","","","","","","k",""
"","S1","","html-keyboard-response","36","212874","0.0-1.0-38.0","0","0","47885","","null","","","null","4","","","","","","","","","","","","","","","",""
"","ISI","","html-keyboard-response","37","214880","0.0-1.0-39.0","0","0","47885","","78","","","75","4","k","","","","","","","","","","","","","","",""
"","S2","","html-keyboard-response","38","215136","0.0-1.0-40.0","0","0","47885","","null","","","null","4","","NaN","","","","","","","","","","","","","",""
"","response","","html-keyboard-response","39","215154","0.0-1.0-41.0-0.0","0","0","47885","","14","","","68","4","","","1","4","training","adjacent","BA","2","1","Q.jpg","R.jpg","0","0","1","",""
"","feedback","","html-keyboard-response","40","216167","0.0-1.0-42.0-0.0","0","0","47885","","null","","","null","4","","","","","","","","","","","","","","","",""
"","ITI","","html-keyboard-response","41","217173","0.0-1.0-45.0","0","0","47885","","61","","","75","4","","","","","","","","","","","","","","","k",""
"","S1","","html-keyboard-response","42","217431","0.0-1.0-47.0","0","0","47885","","null","","","null","5","","","","","","","","","","","","","","","",""
"","ISI","","html-keyboard-response","43","219439","0.0-1.0-48.0","0","0","47885","","8","","","75","5","k","","","","","","","","","","","","","","",""
"","S2","","html-keyboard-response","44","219580","0.0-1.0-49.0","0","0","47885","","134","","","75","5","","k","1","5","training","adjacent","AB","1","2","R.jpg","Q.jpg","1","1","1","",""
"","feedback","","html-keyboard-response","45","220606","0.0-1.0-51.0-0.0","0","0","47885","","null","","","null","5","","","","","","","","","","","","","","","",""
"","ITI","","html-keyboard-response","46","221640","0.0-1.0-54.0","0","0","47885","","133","","","68","5","","","","","","","","","","","","","","","d",""
"","S1","","html-keyboard-response","47","221921","0.0-1.0-56.0","0","0","47885","","null","","","null","6","","","","","","","","","","","","","","","",""
"","ISI","","html-keyboard-response","48","223938","0.0-1.0-57.0","0","0","47885","","106","","","68","6","d","","","","","","","","","","","","","","",""
"","S2","","html-keyboard-response","49","223945","0.0-1.0-58.0","0","0","47885","","1","","","68","6","","d","1","6","training","adjacent","GF","7","6","P.jpg","M.jpg","0","0","1","",""
"","feedback","","html-keyboard-response","50","225227","0.0-1.0-60.0-0.0","0","0","47885","","null","","","null","6","","","","","","","","","","","","","","","",""
"","ITI","","html-keyboard-response","51","226245","0.0-1.0-63.0","0","0","47885","","18","","","75","6","","","","","","","","","","","","","","","k",""
"","S1","","html-keyboard-response","52","226512","0.0-1.0-65.0","0","0","47885","","null","","","null","7","","","","","","","","","","","","","","","",""
"","ISI","","html-keyboard-response","53","228578","0.0-1.0-66.0","0","0","47885","","43","","","75","7","k","","","","","","","","","","","","","","",""
"","S2","","html-keyboard-response","54","228710","0.0-1.0-67.0","0","0","47885","","127","","","75","7","","k","1","7","training","adjacent","ED","5","4","N.jpg","L.jpg","1","0","0","",""
"","feedback","","html-keyboard-response","55","229716","0.0-1.0-69.0-0.0","0","0","47885","","null","","","null","7","","","","","","","","","","","","","","","",""
"","time_out","","html-keyboard-response","56","231756","0.0-1.0-71.0-0.0","0","0","47885","","null","","","null","7","","","","","","","","","","","","","","","",""
"","ITI","","html-keyboard-response","57","232917","0.0-1.0-72.0","0","0","47885","","0","","","75","7","","","","","","","","","","","","","","","k",""
"","S1","","html-keyboard-response","58","233574","0.0-1.0-74.0","0","0","47885","","null","","","null","8","","","","","","","","","","","","","","","",""
"","ISI","","html-keyboard-response","59","235590","0.0-1.0-75.0","0","0","47885","","515","","","68","8","d","","","","","","","","","","","","","","",""
"","S2","","html-keyboard-response","60","235605","0.0-1.0-76.0","0","0","47885","","3","","","75","8","","k","1","8","training","adjacent","GF","7","6","P.jpg","M.jpg","1","0","0","",""
"","feedback","","html-keyboard-response","61","236618","0.0-1.0-78.0-0.0","0","0","47885","","null","","","null","8","","","","","","","","","","","","","","","",""
"","time_out","","html-keyboard-response","62","238640","0.0-1.0-80.0-0.0","0","0","47885","","null","","","null","8","","","","","","","","","","","","","","","",""
"","ITI","","html-keyboard-response","63","239647","0.0-1.0-81.0","0","0","47885","","134","","","68","8","","","","","","","","","","","","","","","d",""
"","S1","","html-keyboard-response","64","239906","0.0-1.0-83.0","0","0","47885","","null","","","null","9","","","","","","","","","","","","","","","",""
"","ISI","","html-keyboard-response","65","241914","0.0-1.0-84.0","0","0","47885","","65","","","68","9","d","","","","","","","","","","","","","","",""
"","S2","","html-keyboard-response","66","241961","0.0-1.0-85.0","0","0","47885","","41","","","75","9","","k","1","9","training","adjacent","BC","2","3","Q.jpg","O.jpg","1","1","1","",""
"","feedback","","html-keyboard-response","67","242989","0.0-1.0-87.0-0.0","0","0","47885","","null","","","null","9","","","","","","","","","","","","","","","",""
"","ITI","","html-keyboard-response","68","244000","0.0-1.0-90.0","0","0","47885","","149","","","75","9","","","","","","","","","","","","","","","k",""
"","S1","","html-keyboard-response","69","244266","0.0-1.0-92.0","0","0","47885","","null","","","null","10","","","","","","","","","","","","","","","",""
"","ISI","","html-keyboard-response","70","246277","0.0-1.0-93.0","0","0","47885","","143","","","68","10","d","","","","","","","","","","","","","","",""
"","S2","","html-keyboard-response","71","246406","0.0-1.0-94.0","0","0","47885","","119","","","75","10","","k","1","10","training","adjacent","BC","2","3","Q.jpg","O.jpg","1","1","1","",""
"","feedback","","html-keyboard-response","72","247416","0.0-1.0-96.0-0.0","0","0","47885","","null","","","null","10","","","","","","","","","","","","","","","",""
"","ITI","","html-keyboard-response","73","248444","0.0-1.0-99.0","0","0","47885","","4","","","75","10","","","","","","","","","","","","","","","k",""
"","S1","","html-keyboard-response","74","248706","0.0-1.0-101.0","0","0","47885","","null","","","null","11","","","","","","","","","","","","","","","",""
"","ISI","","html-keyboard-response","75","250715","0.0-1.0-102.0","0","0","47885","","103","","","75","11","k","","","","","","","","","","","","","","",""
"","S2","","html-keyboard-response","76","250811","0.0-1.0-103.0","0","0","47885","","84","","","75","11","","k","1","11","training","adjacent","BC","2","3","Q.jpg","O.jpg","1","1","1","",""
"","feedback","","html-keyboard-response","77","251932","0.0-1.0-105.0-0.0","0","0","47885","","null","","","null","11","","","","","","","","","","","","","","","",""
"","ITI","","html-keyboard-response","78","253046","0.0-1.0-108.0","0","0","47885","","131","","","68","11","","","","","","","","","","","","","","","d",""
"","S1","","html-keyboard-response","79","253325","0.0-1.0-110.0","0","0","47885","","null","","","null","12","","","","","","","","","","","","","","","",""
"","ISI","","html-keyboard-response","80","255331","0.0-1.0-111.0","0","0","47885","","4","","","68","12","d","","","","","","","","","","","","","","",""
"","S2","","html-keyboard-response","81","255466","0.0-1.0-112.0","0","0","47885","","124","","","75","12","","k","1","12","training","adjacent","FE","6","5","M.jpg","N.jpg","1","0","0","",""
"","feedback","","html-keyboard-response","82","256482","0.0-1.0-114.0-0.0","0","0","47885","","null","","","null","12","","","","","","","","","","","","","","","",""
"","time_out","","html-keyboard-response","83","258520","0.0-1.0-116.0-0.0","0","0","47885","","null","","","null","12","","","","","","","","","","","","","","","",""
"","ITI","","html-keyboard-response","84","259610","0.0-1.0-117.0","0","0","47885","","59","","","68","12","","","","","","","","","","","","","","","d",""
"","S1","","html-keyboard-response","85","259876","0.0-1.0-119.0","0","0","47885","","null","","","null","13","","","","","","","","","","","","","","","",""
"","ISI","","html-keyboard-response","86","261882","0.0-1.0-120.0","0","0","47885","","47","","","75","13","k","","","","","","","","","","","","","","",""
"","S2","","html-keyboard-response","87","261989","0.0-1.0-121.0","0","0","47885","","101","","","68","13","","d","1","13","training","adjacent","CD","3","4","O.jpg","L.jpg","0","1","0","",""
"","feedback","","html-keyboard-response","88","263000","0.0-1.0-123.0-0.0","0","0","47885","","null","","","null","13","","","","","","","","","","","","","","","",""
"","time_out","","html-keyboard-response","89","265011","0.0-1.0-125.0-0.0","0","0","47885","","null","","","null","13","","","","","","","","","","","","","","","",""
"","ITI","","html-keyboard-response","90","266017","0.0-1.0-126.0","0","0","47885","","null","","","null","13","","","","","","","","","","","","","","","NaN",""
"","S1","","html-keyboard-response","91","266275","0.0-1.0-128.0","0","0","47885","","null","","","null","14","","","","","","","","","","","","","","","",""
"","ISI","","html-keyboard-response","92","268280","0.0-1.0-129.0","0","0","47885","","219","","","75","14","k","","","","","","","","","","","","","","",""
"","S2","","html-keyboard-response","93","268561","0.0-1.0-130.0","0","0","47885","","null","","","null","14","","NaN","","","","","","","","","","","","","",""
"","response","","html-keyboard-response","94","268953","0.0-1.0-131.0-0.0","0","0","47885","","382","","","68","14","","","1","14","training","adjacent","AB","1","2","R.jpg","Q.jpg","0","1","0","",""
"","feedback","","html-keyboard-response","95","269961","0.0-1.0-132.0-0.0","0","0","47885","","null","","","null","14","","","","","","","","","","","","","","","",""
"","time_out","","html-keyboard-response","96","271972","0.0-1.0-134.0-0.0","0","0","47885","","null","","","null","14","","","","","","","","","","","","","","","",""
"","ITI","","html-keyboard-response","97","272980","0.0-1.0-135.0","0","0","47885","","null","","","null","14","","","","","","","","","","","","","","","NaN",""
"","S1","","html-keyboard-response","98","273251","0.0-1.0-137.0","0","0","47885","","null","","","null","15","","","","","","","","","","","","","","","",""
"","ISI","","html-keyboard-response","99","275267","0.0-1.0-138.0","0","0","47885","","191","","","75","15","k","","","","","","","","","","","","","","",""
"","S2","","html-keyboard-response","100","275526","0.0-1.0-139.0","0","0","47885","","null","","","null","15","","NaN","","","","","","","","","","","","","",""
"","response","","html-keyboard-response","101","275917","0.0-1.0-140.0-0.0","0","0","47885","","382","","","75","15","","","1","15","training","adjacent","DE","4","5","L.jpg","N.jpg","1","1","1","",""
"","feedback","","html-keyboard-response","102","276928","0.0-1.0-141.0-0.0","0","0","47885","","null","","","null","15","","","","","","","","","","","","","","","",""
"","ITI","","html-keyboard-response","103","277937","0.0-1.0-144.0","0","0","47885","","null","","","null","15","","","","","","","","","","","","","","","NaN",""
"","S1","","html-keyboard-response","104","278194","0.0-1.0-146.0","0","0","47885","","null","","","null","16","","","","","","","","","","","","","","","",""
"","ISI","","html-keyboard-response","105","280199","0.0-1.0-147.0","0","0","47885","","435","","","75","16","k","","","","","","","","","","","","","","",""
"","S2","","html-keyboard-response","106","280457","0.0-1.0-148.0","0","0","47885","","null","","","null","16","","NaN","","","","","","","","","","","","","",""
"","response","","html-keyboard-response","107","280718","0.0-1.0-149.0-0.0","0","0","47885","","248","","","75","16","","","1","16","training","adjacent","CB","3","2","O.jpg","Q.jpg","1","0","0","",""
"","feedback","","html-keyboard-response","108","281728","0.0-1.0-150.0-0.0","0","0","47885","","null","","","null","16","","","","","","","","","","","","","","","",""
"","time_out","","html-keyboard-response","109","283737","0.0-1.0-152.0-0.0","0","0","47885","","null","","","null","16","","","","","","","","","","","","","","","",""
"","ITI","","html-keyboard-response","110","284744","0.0-1.0-153.0","0","0","47885","","null","","","null","16","","","","","","","","","","","","","","","NaN",""
"","S1","","html-keyboard-response","111","285002","0.0-1.0-155.0","0","0","47885","","null","","","null","17","","","","","","","","","","","","","","","",""
"","ISI","","html-keyboard-response","112","287007","0.0-1.0-156.0","0","0","47885","","211","","","68","17","d","","","","","","","","","","","","","","",""
"","S2","","html-keyboard-response","113","287263","0.0-1.0-157.0","0","0","47885","","null","","","null","17","","NaN","","","","","","","","","","","","","",""
"","response","","html-keyboard-response","114","287650","0.0-1.0-158.0-0.0","0","0","47885","","383","","","68","17","","","1","17","training","adjacent","BA","2","1","Q.jpg","R.jpg","0","0","1","",""
"","feedback","","html-keyboard-response","115","288659","0.0-1.0-159.0-0.0","0","0","47885","","null","","","null","17","","","","","","","","","","","","","","","",""
"","ITI","","html-keyboard-response","116","289678","0.0-1.0-162.0","0","0","47885","","null","","","null","17","","","","","","","","","","","","","","","NaN",""
"","S1","","html-keyboard-response","117","289939","0.0-1.0-164.0","0","0","47885","","null","","","null","18","","","","","","","","","","","","","","","",""
"","ISI","","html-keyboard-response","118","291951","0.0-1.0-165.0","0","0","47885","","455","","","68","18","d","","","","","","","","","","","","","","",""
"","S2","","html-keyboard-response","119","292214","0.0-1.0-166.0","0","0","47885","","null","","","null","18","","NaN","","","","","","","","","","","","","",""
"","response","","html-keyboard-response","120","292428","0.0-1.0-167.0-0.0","0","0","47885","","209","","","68","18","","","1","18","training","adjacent","BA","2","1","Q.jpg","R.jpg","0","0","1","",""
"","feedback","","html-keyboard-response","121","293435","0.0-1.0-168.0-0.0","0","0","47885","","null","","","null","18","","","","","","","","","","","","","","","",""
"","ITI","","html-keyboard-response","122","294451","0.0-1.0-171.0","0","0","47885","","null","","","null","18","","","","","","","","","","","","","","","NaN",""
"","S1","","html-keyboard-response","123","294719","0.0-1.0-173.0","0","0","47885","","null","","","null","19","","","","","","","","","","","","","","","",""
"","ISI","","html-keyboard-response","124","296748","0.0-1.0-174.0","0","0","47885","","262","","","68","19","d","","","","","","","","","","","","","","",""
"","S2","","html-keyboard-response","125","297007","0.0-1.0-175.0","0","0","47885","","null","","","null","19","","NaN","","","","","","","","","","","","","",""
"","response","","html-keyboard-response","126","297117","0.0-1.0-176.0-0.0","0","0","47885","","102","","","68","19","","","1","19","training","adjacent","ED","5","4","N.jpg","L.jpg","0","0","1","",""
"","feedback","","html-keyboard-response","127","298126","0.0-1.0-177.0-0.0","0","0","47885","","null","","","null","19","","","","","","","","","","","","","","","",""
"","ITI","","html-keyboard-response","128","299497","0.0-1.0-180.0","0","0","47885","","null","","","null","19","","","","","","","","","","","","","","","NaN",""
"","S1","","html-keyboard-response","129","299769","0.0-1.0-182.0","0","0","47885","","null","","","null","20","","","","","","","","","","","","","","","",""
"","ISI","","html-keyboard-response","130","301793","0.0-1.0-183.0","0","0","47885","","408","","","68","20","d","","","","","","","","","","","","","","",""
"","S2","","html-keyboard-response","131","302054","0.0-1.0-184.0","0","0","47885","","null","","","null","20","","NaN","","","","","","","","","","","","","",""
"","response","","html-keyboard-response","132","302271","0.0-1.0-185.0-0.0","0","0","47885","","212","","","68","20","","","1","20","training","adjacent","CB","3","2","O.jpg","Q.jpg","0","0","1","",""
"","feedback","","html-keyboard-response","133","303290","0.0-1.0-186.0-0.0","0","0","47885","","null","","","null","20","","","","","","","","","","","","","","","",""
"","ITI","","html-keyboard-response","134","304298","0.0-1.0-189.0","0","0","47885","","null","","","null","20","","","","","","","","","","","","","","","NaN",""
"","S1","","html-keyboard-response","135","304556","0.0-1.0-191.0","0","0","47885","","null","","","null","21","","","","","","","","","","","","","","","",""
"","ISI","","html-keyboard-response","136","306580","0.0-1.0-192.0","0","0","47885","","759","","","68","21","d","","","","","","","","","","","","","","",""
"","S2","","html-keyboard-response","137","306836","0.0-1.0-193.0","0","0","47885","","null","","","null","21","","NaN","","","","","","","","","","","","","",""
"","response","","html-keyboard-response","138","307137","0.0-1.0-194.0-0.0","0","0","47885","","294","","","68","21","","","1","21","training","adjacent","CD","3","4","O.jpg","L.jpg","0","1","0","",""
"","feedback","","html-keyboard-response","139","308143","0.0-1.0-195.0-0.0","0","0","47885","","null","","","null","21","","","","","","","","","","","","","","","",""
"","time_out","","html-keyboard-response","140","310154","0.0-1.0-197.0-0.0","0","0","47885","","null","","","null","21","","","","","","","","","","","","","","","",""
"","ITI","","html-keyboard-response","141","311175","0.0-1.0-198.0","0","0","47885","","null","","","null","21","","","","","","","","","","","","","","","NaN",""
"","S1","","html-keyboard-response","142","311443","0.0-1.0-200.0","0","0","47885","","null","","","null","22","","","","","","","","","","","","","","","",""
"","ISI","","html-keyboard-response","143","313456","0.0-1.0-201.0","0","0","47885","","407","","","75","22","k","","","","","","","","","","","","","","",""
"","S2","","html-keyboard-response","144","313713","0.0-1.0-202.0","0","0","47885","","null","","","null","22","","NaN","","","","","","","","","","","","","",""
"","response","","html-keyboard-response","145","313962","0.0-1.0-203.0-0.0","0","0","47885","","241","","","75","22","","","1","22","training","adjacent","EF","5","6","N.jpg","M.jpg","1","1","1","",""
"","feedback","","html-keyboard-response","146","314990","0.0-1.0-204.0-0.0","0","0","47885","","null","","","null","22","","","","","","","","","","","","","","","",""
"","ITI","","html-keyboard-response","147","316000","0.0-1.0-207.0","0","0","47885","","null","","","null","22","","","","","","","","","","","","","","","NaN",""
"","S1","","html-keyboard-response","148","316257","0.0-1.0-209.0","0","0","47885","","null","","","null","23","","","","","","","","","","","","","","","",""
"","ISI","","html-keyboard-response","149","318270","0.0-1.0-210.0","0","0","47885","","274","","","75","23","k","","","","","","","","","","","","","","",""
"","S2","","html-keyboard-response","150","318547","0.0-1.0-211.0","0","0","47885","","null","","","null","23","","NaN","","","","","","","","","","","","","",""
"","response","","html-keyboard-response","151","318609","0.0-1.0-212.0-0.0","0","0","47885","","48","","","75","23","","","1","23","training","adjacent","DC","4","3","L.jpg","O.jpg","1","0","0","",""
"","feedback","","html-keyboard-response","152","319621","0.0-1.0-213.0-0.0","0","0","47885","","null","","","null","23","","","","","","","","","","","","","","","",""
"","time_out","","html-keyboard-response","153","321639","0.0-1.0-215.0-0.0","0","0","47885","","null","","","null","23","","","","","","","","","","","","","","","",""
"","ITI","","html-keyboard-response","154","322654","0.0-1.0-216.0","0","0","47885","","null","","","null","23","","","","","","","","","","","","","","","NaN",""
"","S1","","html-keyboard-response","155","322919","0.0-1.0-218.0","0","0","47885","","null","","","null","24","","","","","","","","","","","","","","","",""
"","ISI","","html-keyboard-response","156","324934","0.0-1.0-219.0","0","0","47885","","211","","","75","24","k","","","","","","","","","","","","","","",""
"","S2","","html-keyboard-response","157","325205","0.0-1.0-220.0","0","0","47885","","null","","","null","24","","NaN","","","","","","","","","","","","","",""
"","response","","html-keyboard-response","158","325531","0.0-1.0-221.0-0.0","0","0","47885","","321","","","75","24","","","1","24","training","adjacent","EF","5","6","N.jpg","M.jpg","1","1","1","",""
"","feedback","","html-keyboard-response","159","326540","0.0-1.0-222.0-0.0","0","0","47885","","null","","","null","24","","","","","","","","","","","","","","","",""
"","ITI","","html-keyboard-response","160","327550","0.0-1.0-225.0","0","0","47885","","null","","","null","24","","","","","","","","","","","","","","","NaN",""
"","S1","","html-keyboard-response","161","327809","0.0-1.0-227.0","0","0","47885","","null","","","null","25","","","","","","","","","","","","","","","",""
"","ISI","","html-keyboard-response","162","329825","0.0-1.0-228.0","0","0","47885","","669","","","68","25","d","","","","","","","","","","","","","","",""
"","S2","","html-keyboard-response","163","330200","0.0-1.0-229.0","0","0","47885","","null","","","null","25","","NaN","","","","","","","","","","","","","",""
"","response","","html-keyboard-response","164","330489","0.0-1.0-230.0-0.0","0","0","47885","","280","","","68","25","","","1","25","training","adjacent","GF","7","6","P.jpg","M.jpg","0","0","1","",""
"","feedback","","html-keyboard-response","165","331519","0.0-1.0-231.0-0.0","0","0","47885","","null","","","null","25","","","","","","","","","","","","","","","",""
"","ITI","","html-keyboard-response","166","332527","0.0-1.0-234.0","0","0","47885","","null","","","null","25","","","","","","","","","","","","","","","NaN",""
"","S1","","html-keyboard-response","167","332796","0.0-1.0-236.0","0","0","47885","","null","","","null","26","","","","","","","","","","","","","","","",""
"","ISI","","html-keyboard-response","168","334804","0.0-1.0-237.0","0","0","47885","","392","","","68","26","d","","","","","","","","","","","","","","",""
"","S2","","html-keyboard-response","169","335065","0.0-1.0-238.0","0","0","47885","","null","","","null","26","","NaN","","","","","","","","","","","","","",""
"","response","","html-keyboard-response","170","335302","0.0-1.0-239.0-0.0","0","0","47885","","230","","","75","26","","","1","26","training","adjacent","CD","3","4","O.jpg","L.jpg","1","1","1","",""
"","feedback","","html-keyboard-response","171","336312","0.0-1.0-240.0-0.0","0","0","47885","","null","","","null","26","","","","","","","","","","","","","","","",""
"","ITI","","html-keyboard-response","172","337356","0.0-1.0-243.0","0","0","47885","","null","","","null","26","","","","","","","","","","","","","","","NaN",""
"","S1","","html-keyboard-response","173","337617","0.0-1.0-245.0","0","0","47885","","null","","","null","27","","","","","","","","","","","","","","","",""
"","ISI","","html-keyboard-response","174","339789","0.0-1.0-246.0","0","0","47885","","139","","","75","27","k","","","","","","","","","","","","","","",""
"","S2","","html-keyboard-response","175","340058","0.0-1.0-247.0","0","0","47885","","null","","","null","27","","NaN","","","","","","","","","","","","","",""
"","response","","html-keyboard-response","176","340418","0.0-1.0-248.0-0.0","0","0","47885","","338","","","68","27","","","1","27","training","adjacent","GF","7","6","P.jpg","M.jpg","0","0","1","",""
"","feedback","","html-keyboard-response","177","341425","0.0-1.0-249.0-0.0","0","0","47885","","null","","","null","27","","","","","","","","","","","","","","","",""
"","ITI","","html-keyboard-response","178","342442","0.0-1.0-252.0","0","0","47885","","null","","","null","27","","","","","","","","","","","","","","","NaN",""
"","S1","","html-keyboard-response","179","342808","0.0-1.0-254.0","0","0","47885","","null","","","null","28","","","","","","","","","","","","","","","",""
"","ISI","","html-keyboard-response","180","344822","0.0-1.0-255.0","0","0","47885","","514","","","75","28","k","","","","","","","","","","","","","","",""
"","S2","","html-keyboard-response","181","345082","0.0-1.0-256.0","0","0","47885","","null","","","null","28","","NaN","","","","","","","","","","","","","",""
"","response","","html-keyboard-response","182","345448","0.0-1.0-257.0-0.0","0","0","47885","","361","","","68","28","","","1","28","training","adjacent","CB","3","2","O.jpg","Q.jpg","0","0","1","",""
"","feedback","","html-keyboard-response","183","346457","0.0-1.0-258.0-0.0","0","0","47885","","null","","","null","28","","","","","","","","","","","","","","","",""
"","ITI","","html-keyboard-response","184","347485","0.0-1.0-261.0","0","0","47885","","null","","","null","28","","","","","","","","","","","","","","","NaN",""
"","S1","","html-keyboard-response","185","347767","0.0-1.0-263.0","0","0","47885","","null","","","null","29","","","","","","","","","","","","","","","",""
"","ISI","","html-keyboard-response","186","349772","0.0-1.0-264.0","0","0","47885","","239","","","75","29","k","","","","","","","","","","","","","","",""
"","S2","","html-keyboard-response","187","350028","0.0-1.0-265.0","0","0","47885","","null","","","null","29","","NaN","","","","","","","","","","","","","",""
"","response","","html-keyboard-response","188","350327","0.0-1.0-266.0-0.0","0","0","47885","","291","","","68","29","","","1","29","training","adjacent","DE","4","5","L.jpg","N.jpg","0","1","0","",""
"","feedback","","html-keyboard-response","189","351335","0.0-1.0-267.0-0.0","0","0","47885","","null","","","null","29","","","","","","","","","","","","","","","",""
"","time_out","","html-keyboard-response","190","353369","0.0-1.0-269.0-0.0","0","0","47885","","null","","","null","29","","","","","","","","","","","","","","","",""
"","ITI","","html-keyboard-response","191","354379","0.0-1.0-270.0","0","0","47885","","null","","","null","29","","","","","","","","","","","","","","","NaN",""
"","S1","","html-keyboard-response","192","354636","0.0-1.0-272.0","0","0","47885","","null","","","null","30","","","","","","","","","","","","","","","",""
"","ISI","","html-keyboard-response","193","356643","0.0-1.0-273.0","0","0","47885","","532","","","75","30","k","","","","","","","","","","","","","","",""
"","S2","","html-keyboard-response","194","356898","0.0-1.0-274.0","0","0","47885","","null","","","null","30","","NaN","","","","","","","","","","","","","",""
"","response","","html-keyboard-response","195","357048","0.0-1.0-275.0-0.0","0","0","47885","","144","","","75","30","","","1","30","training","adjacent","AB","1","2","R.jpg","Q.jpg","1","1","1","",""
"","feedback","","html-keyboard-response","196","358103","0.0-1.0-276.0-0.0","0","0","47885","","null","","","null","30","","","","","","","","","","","","","","","",""
"","ITI","","html-keyboard-response","197","359123","0.0-1.0-279.0","0","0","47885","","null","","","null","30","","","","","","","","","","","","","","","NaN",""
"","S1","","html-keyboard-response","198","359384","0.0-1.0-281.0","0","0","47885","","null","","","null","31","","","","","","","","","","","","","","","",""
"","ISI","","html-keyboard-response","199","361413","0.0-1.0-282.0","0","0","47885","","331","","","75","31","k","","","","","","","","","","","","","","",""
"","S2","","html-keyboard-response","200","361686","0.0-1.0-283.0","0","0","47885","","null","","","null","31","","NaN","","","","","","","","","","","","","",""
"","response","","html-keyboard-response","201","361872","0.0-1.0-284.0-0.0","0","0","47885","","158","","","75","31","","","1","31","training","adjacent","FE","6","5","M.jpg","N.jpg","1","0","0","",""
"","feedback","","html-keyboard-response","202","362900","0.0-1.0-285.0-0.0","0","0","47885","","null","","","null","31","","","","","","","","","","","","","","","",""
"","time_out","","html-keyboard-response","203","365142","0.0-1.0-287.0-0.0","0","0","47885","","null","","","null","31","","","","","","","","","","","","","","","",""
"","ITI","","html-keyboard-response","204","366318","0.0-1.0-288.0","0","0","47885","","null","","","null","31","","","","","","","","","","","","","","","NaN",""
"","S1","","html-keyboard-response","205","366817","0.0-1.0-290.0","0","0","47885","","null","","","null","32","","","","","","","","","","","","","","","",""
"","ISI","","html-keyboard-response","206","368888","0.0-1.0-291.0","0","0","47885","","35","","","68","32","d","","","","","","","","","","","","","","",""
"","S2","","html-keyboard-response","207","369170","0.0-1.0-292.0","0","0","47885","","null","","","null","32","","NaN","","","","","","","","","","","","","",""
"","response","","html-keyboard-response","208","369735","0.0-1.0-293.0-0.0","0","0","47885","","557","","","68","32","","","1","32","training","adjacent","DC","4","3","L.jpg","O.jpg","0","0","1","",""
"","feedback","","html-keyboard-response","209","370742","0.0-1.0-294.0-0.0","0","0","47885","","null","","","null","32","","","","","","","","","","","","","","","",""
"","ITI","","html-keyboard-response","210","371749","0.0-1.0-297.0","0","0","47885","","null","","","null","32","","","","","","","","","","","","","","","NaN",""
"","S1","","html-keyboard-response","211","372130","0.0-1.0-299.0","0","0","47885","","null","","","null","33","","","","","","","","","","","","","","","",""
"","ISI","","html-keyboard-response","212","374145","0.0-1.0-300.0","0","0","47885","","843","","","68","33","d","","","","","","","","","","","","","","",""
"","S2","","html-keyboard-response","213","374411","0.0-1.0-301.0","0","0","47885","","null","","","null","33","","NaN","","","","","","","","","","","","","",""
"","response","","html-keyboard-response","214","375027","0.0-1.0-302.0-0.0","0","0","47885","","595","","","68","33","","","1","33","training","adjacent","FE","6","5","M.jpg","N.jpg","0","0","1","",""
"","feedback","","html-keyboard-response","215","376077","0.0-1.0-303.0-0.0","0","0","47885","","null","","","null","33","","","","","","","","","","","","","","","",""
"","ITI","","html-keyboard-response","216","377102","0.0-1.0-306.0","0","0","47885","","null","","","null","33","","","","","","","","","","","","","","","NaN",""
"","S1","","html-keyboard-response","217","377373","0.0-1.0-308.0","0","0","47885","","null","","","null","34","","","","","","","","","","","","","","","",""
"","ISI","","html-keyboard-response","218","379383","0.0-1.0-309.0","0","0","47885","","469","","","68","34","d","","","","","","","","","","","","","","",""
"","S2","","html-keyboard-response","219","379639","0.0-1.0-310.0","0","0","47885","","null","","","null","34","","NaN","","","","","","","","","","","","","",""
"","response","","html-keyboard-response","220","379859","0.0-1.0-311.0-0.0","0","0","47885","","206","","","68","34","","","1","34","training","adjacent","DE","4","5","L.jpg","N.jpg","0","1","0","",""
"","feedback","","html-keyboard-response","221","380870","0.0-1.0-312.0-0.0","0","0","47885","","null","","","null","34","","","","","","","","","","","","","","","",""
"","time_out","","html-keyboard-response","222","382952","0.0-1.0-314.0-0.0","0","0","47885","","null","","","null","34","","","","","","","","","","","","","","","",""
"","ITI","","html-keyboard-response","223","383961","0.0-1.0-315.0","0","0","47885","","253","","","75","34","","","","","","","","","","","","","","","k",""
"","S1","","html-keyboard-response","224","384218","0.0-1.0-317.0","0","0","47885","","null","","","null","35","","","","","","","","","","","","","","","",""
"","ISI","","html-keyboard-response","225","386224","0.0-1.0-318.0","0","0","47885","","256","","","75","35","k","","","","","","","","","","","","","","",""
"","S2","","html-keyboard-response","226","386482","0.0-1.0-319.0","0","0","47885","","null","","","null","35","","NaN","","","","","","","","","","","","","",""
"","response","","html-keyboard-response","227","386767","0.0-1.0-320.0-0.0","0","0","47885","","275","","","75","35","","","1","35","training","adjacent","BA","2","1","Q.jpg","R.jpg","1","0","0","",""
"","feedback","","html-keyboard-response","228","387814","0.0-1.0-321.0-0.0","0","0","47885","","null","","","null","35","","","","","","","","","","","","","","","",""
"","time_out","","html-keyboard-response","229","389846","0.0-1.0-323.0-0.0","0","0","47885","","null","","","null","35","","","","","","","","","","","","","","","",""
"","ITI","","html-keyboard-response","230","390862","0.0-1.0-324.0","0","0","47885","","null","","","null","35","","","","","","","","","","","","","","","NaN",""
"","S1","","html-keyboard-response","231","391133","0.0-1.0-326.0","0","0","47885","","null","","","null","36","","","","","","","","","","","","","","","",""
"","ISI","","html-keyboard-response","232","393143","0.0-1.0-327.0","0","0","47885","","332","","","68","36","d","","","","","","","","","","","","","","",""
"","S2","","html-keyboard-response","233","393400","0.0-1.0-328.0","0","0","47885","","null","","","null","36","","NaN","","","","","","","","","","","","","",""
"","response","","html-keyboard-response","234","393558","0.0-1.0-329.0-0.0","0","0","47885","","152","","","68","36","","","1","36","training","adjacent","ED","5","4","N.jpg","L.jpg","0","0","1","",""
"","feedback","","html-keyboard-response","235","394566","0.0-1.0-330.0-0.0","0","0","47885","","null","","","null","36","","","","","","","","","","","","","","","",""
"","ITI","","html-keyboard-response","236","395577","0.0-1.0-333.0","0","0","47885","","null","","","null","36","","","","","","","","","","","","","","","NaN",""
"","S1","","html-keyboard-response","237","395873","0.0-1.0-335.0","0","0","47885","","null","","","null","37","","","","","","","","","","","","","","","",""
"","ISI","","html-keyboard-response","238","397886","0.0-1.0-336.0","0","0","47885","","210","","","68","37","d","","","","","","","","","","","","","","",""
"","S2","","html-keyboard-response","239","398161","0.0-1.0-337.0","0","0","47885","","null","","","null","37","","NaN","","","","","","","","","","","","","",""
"","response","","html-keyboard-response","240","398569","0.0-1.0-338.0-0.0","0","0","47885","","371","","","75","37","","","1","37","training","adjacent","BC","2","3","Q.jpg","O.jpg","1","1","1","",""
"","feedback","","html-keyboard-response","241","399576","0.0-1.0-339.0-0.0","0","0","47885","","null","","","null","37","","","","","","","","","","","","","","","",""
"","ITI","","html-keyboard-response","242","400590","0.0-1.0-342.0","0","0","47885","","null","","","null","37","","","","","","","","","","","","","","","NaN",""
"","S1","","html-keyboard-response","243","400877","0.0-1.0-344.0","0","0","47885","","null","","","null","38","","","","","","","","","","","","","","","",""
"","ISI","","html-keyboard-response","244","402911","0.0-1.0-345.0","0","0","47885","","362","","","75","38","k","","","","","","","","","","","","","","",""
"","S2","","html-keyboard-response","245","403168","0.0-1.0-346.0","0","0","47885","","null","","","null","38","","NaN","","","","","","","","","","","","","",""
"","response","","html-keyboard-response","246","403452","0.0-1.0-347.0-0.0","0","0","47885","","276","","","75","38","","","1","38","training","adjacent","DC","4","3","L.jpg","O.jpg","1","0","0","",""
"","feedback","","html-keyboard-response","247","404460","0.0-1.0-348.0-0.0","0","0","47885","","null","","","null","38","","","","","","","","","","","","","","","",""
"","time_out","","html-keyboard-response","248","406471","0.0-1.0-350.0-0.0","0","0","47885","","null","","","null","38","","","","","","","","","","","","","","","",""
"","ITI","","html-keyboard-response","249","407485","0.0-1.0-351.0","0","0","47885","","null","","","null","38","","","","","","","","","","","","","","","NaN",""
"","S1","","html-keyboard-response","250","407755","0.0-1.0-353.0","0","0","47885","","null","","","null","39","","","","","","","","","","","","","","","",""
"","ISI","","html-keyboard-response","251","409788","0.0-1.0-354.0","0","0","47885","","907","","","68","39","d","","","","","","","","","","","","","","",""
"","S2","","html-keyboard-response","252","410047","0.0-1.0-355.0","0","0","47885","","null","","","null","39","","NaN","","","","","","","","","","","","","",""
"","response","","html-keyboard-response","253","410321","0.0-1.0-356.0-0.0","0","0","47885","","266","","","68","39","","","1","39","training","adjacent","EF","5","6","N.jpg","M.jpg","0","1","0","",""
"","feedback","","html-keyboard-response","254","411351","0.0-1.0-357.0-0.0","0","0","47885","","null","","","null","39","","","","","","","","","","","","","","","",""
"","time_out","","html-keyboard-response","255","413435","0.0-1.0-359.0-0.0","0","0","47885","","null","","","null","39","","","","","","","","","","","","","","","",""
"","ITI","","html-keyboard-response","256","414458","0.0-1.0-360.0","0","0","47885","","null","","","null","39","","","","","","","","","","","","","","","NaN",""
"","S1","","html-keyboard-response","257","414735","0.0-1.0-362.0","0","0","47885","","null","","","null","40","","","","","","","","","","","","","","","",""
"","ISI","","html-keyboard-response","258","416744","0.0-1.0-363.0","0","0","47885","","508","","","68","40","d","","","","","","","","","","","","","","",""
"","S2","","html-keyboard-response","259","417007","0.0-1.0-364.0","0","0","47885","","null","","","null","40","","NaN","","","","","","","","","","","","","",""
"","response","","html-keyboard-response","260","417508","0.0-1.0-365.0-0.0","0","0","47885","","492","","","68","40","","","1","40","training","adjacent","FG","6","7","M.jpg","P.jpg","0","1","0","",""
"","feedback","","html-keyboard-response","261","418515","0.0-1.0-366.0-0.0","0","0","47885","","null","","","null","40","","","","","","","","","","","","","","","",""
"","time_out","","html-keyboard-response","262","420539","0.0-1.0-368.0-0.0","0","0","47885","","null","","","null","40","","","","","","","","","","","","","","","",""
"","ITI","","html-keyboard-response","263","421546","0.0-1.0-369.0","0","0","47885","","null","","","null","40","","","","","","","","","","","","","","","NaN",""
"","S1","","html-keyboard-response","264","421807","0.0-1.0-371.0","0","0","47885","","null","","","null","41","","","","","","","","","","","","","","","",""
"","ISI","","html-keyboard-response","265","423814","0.0-1.0-372.0","0","0","47885","","253","","","75","41","k","","","","","","","","","","","","","","",""
"","S2","","html-keyboard-response","266","424072","0.0-1.0-373.0","0","0","47885","","null","","","null","41","","NaN","","","","","","","","","","","","","",""
"","response","","html-keyboard-response","267","424378","0.0-1.0-374.0-0.0","0","0","47885","","301","","","75","41","","","1","41","training","adjacent","FG","6","7","M.jpg","P.jpg","1","1","1","",""
"","feedback","","html-keyboard-response","268","425384","0.0-1.0-375.0-0.0","0","0","47885","","null","","","null","41","","","","","","","","","","","","","","","",""
"","ITI","","html-keyboard-response","269","426400","0.0-1.0-378.0","0","0","47885","","null","","","null","41","","","","","","","","","","","","","","","NaN",""
"","S1","","html-keyboard-response","270","426688","0.0-1.0-380.0","0","0","47885","","null","","","null","42","","","","","","","","","","","","","","","",""
"","ISI","","html-keyboard-response","271","428697","0.0-1.0-381.0","0","0","47885","","476","","","75","42","k","","","","","","","","","","","","","","",""
"","S2","","html-keyboard-response","272","428992","0.0-1.0-382.0","0","0","47885","","null","","","null","42","","NaN","","","","","","","","","","","","","",""
"","response","","html-keyboard-response","273","429257","0.0-1.0-383.0-0.0","0","0","47885","","256","","","75","42","","","1","42","training","adjacent","FG","6","7","M.jpg","P.jpg","1","1","1","",""
"","feedback","","html-keyboard-response","274","430268","0.0-1.0-384.0-0.0","0","0","47885","","null","","","null","42","","","","","","","","","","","","","","","",""
"","ITI","","html-keyboard-response","275","431293","0.0-1.0-387.0","0","0","47885","","null","","","null","42","","","","","","","","","","","","","","","NaN",""
"","S1","","html-keyboard-response","276","431554","0.0-1.0-389.0","0","0","47885","","null","","","null","43","","","","","","","","","","","","","","","",""
"","ISI","","html-keyboard-response","277","433561","0.0-1.0-390.0","0","0","47885","","530","","","75","43","k","","","","","","","","","","","","","","",""
"","S2","","html-keyboard-response","278","433817","0.0-1.0-391.0","0","0","47885","","null","","","null","43","","NaN","","","","","","","","","","","","","",""
"","response","","html-keyboard-response","279","434012","0.0-1.0-392.0-0.0","0","0","47885","","188","","","75","43","","","1","43","training","adjacent","CD","3","4","O.jpg","L.jpg","1","1","1","",""
"","feedback","","html-keyboard-response","280","435020","0.0-1.0-393.0-0.0","0","0","47885","","null","","","null","43","","","","","","","","","","","","","","","",""
"","ITI","","html-keyboard-response","281","436052","0.0-1.0-396.0","0","0","47885","","null","","","null","43","","","","","","","","","","","","","","","NaN",""
"","S1","","html-keyboard-response","282","436310","0.0-1.0-398.0","0","0","47885","","null","","","null","44","","","","","","","","","","","","","","","",""
"","ISI","","html-keyboard-response","283","438317","0.0-1.0-399.0","0","0","47885","","415","","","68","44","d","","","","","","","","","","","","","","",""
"","S2","","html-keyboard-response","284","438591","0.0-1.0-400.0","0","0","47885","","null","","","null","44","","NaN","","","","","","","","","","","","","",""
"","response","","html-keyboard-response","285","438763","0.0-1.0-401.0-0.0","0","0","47885","","166","","","68","44","","","1","44","training","adjacent","EF","5","6","N.jpg","M.jpg","0","1","0","",""
"","feedback","","html-keyboard-response","286","439772","0.0-1.0-402.0-0.0","0","0","47885","","null","","","null","44","","","","","","","","","","","","","","","",""
"","time_out","","html-keyboard-response","287","441932","0.0-1.0-404.0-0.0","0","0","47885","","null","","","null","44","","","","","","","","","","","","","","","",""
"","ITI","","html-keyboard-response","288","442955","0.0-1.0-405.0","0","0","47885","","null","","","null","44","","","","","","","","","","","","","","","NaN",""
"","S1","","html-keyboard-response","289","443219","0.0-1.0-407.0","0","0","47885","","null","","","null","45","","","","","","","","","","","","","","","",""
"","ISI","","html-keyboard-response","290","445229","0.0-1.0-408.0","0","0","47885","","353","","","75","45","k","","","","","","","","","","","","","","",""
"","S2","","html-keyboard-response","291","445488","0.0-1.0-409.0","0","0","47885","","null","","","null","45","","NaN","","","","","","","","","","","","","",""
"","response","","html-keyboard-response","292","445835","0.0-1.0-410.0-0.0","0","0","47885","","338","","","75","45","","","1","45","training","adjacent","CB","3","2","O.jpg","Q.jpg","1","0","0","",""
"","feedback","","html-keyboard-response","293","446863","0.0-1.0-411.0-0.0","0","0","47885","","null","","","null","45","","","","","","","","","","","","","","","",""
"","time_out","","html-keyboard-response","294","448892","0.0-1.0-413.0-0.0","0","0","47885","","null","","","null","45","","","","","","","","","","","","","","","",""
"","ITI","","html-keyboard-response","295","449900","0.0-1.0-414.0","0","0","47885","","null","","","null","45","","","","","","","","","","","","","","","NaN",""
"","S1","","html-keyboard-response","296","450204","0.0-1.0-416.0","0","0","47885","","null","","","null","46","","","","","","","","","","","","","","","",""
"","ISI","","html-keyboard-response","297","452214","0.0-1.0-417.0","0","0","47885","","440","","","68","46","d","","","","","","","","","","","","","","",""
"","S2","","html-keyboard-response","298","452475","0.0-1.0-418.0","0","0","47885","","null","","","null","46","","NaN","","","","","","","","","","","","","",""
"","response","","html-keyboard-response","299","452891","0.0-1.0-419.0-0.0","0","0","47885","","400","","","68","46","","","1","46","training","adjacent","FE","6","5","M.jpg","N.jpg","0","0","1","",""
"","feedback","","html-keyboard-response","300","453911","0.0-1.0-420.0-0.0","0","0","47885","","null","","","null","46","","","","","","","","","","","","","","","",""
"","ITI","","html-keyboard-response","301","454956","0.0-1.0-423.0","0","0","47885","","null","","","null","46","","","","","","","","","","","","","","","NaN",""
"","S1","","html-keyboard-response","302","455220","0.0-1.0-425.0","0","0","47885","","null","","","null","47","","","","","","","","","","","","","","","",""
"","ISI","","html-keyboard-response","303","457239","0.0-1.0-426.0","0","0","47885","","510","","","68","47","d","","","","","","","","","","","","","","",""
"","S2","","html-keyboard-response","304","457499","0.0-1.0-427.0","0","0","47885","","null","","","null","47","","NaN","","","","","","","","","","","","","",""
"","response","","html-keyboard-response","305","457766","0.0-1.0-428.0-0.0","0","0","47885","","255","","","68","47","","","1","47","training","adjacent","ED","5","4","N.jpg","L.jpg","0","0","1","",""
"","feedback","","html-keyboard-response","306","458793","0.0-1.0-429.0-0.0","0","0","47885","","null","","","null","47","","","","","","","","","","","","","","","",""
"","ITI","","html-keyboard-response","307","459819","0.0-1.0-432.0","0","0","47885","","null","","","null","47","","","","","","","","","","","","","","","NaN",""
"","block_over","","html-keyboard-response","308","487778","0.0-1.0-433.0-0.0","0","0","47885","","27952","","","32","47","","","","","","","","","","","","","","","",""
"","S1","","html-keyboard-response","309","488090","0.0-1.0-434.0","0","0","47885","","null","","","null","48","","","","","","","","","","","","","","","",""
"","ISI","","html-keyboard-response","310","490139","0.0-1.0-435.0","0","0","47885","","649","","","68","48","d","","","","","","","","","","","","","","",""
"","S2","","html-keyboard-response","311","490447","0.0-1.0-436.0","0","0","47885","","null","","","null","48","","NaN","","","","","","","","","","","","","",""
"","response","","html-keyboard-response","312","491243","0.0-1.0-437.0-0.0","0","0","47885","","784","","","68","48","","","2","48","training","adjacent","ED","5","4","N.jpg","L.jpg","0","0","1","",""
"","feedback","","html-keyboard-response","313","492270","0.0-1.0-438.0-0.0","0","0","47885","","null","","","null","48","","","","","","","","","","","","","","","",""
"","ITI","","html-keyboard-response","314","493276","0.0-1.0-441.0","0","0","47885","","null","","","null","48","","","","","","","","","","","","","","","NaN",""
"","S1","","html-keyboard-response","315","493531","0.0-1.0-443.0","0","0","47885","","null","","","null","49","","","","","","","","","","","","","","","",""
"","ISI","","html-keyboard-response","316","495537","0.0-1.0-444.0","0","0","47885","","404","","","68","49","d","","","","","","","","","","","","","","",""
"","S2","","html-keyboard-response","317","495797","0.0-1.0-445.0","0","0","47885","","null","","","null","49","","NaN","","","","","","","","","","","","","",""
"","response","","html-keyboard-response","318","496256","0.0-1.0-446.0-0.0","0","0","47885","","455","","","75","49","","","2","49","training","adjacent","FG","6","7","M.jpg","P.jpg","1","1","1","",""
"","feedback","","html-keyboard-response","319","497262","0.0-1.0-447.0-0.0","0","0","47885","","null","","","null","49","","","","","","","","","","","","","","","",""
"","ITI","","html-keyboard-response","320","498271","0.0-1.0-450.0","0","0","47885","","null","","","null","49","","","","","","","","","","","","","","","NaN",""
"","S1","","html-keyboard-response","321","498527","0.0-1.0-452.0","0","0","47885","","null","","","null","50","","","","","","","","","","","","","","","",""
"","ISI","","html-keyboard-response","322","500535","0.0-1.0-453.0","0","0","47885","","458","","","75","50","k","","","","","","","","","","","","","","",""
"","S2","","html-keyboard-response","323","500795","0.0-1.0-454.0","0","0","47885","","null","","","null","50","","NaN","","","","","","","","","","","","","",""
"","response","","html-keyboard-response","324","501022","0.0-1.0-455.0-0.0","0","0","47885","","217","","","75","50","","","2","50","training","adjacent","FG","6","7","M.jpg","P.jpg","1","1","1","",""
"","feedback","","html-keyboard-response","325","502061","0.0-1.0-456.0-0.0","0","0","47885","","null","","","null","50","","","","","","","","","","","","","","","",""
"","ITI","","html-keyboard-response","326","503074","0.0-1.0-459.0","0","0","47885","","null","","","null","50","","","","","","","","","","","","","","","NaN",""
"","S1","","html-keyboard-response","327","503331","0.0-1.0-461.0","0","0","47885","","null","","","null","51","","","","","","","","","","","","","","","",""
"","ISI","","html-keyboard-response","328","505337","0.0-1.0-462.0","0","0","47885","","300","","","75","51","k","","","","","","","","","","","","","","",""
"","S2","","html-keyboard-response","329","505594","0.0-1.0-463.0","0","0","47885","","null","","","null","51","","NaN","","","","","","","","","","","","","",""
"","response","","html-keyboard-response","330","506010","0.0-1.0-464.0-0.0","0","0","47885","","411","","","68","51","","","2","51","training","adjacent","FE","6","5","M.jpg","N.jpg","0","0","1","",""
"","feedback","","html-keyboard-response","331","507017","0.0-1.0-465.0-0.0","0","0","47885","","null","","","null","51","","","","","","","","","","","","","","","",""
"","ITI","","html-keyboard-response","332","508031","0.0-1.0-468.0","0","0","47885","","null","","","null","51","","","","","","","","","","","","","","","NaN",""
"","S1","","html-keyboard-response","333","508293","0.0-1.0-470.0","0","0","47885","","null","","","null","52","","","","","","","","","","","","","","","",""
"","ISI","","html-keyboard-response","334","510334","0.0-1.0-471.0","0","0","47885","","631","","","75","52","k","","","","","","","","","","","","","","",""
"","S2","","html-keyboard-response","335","510607","0.0-1.0-472.0","0","0","47885","","null","","","null","52","","NaN","","","","","","","","","","","","","",""
"","response","","html-keyboard-response","336","511144","0.0-1.0-473.0-0.0","0","0","47885","","518","","","68","52","","","2","52","training","adjacent","AB","1","2","R.jpg","Q.jpg","0","1","0","",""
"","feedback","","html-keyboard-response","337","512165","0.0-1.0-474.0-0.0","0","0","47885","","null","","","null","52","","","","","","","","","","","","","","","",""
"","time_out","","html-keyboard-response","338","514382","0.0-1.0-476.0-0.0","0","0","47885","","null","","","null","52","","","","","","","","","","","","","","","",""
"","ITI","","html-keyboard-response","339","515426","0.0-1.0-477.0","0","0","47885","","null","","","null","52","","","","","","","","","","","","","","","NaN",""
"","S1","","html-keyboard-response","340","515696","0.0-1.0-479.0","0","0","47885","","null","","","null","53","","","","","","","","","","","","","","","",""
"","ISI","","html-keyboard-response","341","517709","0.0-1.0-480.0","0","0","47885","","281","","","75","53","k","","","","","","","","","","","","","","",""
"","S2","","html-keyboard-response","342","517968","0.0-1.0-481.0","0","0","47885","","null","","","null","53","","NaN","","","","","","","","","","","","","",""
"","response","","html-keyboard-response","343","518291","0.0-1.0-482.0-0.0","0","0","47885","","312","","","68","53","","","2","53","training","adjacent","AB","1","2","R.jpg","Q.jpg","0","1","0","",""
"","feedback","","html-keyboard-response","344","520013","0.0-1.0-483.0-0.0","0","0","47885","","null","","","null","53","","","","","","","","","","","","","","","",""
"","time_out","","html-keyboard-response","345","522030","0.0-1.0-485.0-0.0","0","0","47885","","null","","","null","53","","","","","","","","","","","","","","","",""
"","ITI","","html-keyboard-response","346","523052","0.0-1.0-486.0","0","0","47885","","null","","","null","53","","","","","","","","","","","","","","","NaN",""
"","S1","","html-keyboard-response","347","523319","0.0-1.0-488.0","0","0","47885","","null","","","null","54","","","","","","","","","","","","","","","",""
"","ISI","","html-keyboard-response","348","525332","0.0-1.0-489.0","0","0","47885","","230","","","75","54","k","","","","","","","","","","","","","","",""
"","S2","","html-keyboard-response","349","525588","0.0-1.0-490.0","0","0","47885","","null","","","null","54","","NaN","","","","","","","","","","","","","",""
"","response","","html-keyboard-response","350","526194","0.0-1.0-491.0-0.0","0","0","47885","","602","","","75","54","","","2","54","training","adjacent","FE","6","5","M.jpg","N.jpg","1","0","0","",""
"","feedback","","html-keyboard-response","351","527214","0.0-1.0-492.0-0.0","0","0","47885","","null","","","null","54","","","","","","","","","","","","","","","",""
"","time_out","","html-keyboard-response","352","529238","0.0-1.0-494.0-0.0","0","0","47885","","null","","","null","54","","","","","","","","","","","","","","","",""
"","ITI","","html-keyboard-response","353","530248","0.0-1.0-495.0","0","0","47885","","null","","","null","54","","","","","","","","","","","","","","","NaN",""
"","S1","","html-keyboard-response","354","530581","0.0-1.0-497.0","0","0","47885","","null","","","null","55","","","","","","","","","","","","","","","",""
"","ISI","","html-keyboard-response","355","532591","0.0-1.0-498.0","0","0","47885","","346","","","75","55","k","","","","","","","","","","","","","","",""
"","S2","","html-keyboard-response","356","532849","0.0-1.0-499.0","0","0","47885","","null","","","null","55","","NaN","","","","","","","","","","","","","",""
"","response","","html-keyboard-response","357","533263","0.0-1.0-500.0-0.0","0","0","47885","","408","","","75","55","","","2","55","training","adjacent","CD","3","4","O.jpg","L.jpg","1","1","1","",""
"","feedback","","html-keyboard-response","358","534367","0.0-1.0-501.0-0.0","0","0","47885","","null","","","null","55","","","","","","","","","","","","","","","",""
"","ITI","","html-keyboard-response","359","535381","0.0-1.0-504.0","0","0","47885","","null","","","null","55","","","","","","","","","","","","","","","NaN",""
"","S1","","html-keyboard-response","360","535638","0.0-1.0-506.0","0","0","47885","","null","","","null","56","","","","","","","","","","","","","","","",""
"","ISI","","html-keyboard-response","361","537645","0.0-1.0-507.0","0","0","47885","","479","","","68","56","d","","","","","","","","","","","","","","",""
"","S2","","html-keyboard-response","362","537932","0.0-1.0-508.0","0","0","47885","","null","","","null","56","","NaN","","","","","","","","","","","","","",""
"","response","","html-keyboard-response","363","538304","0.0-1.0-509.0-0.0","0","0","47885","","367","","","68","56","","","2","56","training","adjacent","ED","5","4","N.jpg","L.jpg","0","0","1","",""
"","feedback","","html-keyboard-response","364","539333","0.0-1.0-510.0-0.0","0","0","47885","","null","","","null","56","","","","","","","","","","","","","","","",""
"","ITI","","html-keyboard-response","365","540386","0.0-1.0-513.0","0","0","47885","","null","","","null","56","","","","","","","","","","","","","","","NaN",""
"","S1","","html-keyboard-response","366","540731","0.0-1.0-515.0","0","0","47885","","null","","","null","57","","","","","","","","","","","","","","","",""
"","ISI","","html-keyboard-response","367","542737","0.0-1.0-516.0","0","0","47885","","531","","","75","57","k","","","","","","","","","","","","","","",""
"","S2","","html-keyboard-response","368","543033","0.0-1.0-517.0","0","0","47885","","null","","","null","57","","NaN","","","","","","","","","","","","","",""
"","response","","html-keyboard-response","369","543250","0.0-1.0-518.0-0.0","0","0","47885","","148","","","68","57","","","2","57","training","adjacent","GF","7","6","P.jpg","M.jpg","0","0","1","",""
"","feedback","","html-keyboard-response","370","544257","0.0-1.0-519.0-0.0","0","0","47885","","null","","","null","57","","","","","","","","","","","","","","","",""
"","ITI","","html-keyboard-response","371","545264","0.0-1.0-522.0","0","0","47885","","null","","","null","57","","","","","","","","","","","","","","","NaN",""
"","S1","","html-keyboard-response","372","545524","0.0-1.0-524.0","0","0","47885","","null","","","null","58","","","","","","","","","","","","","","","",""
"","ISI","","html-keyboard-response","373","547532","0.0-1.0-525.0","0","0","47885","","983","","","75","58","k","","","","","","","","","","","","","","",""
"","S2","","html-keyboard-response","374","547798","0.0-1.0-526.0","0","0","47885","","null","","","null","58","","NaN","","","","","","","","","","","","","",""
"","response","","html-keyboard-response","375","548016","0.0-1.0-527.0-0.0","0","0","47885","","210","","","75","58","","","2","58","training","adjacent","BC","2","3","Q.jpg","O.jpg","1","1","1","",""
"","feedback","","html-keyboard-response","376","549032","0.0-1.0-528.0-0.0","0","0","47885","","null","","","null","58","","","","","","","","","","","","","","","",""
"","ITI","","html-keyboard-response","377","550041","0.0-1.0-531.0","0","0","47885","","null","","","null","58","","","","","","","","","","","","","","","NaN",""
"","S1","","html-keyboard-response","378","550306","0.0-1.0-533.0","0","0","47885","","null","","","null","59","","","","","","","","","","","","","","","",""
"","ISI","","html-keyboard-response","379","552312","0.0-1.0-534.0","0","0","47885","","743","","","68","59","d","","","","","","","","","","","","","","",""
"","S2","","html-keyboard-response","380","552568","0.0-1.0-535.0","0","0","47885","","null","","","null","59","","NaN","","","","","","","","","","","","","",""
"","response","","html-keyboard-response","381","552803","0.0-1.0-536.0-0.0","0","0","47885","","229","","","68","59","","","2","59","training","adjacent","DE","4","5","L.jpg","N.jpg","0","1","0","",""
"","feedback","","html-keyboard-response","382","553810","0.0-1.0-537.0-0.0","0","0","47885","","null","","","null","59","","","","","","","","","","","","","","","",""
"","time_out","","html-keyboard-response","383","555820","0.0-1.0-539.0-0.0","0","0","47885","","null","","","null","59","","","","","","","","","","","","","","","",""
"","ITI","","html-keyboard-response","384","556827","0.0-1.0-540.0","0","0","47885","","null","","","null","59","","","","","","","","","","","","","","","NaN",""
"","S1","","html-keyboard-response","385","557095","0.0-1.0-542.0","0","0","47885","","null","","","null","60","","","","","","","","","","","","","","","",""
"","ISI","","html-keyboard-response","386","559101","0.0-1.0-543.0","0","0","47885","","830","","","68","60","d","","","","","","","","","","","","","","",""
"","S2","","html-keyboard-response","387","559358","0.0-1.0-544.0","0","0","47885","","null","","","null","60","","NaN","","","","","","","","","","","","","",""
"","response","","html-keyboard-response","388","559551","0.0-1.0-545.0-0.0","0","0","47885","","189","","","68","60","","","2","60","training","adjacent","DC","4","3","L.jpg","O.jpg","0","0","1","",""
"","feedback","","html-keyboard-response","389","560556","0.0-1.0-546.0-0.0","0","0","47885","","null","","","null","60","","","","","","","","","","","","","","","",""
"","ITI","","html-keyboard-response","390","561560","0.0-1.0-549.0","0","0","47885","","null","","","null","60","","","","","","","","","","","","","","","NaN",""
"","S1","","html-keyboard-response","391","561816","0.0-1.0-551.0","0","0","47885","","null","","","null","61","","","","","","","","","","","","","","","",""
"","ISI","","html-keyboard-response","392","563820","0.0-1.0-552.0","0","0","47885","","505","","","68","61","d","","","","","","","","","","","","","","",""
"","S2","","html-keyboard-response","393","564076","0.0-1.0-553.0","0","0","47885","","null","","","null","61","","NaN","","","","","","","","","","","","","",""
"","response","","html-keyboard-response","394","564238","0.0-1.0-554.0-0.0","0","0","47885","","159","","","68","61","","","2","61","training","adjacent","DC","4","3","L.jpg","O.jpg","0","0","1","",""
"","feedback","","html-keyboard-response","395","565563","0.0-1.0-555.0-0.0","0","0","47885","","null","","","null","61","","","","","","","","","","","","","","","",""
"","ITI","","html-keyboard-response","396","566603","0.0-1.0-558.0","0","0","47885","","null","","","null","61","","","","","","","","","","","","","","","NaN",""
"","S1","","html-keyboard-response","397","566869","0.0-1.0-560.0","0","0","47885","","null","","","null","62","","","","","","","","","","","","","","","",""
"","ISI","","html-keyboard-response","398","568875","0.0-1.0-561.0","0","0","47885","","398","","","75","62","k","","","","","","","","","","","","","","",""
"","S2","","html-keyboard-response","399","569145","0.0-1.0-562.0","0","0","47885","","null","","","null","62","","NaN","","","","","","","","","","","","","",""
"","response","","html-keyboard-response","400","569418","0.0-1.0-563.0-0.0","0","0","47885","","266","","","75","62","","","2","62","training","adjacent","BC","2","3","Q.jpg","O.jpg","1","1","1","",""
"","feedback","","html-keyboard-response","401","570424","0.0-1.0-564.0-0.0","0","0","47885","","null","","","null","62","","","","","","","","","","","","","","","",""
"","ITI","","html-keyboard-response","402","571431","0.0-1.0-567.0","0","0","47885","","null","","","null","62","","","","","","","","","","","","","","","NaN",""
"","S1","","html-keyboard-response","403","571687","0.0-1.0-569.0","0","0","47885","","null","","","null","63","","","","","","","","","","","","","","","",""
"","ISI","","html-keyboard-response","404","573693","0.0-1.0-570.0","0","0","47885","","342","","","75","63","k","","","","","","","","","","","","","","",""
"","S2","","html-keyboard-response","405","573950","0.0-1.0-571.0","0","0","47885","","null","","","null","63","","NaN","","","","","","","","","","","","","",""
"","response","","html-keyboard-response","406","574158","0.0-1.0-572.0-0.0","0","0","47885","","197","","","68","63","","","2","63","training","adjacent","BC","2","3","Q.jpg","O.jpg","0","1","0","",""
"","feedback","","html-keyboard-response","407","575183","0.0-1.0-573.0-0.0","0","0","47885","","null","","","null","63","","","","","","","","","","","","","","","",""
"","time_out","","html-keyboard-response","408","577195","0.0-1.0-575.0-0.0","0","0","47885","","null","","","null","63","","","","","","","","","","","","","","","",""
"","ITI","","html-keyboard-response","409","578216","0.0-1.0-576.0","0","0","47885","","null","","","null","63","","","","","","","","","","","","","","","NaN",""
"","S1","","html-keyboard-response","410","578473","0.0-1.0-578.0","0","0","47885","","null","","","null","64","","","","","","","","","","","","","","","",""
"","ISI","","html-keyboard-response","411","580491","0.0-1.0-579.0","0","0","47885","","619","","","75","64","k","","","","","","","","","","","","","","",""
"","S2","","html-keyboard-response","412","580750","0.0-1.0-580.0","0","0","47885","","null","","","null","64","","NaN","","","","","","","","","","","","","",""
"","response","","html-keyboard-response","413","581017","0.0-1.0-581.0-0.0","0","0","47885","","261","","","75","64","","","2","64","training","adjacent","BA","2","1","Q.jpg","R.jpg","1","0","0","",""
"","feedback","","html-keyboard-response","414","582030","0.0-1.0-582.0-0.0","0","0","47885","","null","","","null","64","","","","","","","","","","","","","","","",""
"","time_out","","html-keyboard-response","415","584045","0.0-1.0-584.0-0.0","0","0","47885","","null","","","null","64","","","","","","","","","","","","","","","",""
"","ITI","","html-keyboard-response","416","585067","0.0-1.0-585.0","0","0","47885","","null","","","null","64","","","","","","","","","","","","","","","NaN",""
"","S1","","html-keyboard-response","417","585324","0.0-1.0-587.0","0","0","47885","","null","","","null","65","","","","","","","","","","","","","","","",""
"","ISI","","html-keyboard-response","418","587395","0.0-1.0-588.0","0","0","47885","","383","","","68","65","d","","","","","","","","","","","","","","",""
"","S2","","html-keyboard-response","419","587666","0.0-1.0-589.0","0","0","47885","","null","","","null","65","","NaN","","","","","","","","","","","","","",""
"","response","","html-keyboard-response","420","587958","0.0-1.0-590.0-0.0","0","0","47885","","287","","","75","65","","","2","65","training","adjacent","BA","2","1","Q.jpg","R.jpg","1","0","0","",""
"","feedback","","html-keyboard-response","421","588964","0.0-1.0-591.0-0.0","0","0","47885","","null","","","null","65","","","","","","","","","","","","","","","",""
"","time_out","","html-keyboard-response","422","590985","0.0-1.0-593.0-0.0","0","0","47885","","null","","","null","65","","","","","","","","","","","","","","","",""
"","ITI","","html-keyboard-response","423","591996","0.0-1.0-594.0","0","0","47885","","null","","","null","65","","","","","","","","","","","","","","","NaN",""
"","S1","","html-keyboard-response","424","592251","0.0-1.0-596.0","0","0","47885","","null","","","null","66","","","","","","","","","","","","","","","",""
"","ISI","","html-keyboard-response","425","594257","0.0-1.0-597.0","0","0","47885","","336","","","75","66","k","","","","","","","","","","","","","","",""
"","S2","","html-keyboard-response","426","594485","0.0-1.0-598.0","0","0","47885","","224","","","75","66","","k","2","66","training","adjacent","ED","5","4","N.jpg","L.jpg","1","0","0","",""
"","feedback","","html-keyboard-response","427","595494","0.0-1.0-600.0-0.0","0","0","47885","","null","","","null","66","","","","","","","","","","","","","","","",""
"","time_out","","html-keyboard-response","428","597506","0.0-1.0-602.0-0.0","0","0","47885","","null","","","null","66","","","","","","","","","","","","","","","",""
"","ITI","","html-keyboard-response","429","598512","0.0-1.0-603.0","0","0","47885","","null","","","null","66","","","","","","","","","","","","","","","NaN",""
"","S1","","html-keyboard-response","430","598770","0.0-1.0-605.0","0","0","47885","","null","","","null","67","","","","","","","","","","","","","","","",""
"","ISI","","html-keyboard-response","431","600783","0.0-1.0-606.0","0","0","47885","","383","","","75","67","k","","","","","","","","","","","","","","",""
"","S2","","html-keyboard-response","432","601046","0.0-1.0-607.0","0","0","47885","","null","","","null","67","","NaN","","","","","","","","","","","","","",""
"","response","","html-keyboard-response","433","601483","0.0-1.0-608.0-0.0","0","0","47885","","431","","","75","67","","","2","67","training","adjacent","FE","6","5","M.jpg","N.jpg","1","0","0","",""
"","feedback","","html-keyboard-response","434","602491","0.0-1.0-609.0-0.0","0","0","47885","","null","","","null","67","","","","","","","","","","","","","","","",""
"","time_out","","html-keyboard-response","435","604499","0.0-1.0-611.0-0.0","0","0","47885","","null","","","null","67","","","","","","","","","","","","","","","",""
"","ITI","","html-keyboard-response","436","605513","0.0-1.0-612.0","0","0","47885","","null","","","null","67","","","","","","","","","","","","","","","NaN",""
"","S1","","html-keyboard-response","437","605784","0.0-1.0-614.0","0","0","47885","","null","","","null","68","","","","","","","","","","","","","","","",""
"","ISI","","html-keyboard-response","438","607793","0.0-1.0-615.0","0","0","47885","","268","","","68","68","d","","","","","","","","","","","","","","",""
"","S2","","html-keyboard-response","439","608051","0.0-1.0-616.0","0","0","47885","","null","","","null","68","","NaN","","","","","","","","","","","","","",""
"","response","","html-keyboard-response","440","608322","0.0-1.0-617.0-0.0","0","0","47885","","265","","","68","68","","","2","68","training","adjacent","GF","7","6","P.jpg","M.jpg","0","0","1","",""
"","feedback","","html-keyboard-response","441","609333","0.0-1.0-618.0-0.0","0","0","47885","","null","","","null","68","","","","","","","","","","","","","","","",""
"","ITI","","html-keyboard-response","442","610374","0.0-1.0-621.0","0","0","47885","","null","","","null","68","","","","","","","","","","","","","","","NaN",""
"","S1","","html-keyboard-response","443","610643","0.0-1.0-623.0","0","0","47885","","null","","","null","69","","","","","","","","","","","","","","","",""
"","ISI","","html-keyboard-response","444","612662","0.0-1.0-624.0","0","0","47885","","641","","","68","69","d","","","","","","","","","","","","","","",""
"","S2","","html-keyboard-response","445","612942","0.0-1.0-625.0","0","0","47885","","null","","","null","69","","NaN","","","","","","","","","","","","","",""
"","response","","html-keyboard-response","446","613154","0.0-1.0-626.0-0.0","0","0","47885","","193","","","68","69","","","2","69","training","adjacent","DC","4","3","L.jpg","O.jpg","0","0","1","",""
"","feedback","","html-keyboard-response","447","614163","0.0-1.0-627.0-0.0","0","0","47885","","null","","","null","69","","","","","","","","","","","","","","","",""
"","ITI","","html-keyboard-response","448","615212","0.0-1.0-630.0","0","0","47885","","null","","","null","69","","","","","","","","","","","","","","","NaN",""
"","S1","","html-keyboard-response","449","615477","0.0-1.0-632.0","0","0","47885","","null","","","null","70","","","","","","","","","","","","","","","",""
"","ISI","","html-keyboard-response","450","617490","0.0-1.0-633.0","0","0","47885","","433","","","68","70","d","","","","","","","","","","","","","","",""
"","S2","","html-keyboard-response","451","617772","0.0-1.0-634.0","0","0","47885","","null","","","null","70","","NaN","","","","","","","","","","","","","",""
"","response","","html-keyboard-response","452","618255","0.0-1.0-635.0-0.0","0","0","47885","","472","","","75","70","","","2","70","training","adjacent","CB","3","2","O.jpg","Q.jpg","1","0","0","",""
"","feedback","","html-keyboard-response","453","619429","0.0-1.0-636.0-0.0","0","0","47885","","null","","","null","70","","","","","","","","","","","","","","","",""
"","time_out","","html-keyboard-response","454","621437","0.0-1.0-638.0-0.0","0","0","47885","","null","","","null","70","","","","","","","","","","","","","","","",""
"","ITI","","html-keyboard-response","455","622450","0.0-1.0-639.0","0","0","47885","","null","","","null","70","","","","","","","","","","","","","","","NaN",""
"","S1","","html-keyboard-response","456","622718","0.0-1.0-641.0","0","0","47885","","null","","","null","71","","","","","","","","","","","","","","","",""
"","ISI","","html-keyboard-response","457","624728","0.0-1.0-642.0","0","0","47885","","286","","","68","71","d","","","","","","","","","","","","","","",""
"","S2","","html-keyboard-response","458","624988","0.0-1.0-643.0","0","0","47885","","null","","","null","71","","NaN","","","","","","","","","","","","","",""
"","response","","html-keyboard-response","459","625117","0.0-1.0-644.0-0.0","0","0","47885","","121","","","68","71","","","2","71","training","adjacent","AB","1","2","R.jpg","Q.jpg","0","1","0","",""
"","feedback","","html-keyboard-response","460","626143","0.0-1.0-645.0-0.0","0","0","47885","","null","","","null","71","","","","","","","","","","","","","","","",""
"","time_out","","html-keyboard-response","461","628176","0.0-1.0-647.0-0.0","0","0","47885","","null","","","null","71","","","","","","","","","","","","","","","",""
"","ITI","","html-keyboard-response","462","629185","0.0-1.0-648.0","0","0","47885","","null","","","null","71","","","","","","","","","","","","","","","NaN",""
"","S1","","html-keyboard-response","463","629453","0.0-1.0-650.0","0","0","47885","","null","","","null","72","","","","","","","","","","","","","","","",""
"","ISI","","html-keyboard-response","464","631522","0.0-1.0-651.0","0","0","47885","","237","","","68","72","d","","","","","","","","","","","","","","",""
"","S2","","html-keyboard-response","465","631778","0.0-1.0-652.0","0","0","47885","","null","","","null","72","","NaN","","","","","","","","","","","","","",""
"","response","","html-keyboard-response","466","632016","0.0-1.0-653.0-0.0","0","0","47885","","210","","","68","72","","","2","72","training","adjacent","FG","6","7","M.jpg","P.jpg","0","1","0","",""
"","feedback","","html-keyboard-response","467","633030","0.0-1.0-654.0-0.0","0","0","47885","","null","","","null","72","","","","","","","","","","","","","","","",""
"","time_out","","html-keyboard-response","468","635036","0.0-1.0-656.0-0.0","0","0","47885","","null","","","null","72","","","","","","","","","","","","","","","",""
"","ITI","","html-keyboard-response","469","636211","0.0-1.0-657.0","0","0","47885","","null","","","null","72","","","","","","","","","","","","","","","NaN",""
"","S1","","html-keyboard-response","470","636471","0.0-1.0-659.0","0","0","47885","","null","","","null","73","","","","","","","","","","","","","","","",""
"","ISI","","html-keyboard-response","471","638479","0.0-1.0-660.0","0","0","47885","","122","","","75","73","k","","","","","","","","","","","","","","",""
"","S2","","html-keyboard-response","472","638736","0.0-1.0-661.0","0","0","47885","","null","","","null","73","","NaN","","","","","","","","","","","","","",""
"","response","","html-keyboard-response","473","638863","0.0-1.0-662.0-0.0","0","0","47885","","98","","","75","73","","","2","73","training","adjacent","GF","7","6","P.jpg","M.jpg","1","0","0","",""
"","feedback","","html-keyboard-response","474","639879","0.0-1.0-663.0-0.0","0","0","47885","","null","","","null","73","","","","","","","","","","","","","","","",""
"","time_out","","html-keyboard-response","475","641888","0.0-1.0-665.0-0.0","0","0","47885","","null","","","null","73","","","","","","","","","","","","","","","",""
"","ITI","","html-keyboard-response","476","642899","0.0-1.0-666.0","0","0","47885","","160","","","75","73","","","","","","","","","","","","","","","k",""
"","S1","","html-keyboard-response","477","643158","0.0-1.0-668.0","0","0","47885","","null","","","null","74","","","","","","","","","","","","","","","",""
"","ISI","","html-keyboard-response","478","645163","0.0-1.0-669.0","0","0","47885","","187","","","75","74","k","","","","","","","","","","","","","","",""
"","S2","","html-keyboard-response","479","645426","0.0-1.0-670.0","0","0","47885","","null","","","null","74","","NaN","","","","","","","","","","","","","",""
"","response","","html-keyboard-response","480","645542","0.0-1.0-671.0-0.0","0","0","47885","","104","","","75","74","","","2","74","training","adjacent","CB","3","2","O.jpg","Q.jpg","1","0","0","",""
"","feedback","","html-keyboard-response","481","646551","0.0-1.0-672.0-0.0","0","0","47885","","null","","","null","74","","","","","","","","","","","","","","","",""
"","time_out","","html-keyboard-response","482","648606","0.0-1.0-674.0-0.0","0","0","47885","","null","","","null","74","","","","","","","","","","","","","","","",""
"","ITI","","html-keyboard-response","483","649636","0.0-1.0-675.0","0","0","47885","","null","","","null","74","","","","","","","","","","","","","","","NaN",""
"","S1","","html-keyboard-response","484","649912","0.0-1.0-677.0","0","0","47885","","null","","","null","75","","","","","","","","","","","","","","","",""
"","ISI","","html-keyboard-response","485","651933","0.0-1.0-678.0","0","0","47885","","null","","","null","75","NaN","","","","","","","","","","","","","","",""
"","S2","","html-keyboard-response","486","652197","0.0-1.0-679.0","0","0","47885","","null","","","null","75","","NaN","","","","","","","","","","","","","",""
"","response","","html-keyboard-response","487","652313","0.0-1.0-680.0-0.0","0","0","47885","","89","","","68","75","","","2","75","training","adjacent","EF","5","6","N.jpg","M.jpg","0","1","0","",""
"","feedback","","html-keyboard-response","488","653326","0.0-1.0-681.0-0.0","0","0","47885","","null","","","null","75","","","","","","","","","","","","","","","",""
"","time_out","","html-keyboard-response","489","655343","0.0-1.0-683.0-0.0","0","0","47885","","null","","","null","75","","","","","","","","","","","","","","","",""
"","ITI","","html-keyboard-response","490","656359","0.0-1.0-684.0","0","0","47885","","950","","","75","75","","","","","","","","","","","","","","","k",""
"","S1","","html-keyboard-response","491","656619","0.0-1.0-686.0","0","0","47885","","null","","","null","76","","","","","","","","","","","","","","","",""
"","ISI","","html-keyboard-response","492","658642","0.0-1.0-687.0","0","0","47885","","275","","","75","76","k","","","","","","","","","","","","","","",""
"","S2","","html-keyboard-response","493","658901","0.0-1.0-688.0","0","0","47885","","null","","","null","76","","NaN","","","","","","","","","","","","","",""
"","response","","html-keyboard-response","494","659037","0.0-1.0-689.0-0.0","0","0","47885","","130","","","75","76","","","2","76","training","adjacent","GF","7","6","P.jpg","M.jpg","1","0","0","",""
"","feedback","","html-keyboard-response","495","660235","0.0-1.0-690.0-0.0","0","0","47885","","null","","","null","76","","","","","","","","","","","","","","","",""
"","time_out","","html-keyboard-response","496","662243","0.0-1.0-692.0-0.0","0","0","47885","","null","","","null","76","","","","","","","","","","","","","","","",""
"","ITI","","html-keyboard-response","497","663255","0.0-1.0-693.0","0","0","47885","","null","","","null","76","","","","","","","","","","","","","","","NaN",""
"","S1","","html-keyboard-response","498","663517","0.0-1.0-695.0","0","0","47885","","null","","","null","77","","","","","","","","","","","","","","","",""
"","ISI","","html-keyboard-response","499","665525","0.0-1.0-696.0","0","0","47885","","162","","","68","77","d","","","","","","","","","","","","","","",""
"","S2","","html-keyboard-response","500","665782","0.0-1.0-697.0","0","0","47885","","null","","","null","77","","NaN","","","","","","","","","","","","","",""
"","response","","html-keyboard-response","501","665896","0.0-1.0-698.0-0.0","0","0","47885","","110","","","68","77","","","2","77","training","adjacent","CB","3","2","O.jpg","Q.jpg","0","0","1","",""
"","feedback","","html-keyboard-response","502","666908","0.0-1.0-699.0-0.0","0","0","47885","","null","","","null","77","","","","","","","","","","","","","","","",""
"","ITI","","html-keyboard-response","503","667922","0.0-1.0-702.0","0","0","47885","","null","","","null","77","","","","","","","","","","","","","","","NaN",""
"","S1","","html-keyboard-response","504","668186","0.0-1.0-704.0","0","0","47885","","null","","","null","78","","","","","","","","","","","","","","","",""
"","ISI","","html-keyboard-response","505","670261","0.0-1.0-705.0","0","0","47885","","428","","","68","78","d","","","","","","","","","","","","","","",""
"","S2","","html-keyboard-response","506","670574","0.0-1.0-706.0","0","0","47885","","null","","","null","78","","NaN","","","","","","","","","","","","","",""
"","response","","html-keyboard-response","507","670866","0.0-1.0-707.0-0.0","0","0","47885","","287","","","68","78","","","2","78","training","adjacent","CB","3","2","O.jpg","Q.jpg","0","0","1","",""
"","feedback","","html-keyboard-response","508","671881","0.0-1.0-708.0-0.0","0","0","47885","","null","","","null","78","","","","","","","","","","","","","","","",""
"","ITI","","html-keyboard-response","509","672886","0.0-1.0-711.0","0","0","47885","","null","","","null","78","","","","","","","","","","","","","","","NaN",""
"","S1","","html-keyboard-response","510","673140","0.0-1.0-713.0","0","0","47885","","null","","","null","79","","","","","","","","","","","","","","","",""
"","ISI","","html-keyboard-response","511","675145","0.0-1.0-714.0","0","0","47885","","239","","","68","79","d","","","","","","","","","","","","","","",""
"","S2","","html-keyboard-response","512","675403","0.0-1.0-715.0","0","0","47885","","null","","","null","79","","NaN","","","","","","","","","","","","","",""
"","response","","html-keyboard-response","513","675541","0.0-1.0-716.0-0.0","0","0","47885","","133","","","68","79","","","2","79","training","adjacent","BC","2","3","Q.jpg","O.jpg","0","1","0","",""
"","feedback","","html-keyboard-response","514","676569","0.0-1.0-717.0-0.0","0","0","47885","","null","","","null","79","","","","","","","","","","","","","","","",""
"","time_out","","html-keyboard-response","515","678582","0.0-1.0-719.0-0.0","0","0","47885","","null","","","null","79","","","","","","","","","","","","","","","",""
"","ITI","","html-keyboard-response","516","679588","0.0-1.0-720.0","0","0","47885","","null","","","null","79","","","","","","","","","","","","","","","NaN",""
"","S1","","html-keyboard-response","517","679846","0.0-1.0-722.0","0","0","47885","","null","","","null","80","","","","","","","","","","","","","","","",""
"","ISI","","html-keyboard-response","518","681861","0.0-1.0-723.0","0","0","47885","","320","","","68","80","d","","","","","","","","","","","","","","",""
"","S2","","html-keyboard-response","519","682118","0.0-1.0-724.0","0","0","47885","","null","","","null","80","","NaN","","","","","","","","","","","","","",""
"","response","","html-keyboard-response","520","682251","0.0-1.0-725.0-0.0","0","0","47885","","125","","","68","80","","","2","80","training","adjacent","DE","4","5","L.jpg","N.jpg","0","1","0","",""
"","feedback","","html-keyboard-response","521","683257","0.0-1.0-726.0-0.0","0","0","47885","","null","","","null","80","","","","","","","","","","","","","","","",""
"","time_out","","html-keyboard-response","522","685263","0.0-1.0-728.0-0.0","0","0","47885","","null","","","null","80","","","","","","","","","","","","","","","",""
"","ITI","","html-keyboard-response","523","686270","0.0-1.0-729.0","0","0","47885","","null","","","null","80","","","","","","","","","","","","","","","NaN",""
"","S1","","html-keyboard-response","524","686526","0.0-1.0-731.0","0","0","47885","","null","","","null","81","","","","","","","","","","","","","","","",""
"","ISI","","html-keyboard-response","525","688544","0.0-1.0-732.0","0","0","47885","","null","","","null","81","NaN","","","","","","","","","","","","","","",""
"","S2","","html-keyboard-response","526","688801","0.0-1.0-733.0","0","0","47885","","null","","","null","81","","NaN","","","","","","","","","","","","","",""
"","response","","html-keyboard-response","527","688970","0.0-1.0-734.0-0.0","0","0","47885","","140","","","68","81","","","2","81","training","adjacent","BA","2","1","Q.jpg","R.jpg","0","0","1","",""
"","feedback","","html-keyboard-response","528","689976","0.0-1.0-735.0-0.0","0","0","47885","","null","","","null","81","","","","","","","","","","","","","","","",""
"","ITI","","html-keyboard-response","529","690984","0.0-1.0-738.0","0","0","47885","","null","","","null","81","","","","","","","","","","","","","","","NaN",""
"","S1","","html-keyboard-response","530","691239","0.0-1.0-740.0","0","0","47885","","null","","","null","82","","","","","","","","","","","","","","","",""
"","ISI","","html-keyboard-response","531","693296","0.0-1.0-741.0","0","0","47885","","245","","","68","82","d","","","","","","","","","","","","","","",""
"","S2","","html-keyboard-response","532","693559","0.0-1.0-742.0","0","0","47885","","null","","","null","82","","NaN","","","","","","","","","","","","","",""
"","response","","html-keyboard-response","533","693645","0.0-1.0-743.0-0.0","0","0","47885","","69","","","68","82","","","2","82","training","adjacent","CD","3","4","O.jpg","L.jpg","0","1","0","",""
"","feedback","","html-keyboard-response","534","694658","0.0-1.0-744.0-0.0","0","0","47885","","null","","","null","82","","","","","","","","","","","","","","","",""
"","time_out","","html-keyboard-response","535","696665","0.0-1.0-746.0-0.0","0","0","47885","","null","","","null","82","","","","","","","","","","","","","","","",""
"","ITI","","html-keyboard-response","536","697671","0.0-1.0-747.0","0","0","47885","","73","","","68","82","","","","","","","","","","","","","","","d",""
"","S1","","html-keyboard-response","537","697928","0.0-1.0-749.0","0","0","47885","","null","","","null","83","","","","","","","","","","","","","","","",""
"","ISI","","html-keyboard-response","538","699937","0.0-1.0-750.0","0","0","47885","","37","","","75","83","k","","","","","","","","","","","","","","",""
"","S2","","html-keyboard-response","539","699996","0.0-1.0-751.0","0","0","47885","","50","","","75","83","","k","2","83","training","adjacent","AB","1","2","R.jpg","Q.jpg","1","1","1","",""
"","feedback","","html-keyboard-response","540","701018","0.0-1.0-753.0-0.0","0","0","47885","","null","","","null","83","","","","","","","","","","","","","","","",""
"","ITI","","html-keyboard-response","541","702024","0.0-1.0-756.0","0","0","47885","","129","","","68","83","","","","","","","","","","","","","","","d",""
"","S1","","html-keyboard-response","542","702286","0.0-1.0-758.0","0","0","47885","","null","","","null","84","","","","","","","","","","","","","","","",""
"","ISI","","html-keyboard-response","543","704325","0.0-1.0-759.0","0","0","47885","","160","","","68","84","d","","","","","","","","","","","","","","",""
"","S2","","html-keyboard-response","544","704389","0.0-1.0-760.0","0","0","47885","","56","","","68","84","","d","2","84","training","adjacent","CD","3","4","O.jpg","L.jpg","0","1","0","",""
"","feedback","","html-keyboard-response","545","705398","0.0-1.0-762.0-0.0","0","0","47885","","null","","","null","84","","","","","","","","","","","","","","","",""
"","time_out","","html-keyboard-response","546","707465","0.0-1.0-764.0-0.0","0","0","47885","","null","","","null","84","","","","","","","","","","","","","","","",""
"","ITI","","html-keyboard-response","547","708474","0.0-1.0-765.0","0","0","47885","","31","","","75","84","","","","","","","","","","","","","","","k",""
"","S1","","html-keyboard-response","548","708750","0.0-1.0-767.0","0","0","47885","","null","","","null","85","","","","","","","","","","","","","","","",""
"","ISI","","html-keyboard-response","549","710796","0.0-1.0-768.0","0","0","47885","","99","","","68","85","d","","","","","","","","","","","","","","",""
"","S2","","html-keyboard-response","550","710815","0.0-1.0-769.0","0","0","47885","","2","","","68","85","","d","2","85","training","adjacent","EF","5","6","N.jpg","M.jpg","0","1","0","",""
"","feedback","","html-keyboard-response","551","711825","0.0-1.0-771.0-0.0","0","0","47885","","null","","","null","85","","","","","","","","","","","","","","","",""
"","time_out","","html-keyboard-response","552","713833","0.0-1.0-773.0-0.0","0","0","47885","","null","","","null","85","","","","","","","","","","","","","","","",""
"","ITI","","html-keyboard-response","553","714860","0.0-1.0-774.0","0","0","47885","","47","","","75","85","","","","","","","","","","","","","","","k",""
"","S1","","html-keyboard-response","554","715122","0.0-1.0-776.0","0","0","47885","","null","","","null","86","","","","","","","","","","","","","","","",""
"","ISI","","html-keyboard-response","555","717147","0.0-1.0-777.0","0","0","47885","","135","","","75","86","k","","","","","","","","","","","","","","",""
"","S2","","html-keyboard-response","556","717197","0.0-1.0-778.0","0","0","47885","","39","","","68","86","","d","2","86","training","adjacent","BA","2","1","Q.jpg","R.jpg","0","0","1","",""
"","feedback","","html-keyboard-response","557","718227","0.0-1.0-780.0-0.0","0","0","47885","","null","","","null","86","","","","","","","","","","","","","","","",""
"","ITI","","html-keyboard-response","558","719235","0.0-1.0-783.0","0","0","47885","","43","","","68","86","","","","","","","","","","","","","","","d",""
"","S1","","html-keyboard-response","559","719510","0.0-1.0-785.0","0","0","47885","","null","","","null","87","","","","","","","","","","","","","","","",""
"","ISI","","html-keyboard-response","560","721531","0.0-1.0-786.0","0","0","47885","","144","","","68","87","d","","","","","","","","","","","","","","",""
"","S2","","html-keyboard-response","561","721641","0.0-1.0-787.0","0","0","47885","","79","","","68","87","","d","2","87","training","adjacent","DC","4","3","L.jpg","O.jpg","0","0","1","",""
"","feedback","","html-keyboard-response","562","722654","0.0-1.0-789.0-0.0","0","0","47885","","null","","","null","87","","","","","","","","","","","","","","","",""
"","ITI","","html-keyboard-response","563","723659","0.0-1.0-792.0","0","0","47885","","66","","","75","87","","","","","","","","","","","","","","","k",""
"","S1","","html-keyboard-response","564","723928","0.0-1.0-794.0","0","0","47885","","null","","","null","88","","","","","","","","","","","","","","","",""
"","ISI","","html-keyboard-response","565","725958","0.0-1.0-795.0","0","0","47885","","51","","","68","88","d","","","","","","","","","","","","","","",""
"","S2","","html-keyboard-response","566","725974","0.0-1.0-796.0","0","0","47885","","6","","","75","88","","k","2","88","training","adjacent","DE","4","5","L.jpg","N.jpg","1","1","1","",""
"","feedback","","html-keyboard-response","567","726988","0.0-1.0-798.0-0.0","0","0","47885","","null","","","null","88","","","","","","","","","","","","","","","",""
"","ITI","","html-keyboard-response","568","728004","0.0-1.0-801.0","0","0","47885","","67","","","75","88","","","","","","","","","","","","","","","k",""
"","S1","","html-keyboard-response","569","728291","0.0-1.0-803.0","0","0","47885","","null","","","null","89","","","","","","","","","","","","","","","",""
"","ISI","","html-keyboard-response","570","730319","0.0-1.0-804.0","0","0","47885","","7","","","75","89","k","","","","","","","","","","","","","","",""
"","S2","","html-keyboard-response","571","730471","0.0-1.0-805.0","0","0","47885","","142","","","68","89","","d","2","89","training","adjacent","FG","6","7","M.jpg","P.jpg","0","1","0","",""
"","feedback","","html-keyboard-response","572","731485","0.0-1.0-807.0-0.0","0","0","47885","","null","","","null","89","","","","","","","","","","","","","","","",""
"","time_out","","html-keyboard-response","573","733491","0.0-1.0-809.0-0.0","0","0","47885","","null","","","null","89","","","","","","","","","","","","","","","",""
"","ITI","","html-keyboard-response","574","734497","0.0-1.0-810.0","0","0","47885","","72","","","75","89","","","","","","","","","","","","","","","k",""
"","S1","","html-keyboard-response","575","734753","0.0-1.0-812.0","0","0","47885","","null","","","null","90","","","","","","","","","","","","","","","",""
"","ISI","","html-keyboard-response","576","736763","0.0-1.0-813.0","0","0","47885","","115","","","68","90","d","","","","","","","","","","","","","","",""
"","S2","","html-keyboard-response","577","736853","0.0-1.0-814.0","0","0","47885","","85","","","75","90","","k","2","90","training","adjacent","FE","6","5","M.jpg","N.jpg","1","0","0","",""
"","feedback","","html-keyboard-response","578","737870","0.0-1.0-816.0-0.0","0","0","47885","","null","","","null","90","","","","","","","","","","","","","","","",""
"","time_out","","html-keyboard-response","579","739877","0.0-1.0-818.0-0.0","0","0","47885","","null","","","null","90","","","","","","","","","","","","","","","",""
"","ITI","","html-keyboard-response","580","740886","0.0-1.0-819.0","0","0","47885","","29","","","75","90","","","","","","","","","","","","","","","k",""
"","S1","","html-keyboard-response","581","741163","0.0-1.0-821.0","0","0","47885","","null","","","null","91","","","","","","","","","","","","","","","",""
"","ISI","","html-keyboard-response","582","743170","0.0-1.0-822.0","0","0","47885","","5","","","75","91","k","","","","","","","","","","","","","","",""
