"success","ttype","start_time","trial_type","trial_index","time_elapsed","internal_node_id","warning","missed_checkup","PID","view_history","rt","responses","repeat_instructions","key_press","index","keypress_isi","keypress_S2","block","trial_num","phase","group_type","pair_type","S1_stim","S2_stim","S1_img","S2_img","S1_chosen","S1_higher","accuracy","keypress_iti","total_bonus_tally"
"true","full_screen","d04132023hr1419","fullscreen","0","7875","0.0-0.0","0","0","41122","","","","","","","","","","","","","","","","","","","","","",""
"","instructions","","instructions","1","46699","0.0-1.0-0.0-0.0","0","0","41122","[{""page_index"":0,""viewing_time"":10011},{""page_index"":1,""viewing_time"":11418},{""page_index"":2,""viewing_time"":13242},{""page_index"":3,""viewing_time"":4148}]","38819","","","","","","","","","","","","","","","","","","","",""
"","comprehension_check","","survey-multi-choice","2","71291","0.0-1.0-0.0-1.0","0","0","41122","","24583","{""Q0"":""True"",""Q1"":""D"",""Q2"":""Once the second image appears and while the screen 'MAKE A CHOICE' is shown"",""Q3"":""Green mark"",""Q4"":""either D or K""}","0","","","","","","","","","","","","","","","","","",""
"","start_exp","","html-keyboard-response","3","73714","0.0-1.0-1.0","0","0","41122","","2416","","","32","","","","","","","","","","","","","","","","",""
"","S1","","html-keyboard-response","4","73967","0.0-1.0-2.0","0","0","41122","","null","","","null","0","","","","","","","","","","","","","","","",""
"","ISI","","html-keyboard-response","5","74970","0.0-1.0-3.0","0","0","41122","","642","","","75","0","k","","","","","","","","","","","","","","",""
"","S2","","html-keyboard-response","6","75223","0.0-1.0-4.0","0","0","41122","","null","","","null","0","","NaN","","","","","","","","","","","","","",""
"","response","","html-keyboard-response","7","75707","0.0-1.0-5.0-0.0","0","0","41122","","481","","","68","0","","","1","0","training","adjacent","CB","3","2","R.jpg","O.jpg","1","0","0","",""
"","feedback","","html-keyboard-response","8","76710","0.0-1.0-6.0-0.0","0","0","41122","","null","","","null","0","","","","","","","","","","","","","","","",""
"","time_out","","html-keyboard-response","9","78714","0.0-1.0-8.0-0.0","0","0","41122","","null","","","null","0","","","","","","","","","","","","","","","",""
"","ITI","","html-keyboard-response","10","79717","0.0-1.0-9.0","0","0","41122","","null","","","null","0","","","","","","","","","","","","","","","NaN",""
"","S1","","html-keyboard-response","11","79969","0.0-1.0-11.0","0","0","41122","","null","","","null","1","","","","","","","","","","","","","","","",""
"","ISI","","html-keyboard-response","12","80972","0.0-1.0-12.0","0","0","41122","","928","","","75","1","k","","","","","","","","","","","","","","",""
"","S2","","html-keyboard-response","13","81226","0.0-1.0-13.0","0","0","41122","","null","","","null","1","","NaN","","","","","","","","","","","","","",""
"","response","","html-keyboard-response","14","81995","0.0-1.0-14.0-0.0","0","0","41122","","765","","","75","1","","","1","1","training","adjacent","CB","3","2","R.jpg","O.jpg","0","0","1","",""
"","feedback","","html-keyboard-response","15","82997","0.0-1.0-15.0-0.0","0","0","41122","","null","","","null","1","","","","","","","","","","","","","","","",""
"","ITI","","html-keyboard-response","16","84000","0.0-1.0-18.0","0","0","41122","","null","","","null","1","","","","","","","","","","","","","","","NaN",""
"","S1","","html-keyboard-response","17","84253","0.0-1.0-20.0","0","0","41122","","null","","","null","2","","","","","","","","","","","","","","","",""
"","ISI","","html-keyboard-response","18","85256","0.0-1.0-21.0","0","0","41122","","null","","","null","2","NaN","","","","","","","","","","","","","","",""
"","S2","","html-keyboard-response","19","85509","0.0-1.0-22.0","0","0","41122","","null","","","null","2","","NaN","","","","","","","","","","","","","",""
"","response","","html-keyboard-response","20","85709","0.0-1.0-23.0-0.0","0","0","41122","","197","","","75","2","","","1","2","training","adjacent","CD","3","4","R.jpg","Q.jpg","0","1","0","",""
"","feedback","","html-keyboard-response","21","86711","0.0-1.0-24.0-0.0","0","0","41122","","null","","","null","2","","","","","","","","","","","","","","","",""
"","time_out","","html-keyboard-response","22","88714","0.0-1.0-26.0-0.0","0","0","41122","","null","","","null","2","","","","","","","","","","","","","","","",""
"","ITI","","html-keyboard-response","23","89718","0.0-1.0-27.0","0","0","41122","","null","","","null","2","","","","","","","","","","","","","","","NaN",""
"","S1","","html-keyboard-response","24","89970","0.0-1.0-29.0","0","0","41122","","null","","","null","3","","","","","","","","","","","","","","","",""
"","ISI","","html-keyboard-response","25","90972","0.0-1.0-30.0","0","0","41122","","null","","","null","3","NaN","","","","","","","","","","","","","","",""
"","S2","","html-keyboard-response","26","91226","0.0-1.0-31.0","0","0","41122","","null","","","null","3","","NaN","","","","","","","","","","","","","",""
"","response","","html-keyboard-response","27","91410","0.0-1.0-32.0-0.0","0","0","41122","","182","","","75","3","","","1","3","training","adjacent","FG","6","7","N.jpg","P.jpg","0","1","0","",""
"","feedback","","html-keyboard-response","28","92413","0.0-1.0-33.0-0.0","0","0","41122","","null","","","null","3","","","","","","","","","","","","","","","",""
"","time_out","","html-keyboard-response","29","94416","0.0-1.0-35.0-0.0","0","0","41122","","null","","","null","3","","","","","","","","","","","","","","","",""
"","ITI","","html-keyboard-response","30","95419","0.0-1.0-36.0","0","0","41122","","null","","","null","3","","","","","","","","","","","","","","","NaN",""
"","S1","","html-keyboard-response","31","95674","0.0-1.0-38.0","0","0","41122","","null","","","null","4","","","","","","","","","","","","","","","",""
"","ISI","","html-keyboard-response","32","96677","0.0-1.0-39.0","0","0","41122","","null","","","null","4","NaN","","","","","","","","","","","","","","",""
"","S2","","html-keyboard-response","33","96931","0.0-1.0-40.0","0","0","41122","","null","","","null","4","","NaN","","","","","","","","","","","","","",""
"","response","","html-keyboard-response","34","97037","0.0-1.0-41.0-0.0","0","0","41122","","103","","","68","4","","","1","4","training","adjacent","DC","4","3","Q.jpg","R.jpg","1","0","0","",""
"","feedback","","html-keyboard-response","35","98040","0.0-1.0-42.0-0.0","0","0","41122","","null","","","null","4","","","","","","","","","","","","","","","",""
"","time_out","","html-keyboard-response","36","100042","0.0-1.0-44.0-0.0","0","0","41122","","null","","","null","4","","","","","","","","","","","","","","","",""
"","ITI","","html-keyboard-response","37","101045","0.0-1.0-45.0","0","0","41122","","null","","","null","4","","","","","","","","","","","","","","","NaN",""
"","S1","","html-keyboard-response","38","101298","0.0-1.0-47.0","0","0","41122","","null","","","null","5","","","","","","","","","","","","","","","",""
"","ISI","","html-keyboard-response","39","102300","0.0-1.0-48.0","0","0","41122","","null","","","null","5","NaN","","","","","","","","","","","","","","",""
"","S2","","html-keyboard-response","40","102554","0.0-1.0-49.0","0","0","41122","","null","","","null","5","","NaN","","","","","","","","","","","","","",""
"","response","","html-keyboard-response","41","102819","0.0-1.0-50.0-0.0","0","0","41122","","262","","","68","5","","","1","5","training","adjacent","ED","5","4","M.jpg","Q.jpg","1","0","0","",""
"","feedback","","html-keyboard-response","42","103823","0.0-1.0-51.0-0.0","0","0","41122","","null","","","null","5","","","","","","","","","","","","","","","",""
"","time_out","","html-keyboard-response","43","105825","0.0-1.0-53.0-0.0","0","0","41122","","null","","","null","5","","","","","","","","","","","","","","","",""
"","ITI","","html-keyboard-response","44","106828","0.0-1.0-54.0","0","0","41122","","null","","","null","5","","","","","","","","","","","","","","","NaN",""
"","S1","","html-keyboard-response","45","107081","0.0-1.0-56.0","0","0","41122","","null","","","null","6","","","","","","","","","","","","","","","",""
"","ISI","","html-keyboard-response","46","108084","0.0-1.0-57.0","0","0","41122","","194","","","75","6","k","","","","","","","","","","","","","","",""
"","S2","","html-keyboard-response","47","108337","0.0-1.0-58.0","0","0","41122","","null","","","null","6","","NaN","","","","","","","","","","","","","",""
"","response","","html-keyboard-response","48","108467","0.0-1.0-59.0-0.0","0","0","41122","","127","","","75","6","","","1","6","training","adjacent","AB","1","2","L.jpg","O.jpg","0","1","0","",""
"","feedback","","html-keyboard-response","49","109472","0.0-1.0-60.0-0.0","0","0","41122","","null","","","null","6","","","","","","","","","","","","","","","",""
"","time_out","","html-keyboard-response","50","111475","0.0-1.0-62.0-0.0","0","0","41122","","null","","","null","6","","","","","","","","","","","","","","","",""
"","ITI","","html-keyboard-response","51","112479","0.0-1.0-63.0","0","0","41122","","null","","","null","6","","","","","","","","","","","","","","","NaN",""
"","S1","","html-keyboard-response","52","112741","0.0-1.0-65.0","0","0","41122","","null","","","null","7","","","","","","","","","","","","","","","",""
"","ISI","","html-keyboard-response","53","113744","0.0-1.0-66.0","0","0","41122","","76","","","68","7","d","","","","","","","","","","","","","","",""
"","S2","","html-keyboard-response","54","113999","0.0-1.0-67.0","0","0","41122","","null","","","null","7","","NaN","","","","","","","","","","","","","",""
"","response","","html-keyboard-response","55","114122","0.0-1.0-68.0-0.0","0","0","41122","","121","","","68","7","","","1","7","training","adjacent","BC","2","3","O.jpg","R.jpg","1","1","1","",""
"","feedback","","html-keyboard-response","56","115126","0.0-1.0-69.0-0.0","0","0","41122","","null","","","null","7","","","","","","","","","","","","","","","",""
"","ITI","","html-keyboard-response","57","116129","0.0-1.0-72.0","0","0","41122","","null","","","null","7","","","","","","","","","","","","","","","NaN",""
"","S1","","html-keyboard-response","58","116382","0.0-1.0-74.0","0","0","41122","","null","","","null","8","","","","","","","","","","","","","","","",""
"","ISI","","html-keyboard-response","59","117389","0.0-1.0-75.0","0","0","41122","","58","","","75","8","k","","","","","","","","","","","","","","",""
"","S2","","html-keyboard-response","60","117638","0.0-1.0-76.0","0","0","41122","","246","","","75","8","","k","1","8","training","adjacent","GF","7","6","P.jpg","N.jpg","0","0","1","",""
"","feedback","","html-keyboard-response","61","118641","0.0-1.0-78.0-0.0","0","0","41122","","null","","","null","8","","","","","","","","","","","","","","","",""
"","ITI","","html-keyboard-response","62","119644","0.0-1.0-81.0","0","0","41122","","null","","","null","8","","","","","","","","","","","","","","","NaN",""
"","S1","","html-keyboard-response","63","119896","0.0-1.0-83.0","0","0","41122","","null","","","null","9","","","","","","","","","","","","","","","",""
"","ISI","","html-keyboard-response","64","120898","0.0-1.0-84.0","0","0","41122","","null","","","null","9","NaN","","","","","","","","","","","","","","",""
"","S2","","html-keyboard-response","65","121151","0.0-1.0-85.0","0","0","41122","","null","","","null","9","","NaN","","","","","","","","","","","","","",""
"","response","","html-keyboard-response","66","121482","0.0-1.0-86.0-0.0","0","0","41122","","328","","","68","9","","","1","9","training","adjacent","BA","2","1","O.jpg","L.jpg","1","0","0","",""
"","feedback","","html-keyboard-response","67","122485","0.0-1.0-87.0-0.0","0","0","41122","","null","","","null","9","","","","","","","","","","","","","","","",""
"","time_out","","html-keyboard-response","68","124487","0.0-1.0-89.0-0.0","0","0","41122","","null","","","null","9","","","","","","","","","","","","","","","",""
"","ITI","","html-keyboard-response","69","125490","0.0-1.0-90.0","0","0","41122","","null","","","null","9","","","","","","","","","","","","","","","NaN",""
"","S1","","html-keyboard-response","70","125745","0.0-1.0-92.0","0","0","41122","","null","","","null","10","","","","","","","","","","","","","","","",""
"","ISI","","html-keyboard-response","71","126748","0.0-1.0-93.0","0","0","41122","","null","","","null","10","NaN","","","","","","","","","","","","","","",""
"","S2","","html-keyboard-response","72","127007","0.0-1.0-94.0","0","0","41122","","null","","","null","10","","NaN","","","","","","","","","","","","","",""
"","response","","html-keyboard-response","73","127074","0.0-1.0-95.0-0.0","0","0","41122","","66","","","75","10","","","1","10","training","adjacent","FE","6","5","N.jpg","M.jpg","0","0","1","",""
"","feedback","","html-keyboard-response","74","128078","0.0-1.0-96.0-0.0","0","0","41122","","null","","","null","10","","","","","","","","","","","","","","","",""
"","ITI","","html-keyboard-response","75","129080","0.0-1.0-99.0","0","0","41122","","null","","","null","10","","","","","","","","","","","","","","","NaN",""
"","S1","","html-keyboard-response","76","129332","0.0-1.0-101.0","0","0","41122","","null","","","null","11","","","","","","","","","","","","","","","",""
"","ISI","","html-keyboard-response","77","130336","0.0-1.0-102.0","0","0","41122","","null","","","null","11","NaN","","","","","","","","","","","","","","",""
"","S2","","html-keyboard-response","78","130589","0.0-1.0-103.0","0","0","41122","","null","","","null","11","","NaN","","","","","","","","","","","","","",""
"","response","","html-keyboard-response","79","130645","0.0-1.0-104.0-0.0","0","0","41122","","52","","","68","11","","","1","11","training","adjacent","BC","2","3","O.jpg","R.jpg","1","1","1","",""
"","feedback","","html-keyboard-response","80","131649","0.0-1.0-105.0-0.0","0","0","41122","","null","","","null","11","","","","","","","","","","","","","","","",""
"","ITI","","html-keyboard-response","81","132653","0.0-1.0-108.0","0","0","41122","","null","","","null","11","","","","","","","","","","","","","","","NaN",""
"","S1","","html-keyboard-response","82","132906","0.0-1.0-110.0","0","0","41122","","null","","","null","12","","","","","","","","","","","","","","","",""
"","ISI","","html-keyboard-response","83","133909","0.0-1.0-111.0","0","0","41122","","null","","","null","12","NaN","","","","","","","","","","","","","","",""
"","S2","","html-keyboard-response","84","134162","0.0-1.0-112.0","0","0","41122","","null","","","null","12","","NaN","","","","","","","","","","","","","",""
"","response","","html-keyboard-response","85","134218","0.0-1.0-113.0-0.0","0","0","41122","","53","","","75","12","","","1","12","training","adjacent","DE","4","5","Q.jpg","M.jpg","0","1","0","",""
"","feedback","","html-keyboard-response","86","135221","0.0-1.0-114.0-0.0","0","0","41122","","null","","","null","12","","","","","","","","","","","","","","","",""
"","time_out","","html-keyboard-response","87","137223","0.0-1.0-116.0-0.0","0","0","41122","","null","","","null","12","","","","","","","","","","","","","","","",""
"","ITI","","html-keyboard-response","88","138226","0.0-1.0-117.0","0","0","41122","","null","","","null","12","","","","","","","","","","","","","","","NaN",""
"","S1","","html-keyboard-response","89","138479","0.0-1.0-119.0","0","0","41122","","null","","","null","13","","","","","","","","","","","","","","","",""
"","ISI","","html-keyboard-response","90","139482","0.0-1.0-120.0","0","0","41122","","null","","","null","13","NaN","","","","","","","","","","","","","","",""
"","S2","","html-keyboard-response","91","139734","0.0-1.0-121.0","0","0","41122","","null","","","null","13","","NaN","","","","","","","","","","","","","",""
"","response","","html-keyboard-response","92","139834","0.0-1.0-122.0-0.0","0","0","41122","","98","","","68","13","","","1","13","training","adjacent","FE","6","5","N.jpg","M.jpg","1","0","0","",""
"","feedback","","html-keyboard-response","93","140838","0.0-1.0-123.0-0.0","0","0","41122","","null","","","null","13","","","","","","","","","","","","","","","",""
"","time_out","","html-keyboard-response","94","142840","0.0-1.0-125.0-0.0","0","0","41122","","null","","","null","13","","","","","","","","","","","","","","","",""
"","ITI","","html-keyboard-response","95","143843","0.0-1.0-126.0","0","0","41122","","null","","","null","13","","","","","","","","","","","","","","","NaN",""
"","S1","","html-keyboard-response","96","144096","0.0-1.0-128.0","0","0","41122","","null","","","null","14","","","","","","","","","","","","","","","",""
"","ISI","","html-keyboard-response","97","145098","0.0-1.0-129.0","0","0","41122","","null","","","null","14","NaN","","","","","","","","","","","","","","",""
"","S2","","html-keyboard-response","98","145352","0.0-1.0-130.0","0","0","41122","","null","","","null","14","","NaN","","","","","","","","","","","","","",""
"","response","","html-keyboard-response","99","145469","0.0-1.0-131.0-0.0","0","0","41122","","115","","","68","14","","","1","14","training","adjacent","AB","1","2","L.jpg","O.jpg","1","1","1","",""
"","feedback","","html-keyboard-response","100","146473","0.0-1.0-132.0-0.0","0","0","41122","","null","","","null","14","","","","","","","","","","","","","","","",""
"","ITI","","html-keyboard-response","101","147476","0.0-1.0-135.0","0","0","41122","","null","","","null","14","","","","","","","","","","","","","","","NaN",""
"","S1","","html-keyboard-response","102","147730","0.0-1.0-137.0","0","0","41122","","null","","","null","15","","","","","","","","","","","","","","","",""
"","ISI","","html-keyboard-response","103","148733","0.0-1.0-138.0","0","0","41122","","null","","","null","15","NaN","","","","","","","","","","","","","","",""
"","S2","","html-keyboard-response","104","148986","0.0-1.0-139.0","0","0","41122","","null","","","null","15","","NaN","","","","","","","","","","","","","",""
"","response","","html-keyboard-response","105","149625","0.0-1.0-140.0-0.0","0","0","41122","","637","","","68","15","","","1","15","training","adjacent","AB","1","2","L.jpg","O.jpg","1","1","1","",""
"","feedback","","html-keyboard-response","106","150628","0.0-1.0-141.0-0.0","0","0","41122","","null","","","null","15","","","","","","","","","","","","","","","",""
"","ITI","","html-keyboard-response","107","151630","0.0-1.0-144.0","0","0","41122","","null","","","null","15","","","","","","","","","","","","","","","NaN",""
"","S1","","html-keyboard-response","108","151883","0.0-1.0-146.0","0","0","41122","","null","","","null","16","","","","","","","","","","","","","","","",""
"","ISI","","html-keyboard-response","109","152886","0.0-1.0-147.0","0","0","41122","","null","","","null","16","NaN","","","","","","","","","","","","","","",""
"","S2","","html-keyboard-response","110","153139","0.0-1.0-148.0","0","0","41122","","null","","","null","16","","NaN","","","","","","","","","","","","","",""
"","response","","html-keyboard-response","111","153569","0.0-1.0-149.0-0.0","0","0","41122","","428","","","75","16","","","1","16","training","adjacent","EF","5","6","M.jpg","N.jpg","0","1","0","",""
"","feedback","","html-keyboard-response","112","154572","0.0-1.0-150.0-0.0","0","0","41122","","null","","","null","16","","","","","","","","","","","","","","","",""
"","time_out","","html-keyboard-response","113","156575","0.0-1.0-152.0-0.0","0","0","41122","","null","","","null","16","","","","","","","","","","","","","","","",""
"","ITI","","html-keyboard-response","114","157578","0.0-1.0-153.0","0","0","41122","","null","","","null","16","","","","","","","","","","","","","","","NaN",""
"","S1","","html-keyboard-response","115","157830","0.0-1.0-155.0","0","0","41122","","null","","","null","17","","","","","","","","","","","","","","","",""
"","ISI","","html-keyboard-response","116","158833","0.0-1.0-156.0","0","0","41122","","null","","","null","17","NaN","","","","","","","","","","","","","","",""
"","S2","","html-keyboard-response","117","159086","0.0-1.0-157.0","0","0","41122","","null","","","null","17","","NaN","","","","","","","","","","","","","",""
"","response","","html-keyboard-response","118","159260","0.0-1.0-158.0-0.0","0","0","41122","","171","","","75","17","","","1","17","training","adjacent","DE","4","5","Q.jpg","M.jpg","0","1","0","",""
"","feedback","","html-keyboard-response","119","160263","0.0-1.0-159.0-0.0","0","0","41122","","null","","","null","17","","","","","","","","","","","","","","","",""
"","time_out","","html-keyboard-response","120","162266","0.0-1.0-161.0-0.0","0","0","41122","","null","","","null","17","","","","","","","","","","","","","","","",""
"","ITI","","html-keyboard-response","121","163269","0.0-1.0-162.0","0","0","41122","","null","","","null","17","","","","","","","","","","","","","","","NaN",""
"","S1","","html-keyboard-response","122","163522","0.0-1.0-164.0","0","0","41122","","null","","","null","18","","","","","","","","","","","","","","","",""
"","ISI","","html-keyboard-response","123","164524","0.0-1.0-165.0","0","0","41122","","166","","","68","18","d","","","","","","","","","","","","","","",""
"","S2","","html-keyboard-response","124","164778","0.0-1.0-166.0","0","0","41122","","null","","","null","18","","NaN","","","","","","","","","","","","","",""
"","response","","html-keyboard-response","125","164802","0.0-1.0-167.0-0.0","0","0","41122","","21","","","68","18","","","1","18","training","adjacent","EF","5","6","M.jpg","N.jpg","1","1","1","",""
"","feedback","","html-keyboard-response","126","165805","0.0-1.0-168.0-0.0","0","0","41122","","null","","","null","18","","","","","","","","","","","","","","","",""
"","ITI","","html-keyboard-response","127","166809","0.0-1.0-171.0","0","0","41122","","null","","","null","18","","","","","","","","","","","","","","","NaN",""
"","S1","","html-keyboard-response","128","167064","0.0-1.0-173.0","0","0","41122","","null","","","null","19","","","","","","","","","","","","","","","",""
"","ISI","","html-keyboard-response","129","168067","0.0-1.0-174.0","0","0","41122","","null","","","null","19","NaN","","","","","","","","","","","","","","",""
"","S2","","html-keyboard-response","130","168282","0.0-1.0-175.0","0","0","41122","","212","","","75","19","","k","1","19","training","adjacent","BA","2","1","O.jpg","L.jpg","0","0","1","",""
"","feedback","","html-keyboard-response","131","169285","0.0-1.0-177.0-0.0","0","0","41122","","null","","","null","19","","","","","","","","","","","","","","","",""
"","ITI","","html-keyboard-response","132","170288","0.0-1.0-180.0","0","0","41122","","null","","","null","19","","","","","","","","","","","","","","","NaN",""
"","S1","","html-keyboard-response","133","170542","0.0-1.0-182.0","0","0","41122","","null","","","null","20","","","","","","","","","","","","","","","",""
"","ISI","","html-keyboard-response","134","171544","0.0-1.0-183.0","0","0","41122","","715","","","68","20","d","","","","","","","","","","","","","","",""
"","S2","","html-keyboard-response","135","171798","0.0-1.0-184.0","0","0","41122","","null","","","null","20","","NaN","","","","","","","","","","","","","",""
"","response","","html-keyboard-response","136","171897","0.0-1.0-185.0-0.0","0","0","41122","","97","","","68","20","","","1","20","training","adjacent","BA","2","1","O.jpg","L.jpg","1","0","0","",""
"","feedback","","html-keyboard-response","137","172900","0.0-1.0-186.0-0.0","0","0","41122","","null","","","null","20","","","","","","","","","","","","","","","",""
"","time_out","","html-keyboard-response","138","174903","0.0-1.0-188.0-0.0","0","0","41122","","null","","","null","20","","","","","","","","","","","","","","","",""
"","ITI","","html-keyboard-response","139","175906","0.0-1.0-189.0","0","0","41122","","null","","","null","20","","","","","","","","","","","","","","","NaN",""
"","S1","","html-keyboard-response","140","176159","0.0-1.0-191.0","0","0","41122","","null","","","null","21","","","","","","","","","","","","","","","",""
"","ISI","","html-keyboard-response","141","177162","0.0-1.0-192.0","0","0","41122","","null","","","null","21","NaN","","","","","","","","","","","","","","",""
"","S2","","html-keyboard-response","142","177415","0.0-1.0-193.0","0","0","41122","","null","","","null","21","","NaN","","","","","","","","","","","","","",""
"","response","","html-keyboard-response","143","177817","0.0-1.0-194.0-0.0","0","0","41122","","400","","","75","21","","","1","21","training","adjacent","ED","5","4","M.jpg","Q.jpg","0","0","1","",""
"","feedback","","html-keyboard-response","144","178820","0.0-1.0-195.0-0.0","0","0","41122","","null","","","null","21","","","","","","","","","","","","","","","",""
"","ITI","","html-keyboard-response","145","179823","0.0-1.0-198.0","0","0","41122","","null","","","null","21","","","","","","","","","","","","","","","NaN",""
"","S1","","html-keyboard-response","146","180075","0.0-1.0-200.0","0","0","41122","","null","","","null","22","","","","","","","","","","","","","","","",""
"","ISI","","html-keyboard-response","147","181077","0.0-1.0-201.0","0","0","41122","","null","","","null","22","NaN","","","","","","","","","","","","","","",""
"","S2","","html-keyboard-response","148","181330","0.0-1.0-202.0","0","0","41122","","null","","","null","22","","NaN","","","","","","","","","","","","","",""
"","response","","html-keyboard-response","149","181507","0.0-1.0-203.0-0.0","0","0","41122","","174","","","68","22","","","1","22","training","adjacent","BC","2","3","O.jpg","R.jpg","1","1","1","",""
"","feedback","","html-keyboard-response","150","182512","0.0-1.0-204.0-0.0","0","0","41122","","null","","","null","22","","","","","","","","","","","","","","","",""
"","ITI","","html-keyboard-response","151","183516","0.0-1.0-207.0","0","0","41122","","null","","","null","22","","","","","","","","","","","","","","","NaN",""
"","S1","","html-keyboard-response","152","183783","0.0-1.0-209.0","0","0","41122","","null","","","null","23","","","","","","","","","","","","","","","",""
"","ISI","","html-keyboard-response","153","184787","0.0-1.0-210.0","0","0","41122","","null","","","null","23","NaN","","","","","","","","","","","","","","",""
"","S2","","html-keyboard-response","154","185041","0.0-1.0-211.0","0","0","41122","","null","","","null","23","","NaN","","","","","","","","","","","","","",""
"","response","","html-keyboard-response","155","185474","0.0-1.0-212.0-0.0","0","0","41122","","431","","","68","23","","","1","23","training","adjacent","BA","2","1","O.jpg","L.jpg","1","0","0","",""
"","feedback","","html-keyboard-response","156","186485","0.0-1.0-213.0-0.0","0","0","41122","","null","","","null","23","","","","","","","","","","","","","","","",""
"","time_out","","html-keyboard-response","157","188487","0.0-1.0-215.0-0.0","0","0","41122","","null","","","null","23","","","","","","","","","","","","","","","",""
"","ITI","","html-keyboard-response","158","189490","0.0-1.0-216.0","0","0","41122","","null","","","null","23","","","","","","","","","","","","","","","NaN",""
"","S1","","html-keyboard-response","159","189772","0.0-1.0-218.0","0","0","41122","","null","","","null","24","","","","","","","","","","","","","","","",""
"","ISI","","html-keyboard-response","160","190776","0.0-1.0-219.0","0","0","41122","","null","","","null","24","NaN","","","","","","","","","","","","","","",""
"","S2","","html-keyboard-response","161","191009","0.0-1.0-220.0","0","0","41122","","230","","","68","24","","d","1","24","training","adjacent","DC","4","3","Q.jpg","R.jpg","1","0","0","",""
"","feedback","","html-keyboard-response","162","192012","0.0-1.0-222.0-0.0","0","0","41122","","null","","","null","24","","","","","","","","","","","","","","","",""
"","time_out","","html-keyboard-response","163","194015","0.0-1.0-224.0-0.0","0","0","41122","","null","","","null","24","","","","","","","","","","","","","","","",""
"","ITI","","html-keyboard-response","164","195018","0.0-1.0-225.0","0","0","41122","","null","","","null","24","","","","","","","","","","","","","","","NaN",""
"","S1","","html-keyboard-response","165","195271","0.0-1.0-227.0","0","0","41122","","null","","","null","25","","","","","","","","","","","","","","","",""
"","ISI","","html-keyboard-response","166","196274","0.0-1.0-228.0","0","0","41122","","null","","","null","25","NaN","","","","","","","","","","","","","","",""
"","S2","","html-keyboard-response","167","196528","0.0-1.0-229.0","0","0","41122","","null","","","null","25","","NaN","","","","","","","","","","","","","",""
"","response","","html-keyboard-response","168","196547","0.0-1.0-230.0-0.0","0","0","41122","","16","","","75","25","","","1","25","training","adjacent","DC","4","3","Q.jpg","R.jpg","0","0","1","",""
"","feedback","","html-keyboard-response","169","197549","0.0-1.0-231.0-0.0","0","0","41122","","null","","","null","25","","","","","","","","","","","","","","","",""
"","ITI","","html-keyboard-response","170","198552","0.0-1.0-234.0","0","0","41122","","null","","","null","25","","","","","","","","","","","","","","","NaN",""
"","S1","","html-keyboard-response","171","198805","0.0-1.0-236.0","0","0","41122","","null","","","null","26","","","","","","","","","","","","","","","",""
"","ISI","","html-keyboard-response","172","199808","0.0-1.0-237.0","0","0","41122","","null","","","null","26","NaN","","","","","","","","","","","","","","",""
"","S2","","html-keyboard-response","173","200061","0.0-1.0-238.0","0","0","41122","","null","","","null","26","","NaN","","","","","","","","","","","","","",""
"","response","","html-keyboard-response","174","200369","0.0-1.0-239.0-0.0","0","0","41122","","305","","","68","26","","","1","26","training","adjacent","GF","7","6","P.jpg","N.jpg","1","0","0","",""
"","feedback","","html-keyboard-response","175","201373","0.0-1.0-240.0-0.0","0","0","41122","","null","","","null","26","","","","","","","","","","","","","","","",""
"","time_out","","html-keyboard-response","176","203375","0.0-1.0-242.0-0.0","0","0","41122","","null","","","null","26","","","","","","","","","","","","","","","",""
"","ITI","","html-keyboard-response","177","204379","0.0-1.0-243.0","0","0","41122","","null","","","null","26","","","","","","","","","","","","","","","NaN",""
"","S1","","html-keyboard-response","178","204633","0.0-1.0-245.0","0","0","41122","","null","","","null","27","","","","","","","","","","","","","","","",""
"","ISI","","html-keyboard-response","179","205634","0.0-1.0-246.0","0","0","41122","","null","","","null","27","NaN","","","","","","","","","","","","","","",""
"","S2","","html-keyboard-response","180","205889","0.0-1.0-247.0","0","0","41122","","null","","","null","27","","NaN","","","","","","","","","","","","","",""
"","response","","html-keyboard-response","181","205920","0.0-1.0-248.0-0.0","0","0","41122","","29","","","75","27","","","1","27","training","adjacent","FG","6","7","N.jpg","P.jpg","0","1","0","",""
"","feedback","","html-keyboard-response","182","206924","0.0-1.0-249.0-0.0","0","0","41122","","null","","","null","27","","","","","","","","","","","","","","","",""
"","time_out","","html-keyboard-response","183","208927","0.0-1.0-251.0-0.0","0","0","41122","","null","","","null","27","","","","","","","","","","","","","","","",""
"","ITI","","html-keyboard-response","184","209929","0.0-1.0-252.0","0","0","41122","","null","","","null","27","","","","","","","","","","","","","","","NaN",""
"","S1","","html-keyboard-response","185","210183","0.0-1.0-254.0","0","0","41122","","null","","","null","28","","","","","","","","","","","","","","","",""
"","ISI","","html-keyboard-response","186","211185","0.0-1.0-255.0","0","0","41122","","33","","","68","28","d","","","","","","","","","","","","","","",""
"","S2","","html-keyboard-response","187","211439","0.0-1.0-256.0","0","0","41122","","null","","","null","28","","NaN","","","","","","","","","","","","","",""
"","response","","html-keyboard-response","188","211450","0.0-1.0-257.0-0.0","0","0","41122","","9","","","68","28","","","1","28","training","adjacent","DE","4","5","Q.jpg","M.jpg","1","1","1","",""
"","feedback","","html-keyboard-response","189","212453","0.0-1.0-258.0-0.0","0","0","41122","","null","","","null","28","","","","","","","","","","","","","","","",""
"","ITI","","html-keyboard-response","190","213457","0.0-1.0-261.0","0","0","41122","","null","","","null","28","","","","","","","","","","","","","","","NaN",""
"","S1","","html-keyboard-response","191","213709","0.0-1.0-263.0","0","0","41122","","null","","","null","29","","","","","","","","","","","","","","","",""
"","ISI","","html-keyboard-response","192","214713","0.0-1.0-264.0","0","0","41122","","null","","","null","29","NaN","","","","","","","","","","","","","","",""
"","S2","","html-keyboard-response","193","214966","0.0-1.0-265.0","0","0","41122","","null","","","null","29","","NaN","","","","","","","","","","","","","",""
"","response","","html-keyboard-response","194","215024","0.0-1.0-266.0-0.0","0","0","41122","","56","","","68","29","","","1","29","training","adjacent","CB","3","2","R.jpg","O.jpg","1","0","0","",""
"","feedback","","html-keyboard-response","195","216027","0.0-1.0-267.0-0.0","0","0","41122","","null","","","null","29","","","","","","","","","","","","","","","",""
"","time_out","","html-keyboard-response","196","218029","0.0-1.0-269.0-0.0","0","0","41122","","null","","","null","29","","","","","","","","","","","","","","","",""
"","ITI","","html-keyboard-response","197","219033","0.0-1.0-270.0","0","0","41122","","null","","","null","29","","","","","","","","","","","","","","","NaN",""
"","S1","","html-keyboard-response","198","219286","0.0-1.0-272.0","0","0","41122","","null","","","null","30","","","","","","","","","","","","","","","",""
"","ISI","","html-keyboard-response","199","220303","0.0-1.0-273.0","0","0","41122","","null","","","null","30","NaN","","","","","","","","","","","","","","",""
"","S2","","html-keyboard-response","200","220556","0.0-1.0-274.0","0","0","41122","","null","","","null","30","","NaN","","","","","","","","","","","","","",""
"","response","","html-keyboard-response","201","220891","0.0-1.0-275.0-0.0","0","0","41122","","332","","","68","30","","","1","30","training","adjacent","CD","3","4","R.jpg","Q.jpg","1","1","1","",""
"","feedback","","html-keyboard-response","202","221893","0.0-1.0-276.0-0.0","0","0","41122","","null","","","null","30","","","","","","","","","","","","","","","",""
"","ITI","","html-keyboard-response","203","222897","0.0-1.0-279.0","0","0","41122","","null","","","null","30","","","","","","","","","","","","","","","NaN",""
"","S1","","html-keyboard-response","204","223149","0.0-1.0-281.0","0","0","41122","","null","","","null","31","","","","","","","","","","","","","","","",""
"","ISI","","html-keyboard-response","205","224152","0.0-1.0-282.0","0","0","41122","","null","","","null","31","NaN","","","","","","","","","","","","","","",""
"","S2","","html-keyboard-response","206","224405","0.0-1.0-283.0","0","0","41122","","null","","","null","31","","NaN","","","","","","","","","","","","","",""
"","response","","html-keyboard-response","207","224552","0.0-1.0-284.0-0.0","0","0","41122","","144","","","75","31","","","1","31","training","adjacent","ED","5","4","M.jpg","Q.jpg","0","0","1","",""
"","feedback","","html-keyboard-response","208","225555","0.0-1.0-285.0-0.0","0","0","41122","","null","","","null","31","","","","","","","","","","","","","","","",""
"","ITI","","html-keyboard-response","209","226557","0.0-1.0-288.0","0","0","41122","","null","","","null","31","","","","","","","","","","","","","","","NaN",""
"","S1","","html-keyboard-response","210","226810","0.0-1.0-290.0","0","0","41122","","null","","","null","32","","","","","","","","","","","","","","","",""
"","ISI","","html-keyboard-response","211","227813","0.0-1.0-291.0","0","0","41122","","null","","","null","32","NaN","","","","","","","","","","","","","","",""
"","S2","","html-keyboard-response","212","228067","0.0-1.0-292.0","0","0","41122","","null","","","null","32","","NaN","","","","","","","","","","","","","",""
"","response","","html-keyboard-response","213","228240","0.0-1.0-293.0-0.0","0","0","41122","","170","","","75","32","","","1","32","training","adjacent","FE","6","5","N.jpg","M.jpg","0","0","1","",""
"","feedback","","html-keyboard-response","214","229243","0.0-1.0-294.0-0.0","0","0","41122","","null","","","null","32","","","","","","","","","","","","","","","",""
"","ITI","","html-keyboard-response","215","230245","0.0-1.0-297.0","0","0","41122","","null","","","null","32","","","","","","","","","","","","","","","NaN",""
"","S1","","html-keyboard-response","216","230498","0.0-1.0-299.0","0","0","41122","","null","","","null","33","","","","","","","","","","","","","","","",""
"","ISI","","html-keyboard-response","217","231502","0.0-1.0-300.0","0","0","41122","","null","","","null","33","NaN","","","","","","","","","","","","","","",""
"","S2","","html-keyboard-response","218","231755","0.0-1.0-301.0","0","0","41122","","null","","","null","33","","NaN","","","","","","","","","","","","","",""
"","response","","html-keyboard-response","219","231842","0.0-1.0-302.0-0.0","0","0","41122","","84","","","68","33","","","1","33","training","adjacent","BC","2","3","O.jpg","R.jpg","1","1","1","",""
"","feedback","","html-keyboard-response","220","232845","0.0-1.0-303.0-0.0","0","0","41122","","null","","","null","33","","","","","","","","","","","","","","","",""
"","ITI","","html-keyboard-response","221","233847","0.0-1.0-306.0","0","0","41122","","null","","","null","33","","","","","","","","","","","","","","","NaN",""
"","S1","","html-keyboard-response","222","234099","0.0-1.0-308.0","0","0","41122","","null","","","null","34","","","","","","","","","","","","","","","",""
"","ISI","","html-keyboard-response","223","235102","0.0-1.0-309.0","0","0","41122","","null","","","null","34","NaN","","","","","","","","","","","","","","",""
"","S2","","html-keyboard-response","224","235355","0.0-1.0-310.0","0","0","41122","","null","","","null","34","","NaN","","","","","","","","","","","","","",""
"","response","","html-keyboard-response","225","235408","0.0-1.0-311.0-0.0","0","0","41122","","49","","","75","34","","","1","34","training","adjacent","DC","4","3","Q.jpg","R.jpg","0","0","1","",""
"","feedback","","html-keyboard-response","226","236410","0.0-1.0-312.0-0.0","0","0","41122","","null","","","null","34","","","","","","","","","","","","","","","",""
"","ITI","","html-keyboard-response","227","237414","0.0-1.0-315.0","0","0","41122","","null","","","null","34","","","","","","","","","","","","","","","NaN",""
"","S1","","html-keyboard-response","228","237667","0.0-1.0-317.0","0","0","41122","","null","","","null","35","","","","","","","","","","","","","","","",""
"","ISI","","html-keyboard-response","229","238669","0.0-1.0-318.0","0","0","41122","","null","","","null","35","NaN","","","","","","","","","","","","","","",""
"","S2","","html-keyboard-response","230","238923","0.0-1.0-319.0","0","0","41122","","null","","","null","35","","NaN","","","","","","","","","","","","","",""
"","response","","html-keyboard-response","231","238952","0.0-1.0-320.0-0.0","0","0","41122","","27","","","68","35","","","1","35","training","adjacent","DE","4","5","Q.jpg","M.jpg","1","1","1","",""
"","feedback","","html-keyboard-response","232","239955","0.0-1.0-321.0-0.0","0","0","41122","","null","","","null","35","","","","","","","","","","","","","","","",""
"","ITI","","html-keyboard-response","233","240959","0.0-1.0-324.0","0","0","41122","","null","","","null","35","","","","","","","","","","","","","","","NaN",""
"","S1","","html-keyboard-response","234","241212","0.0-1.0-326.0","0","0","41122","","null","","","null","36","","","","","","","","","","","","","","","",""
"","ISI","","html-keyboard-response","235","242215","0.0-1.0-327.0","0","0","41122","","null","","","null","36","NaN","","","","","","","","","","","","","","",""
"","S2","","html-keyboard-response","236","242468","0.0-1.0-328.0","0","0","41122","","null","","","null","36","","NaN","","","","","","","","","","","","","",""
"","response","","html-keyboard-response","237","242481","0.0-1.0-329.0-0.0","0","0","41122","","11","","","68","36","","","1","36","training","adjacent","CD","3","4","R.jpg","Q.jpg","1","1","1","",""
"","feedback","","html-keyboard-response","238","243484","0.0-1.0-330.0-0.0","0","0","41122","","null","","","null","36","","","","","","","","","","","","","","","",""
"","ITI","","html-keyboard-response","239","244488","0.0-1.0-333.0","0","0","41122","","null","","","null","36","","","","","","","","","","","","","","","NaN",""
"","S1","","html-keyboard-response","240","244740","0.0-1.0-335.0","0","0","41122","","null","","","null","37","","","","","","","","","","","","","","","",""
"","ISI","","html-keyboard-response","241","245742","0.0-1.0-336.0","0","0","41122","","null","","","null","37","NaN","","","","","","","","","","","","","","",""
"","S2","","html-keyboard-response","242","245928","0.0-1.0-337.0","0","0","41122","","183","","","75","37","","k","1","37","training","adjacent","EF","5","6","M.jpg","N.jpg","0","1","0","",""
"","feedback","","html-keyboard-response","243","246931","0.0-1.0-339.0-0.0","0","0","41122","","null","","","null","37","","","","","","","","","","","","","","","",""
"","time_out","","html-keyboard-response","244","248933","0.0-1.0-341.0-0.0","0","0","41122","","null","","","null","37","","","","","","","","","","","","","","","",""
"","ITI","","html-keyboard-response","245","249936","0.0-1.0-342.0","0","0","41122","","null","","","null","37","","","","","","","","","","","","","","","NaN",""
"","S1","","html-keyboard-response","246","250189","0.0-1.0-344.0","0","0","41122","","null","","","null","38","","","","","","","","","","","","","","","",""
"","ISI","","html-keyboard-response","247","251191","0.0-1.0-345.0","0","0","41122","","null","","","null","38","NaN","","","","","","","","","","","","","","",""
"","S2","","html-keyboard-response","248","251445","0.0-1.0-346.0","0","0","41122","","null","","","null","38","","NaN","","","","","","","","","","","","","",""
"","response","","html-keyboard-response","249","251495","0.0-1.0-347.0-0.0","0","0","41122","","48","","","68","38","","","1","38","training","adjacent","AB","1","2","L.jpg","O.jpg","1","1","1","",""
"","feedback","","html-keyboard-response","250","252498","0.0-1.0-348.0-0.0","0","0","41122","","null","","","null","38","","","","","","","","","","","","","","","",""
"","ITI","","html-keyboard-response","251","253501","0.0-1.0-351.0","0","0","41122","","null","","","null","38","","","","","","","","","","","","","","","NaN",""
"","S1","","html-keyboard-response","252","253754","0.0-1.0-353.0","0","0","41122","","null","","","null","39","","","","","","","","","","","","","","","",""
"","ISI","","html-keyboard-response","253","254756","0.0-1.0-354.0","0","0","41122","","null","","","null","39","NaN","","","","","","","","","","","","","","",""
"","S2","","html-keyboard-response","254","255011","0.0-1.0-355.0","0","0","41122","","null","","","null","39","","NaN","","","","","","","","","","","","","",""
"","response","","html-keyboard-response","255","255066","0.0-1.0-356.0-0.0","0","0","41122","","52","","","75","39","","","1","39","training","adjacent","ED","5","4","M.jpg","Q.jpg","0","0","1","",""
"","feedback","","html-keyboard-response","256","256070","0.0-1.0-357.0-0.0","0","0","41122","","null","","","null","39","","","","","","","","","","","","","","","",""
"","ITI","","html-keyboard-response","257","257073","0.0-1.0-360.0","0","0","41122","","null","","","null","39","","","","","","","","","","","","","","","NaN",""
"","S1","","html-keyboard-response","258","257327","0.0-1.0-362.0","0","0","41122","","null","","","null","40","","","","","","","","","","","","","","","",""
"","ISI","","html-keyboard-response","259","258335","0.0-1.0-363.0","0","0","41122","","126","","","68","40","d","","","","","","","","","","","","","","",""
"","S2","","html-keyboard-response","260","258588","0.0-1.0-364.0","0","0","41122","","null","","","null","40","","NaN","","","","","","","","","","","","","",""
"","response","","html-keyboard-response","261","258623","0.0-1.0-365.0-0.0","0","0","41122","","33","","","68","40","","","1","40","training","adjacent","CD","3","4","R.jpg","Q.jpg","1","1","1","",""
"","feedback","","html-keyboard-response","262","259627","0.0-1.0-366.0-0.0","0","0","41122","","null","","","null","40","","","","","","","","","","","","","","","",""
"","ITI","","html-keyboard-response","263","260630","0.0-1.0-369.0","0","0","41122","","null","","","null","40","","","","","","","","","","","","","","","NaN",""
"","S1","","html-keyboard-response","264","260883","0.0-1.0-371.0","0","0","41122","","null","","","null","41","","","","","","","","","","","","","","","",""
"","ISI","","html-keyboard-response","265","261885","0.0-1.0-372.0","0","0","41122","","555","","","75","41","k","","","","","","","","","","","","","","",""
"","S2","","html-keyboard-response","266","262139","0.0-1.0-373.0","0","0","41122","","null","","","null","41","","NaN","","","","","","","","","","","","","",""
"","response","","html-keyboard-response","267","262184","0.0-1.0-374.0-0.0","0","0","41122","","43","","","75","41","","","1","41","training","adjacent","CB","3","2","R.jpg","O.jpg","0","0","1","",""
"","feedback","","html-keyboard-response","268","263186","0.0-1.0-375.0-0.0","0","0","41122","","null","","","null","41","","","","","","","","","","","","","","","",""
"","ITI","","html-keyboard-response","269","264190","0.0-1.0-378.0","0","0","41122","","null","","","null","41","","","","","","","","","","","","","","","NaN",""
"","S1","","html-keyboard-response","270","264442","0.0-1.0-380.0","0","0","41122","","null","","","null","42","","","","","","","","","","","","","","","",""
"","ISI","","html-keyboard-response","271","265445","0.0-1.0-381.0","0","0","41122","","67","","","75","42","k","","","","","","","","","","","","","","",""
"","S2","","html-keyboard-response","272","265699","0.0-1.0-382.0","0","0","41122","","null","","","null","42","","NaN","","","","","","","","","","","","","",""
"","response","","html-keyboard-response","273","265737","0.0-1.0-383.0-0.0","0","0","41122","","36","","","75","42","","","1","42","training","adjacent","GF","7","6","P.jpg","N.jpg","0","0","1","",""
"","feedback","","html-keyboard-response","274","266741","0.0-1.0-384.0-0.0","0","0","41122","","null","","","null","42","","","","","","","","","","","","","","","",""
"","ITI","","html-keyboard-response","275","267747","0.0-1.0-387.0","0","0","41122","","null","","","null","42","","","","","","","","","","","","","","","NaN",""
"","S1","","html-keyboard-response","276","267999","0.0-1.0-389.0","0","0","41122","","null","","","null","43","","","","","","","","","","","","","","","",""
"","ISI","","html-keyboard-response","277","269001","0.0-1.0-390.0","0","0","41122","","630","","","68","43","d","","","","","","","","","","","","","","",""
"","S2","","html-keyboard-response","278","269254","0.0-1.0-391.0","0","0","41122","","null","","","null","43","","NaN","","","","","","","","","","","","","",""
"","response","","html-keyboard-response","279","269304","0.0-1.0-392.0-0.0","0","0","41122","","47","","","68","43","","","1","43","training","adjacent","GF","7","6","P.jpg","N.jpg","1","0","0","",""
"","feedback","","html-keyboard-response","280","270307","0.0-1.0-393.0-0.0","0","0","41122","","null","","","null","43","","","","","","","","","","","","","","","",""
"","time_out","","html-keyboard-response","281","272310","0.0-1.0-395.0-0.0","0","0","41122","","null","","","null","43","","","","","","","","","","","","","","","",""
"","ITI","","html-keyboard-response","282","273313","0.0-1.0-396.0","0","0","41122","","null","","","null","43","","","","","","","","","","","","","","","NaN",""
"","S1","","html-keyboard-response","283","273568","0.0-1.0-398.0","0","0","41122","","null","","","null","44","","","","","","","","","","","","","","","",""
"","ISI","","html-keyboard-response","284","274572","0.0-1.0-399.0","0","0","41122","","61","","","75","44","k","","","","","","","","","","","","","","",""
"","S2","","html-keyboard-response","285","274824","0.0-1.0-400.0","0","0","41122","","250","","","75","44","","k","1","44","training","adjacent","FE","6","5","N.jpg","M.jpg","0","0","1","",""
"","feedback","","html-keyboard-response","286","275827","0.0-1.0-402.0-0.0","0","0","41122","","null","","","null","44","","","","","","","","","","","","","","","",""
"","ITI","","html-keyboard-response","287","276830","0.0-1.0-405.0","0","0","41122","","null","","","null","44","","","","","","","","","","","","","","","NaN",""
"","S1","","html-keyboard-response","288","277085","0.0-1.0-407.0","0","0","41122","","null","","","null","45","","","","","","","","","","","","","","","",""
"","ISI","","html-keyboard-response","289","278087","0.0-1.0-408.0","0","0","41122","","null","","","null","45","NaN","","","","","","","","","","","","","","",""
"","S2","","html-keyboard-response","290","278340","0.0-1.0-409.0","0","0","41122","","null","","","null","45","","NaN","","","","","","","","","","","","","",""
"","response","","html-keyboard-response","291","278402","0.0-1.0-410.0-0.0","0","0","41122","","59","","","68","45","","","1","45","training","adjacent","FG","6","7","N.jpg","P.jpg","1","1","1","",""
"","feedback","","html-keyboard-response","292","279405","0.0-1.0-411.0-0.0","0","0","41122","","null","","","null","45","","","","","","","","","","","","","","","",""
"","ITI","","html-keyboard-response","293","280408","0.0-1.0-414.0","0","0","41122","","null","","","null","45","","","","","","","","","","","","","","","NaN",""
"","S1","","html-keyboard-response","294","280660","0.0-1.0-416.0","0","0","41122","","null","","","null","46","","","","","","","","","","","","","","","",""
"","ISI","","html-keyboard-response","295","281663","0.0-1.0-417.0","0","0","41122","","136","","","75","46","k","","","","","","","","","","","","","","",""
"","S2","","html-keyboard-response","296","281896","0.0-1.0-418.0","0","0","41122","","229","","","75","46","","k","1","46","training","adjacent","FG","6","7","N.jpg","P.jpg","0","1","0","",""
"","feedback","","html-keyboard-response","297","282900","0.0-1.0-420.0-0.0","0","0","41122","","null","","","null","46","","","","","","","","","","","","","","","",""
"","time_out","","html-keyboard-response","298","284902","0.0-1.0-422.0-0.0","0","0","41122","","null","","","null","46","","","","","","","","","","","","","","","",""
"","ITI","","html-keyboard-response","299","285904","0.0-1.0-423.0","0","0","41122","","null","","","null","46","","","","","","","","","","","","","","","NaN",""
"","S1","","html-keyboard-response","300","286157","0.0-1.0-425.0","0","0","41122","","null","","","null","47","","","","","","","","","","","","","","","",""
"","ISI","","html-keyboard-response","301","287159","0.0-1.0-426.0","0","0","41122","","919","","","68","47","d","","","","","","","","","","","","","","",""
"","S2","","html-keyboard-response","302","287413","0.0-1.0-427.0","0","0","41122","","null","","","null","47","","NaN","","","","","","","","","","","","","",""
"","response","","html-keyboard-response","303","287455","0.0-1.0-428.0-0.0","0","0","41122","","39","","","68","47","","","1","47","training","adjacent","EF","5","6","M.jpg","N.jpg","1","1","1","",""
"","feedback","","html-keyboard-response","304","288458","0.0-1.0-429.0-0.0","0","0","41122","","null","","","null","47","","","","","","","","","","","","","","","",""
"","ITI","","html-keyboard-response","305","289461","0.0-1.0-432.0","0","0","41122","","null","","","null","47","","","","","","","","","","","","","","","NaN",""
"","block_over","","html-keyboard-response","306","314162","0.0-1.0-433.0-0.0","0","0","41122","","24697","","","32","47","","","","","","","","","","","","","","","",""
"","S1","","html-keyboard-response","307","314414","0.0-1.0-434.0","0","0","41122","","null","","","null","48","","","","","","","","","","","","","","","",""
"","ISI","","html-keyboard-response","308","315417","0.0-1.0-435.0","0","0","41122","","null","","","null","48","NaN","","","","","","","","","","","","","","",""
"","S2","","html-keyboard-response","309","315654","0.0-1.0-436.0","0","0","41122","","235","","","68","48","","d","2","48","training","adjacent","FG","6","7","N.jpg","P.jpg","1","1","1","",""
"","feedback","","html-keyboard-response","310","316657","0.0-1.0-438.0-0.0","0","0","41122","","null","","","null","48","","","","","","","","","","","","","","","",""
"","ITI","","html-keyboard-response","311","317661","0.0-1.0-441.0","0","0","41122","","null","","","null","48","","","","","","","","","","","","","","","NaN",""
"","S1","","html-keyboard-response","312","317914","0.0-1.0-443.0","0","0","41122","","null","","","null","49","","","","","","","","","","","","","","","",""
"","ISI","","html-keyboard-response","313","318917","0.0-1.0-444.0","0","0","41122","","null","","","null","49","NaN","","","","","","","","","","","","","","",""
"","S2","","html-keyboard-response","314","319170","0.0-1.0-445.0","0","0","41122","","null","","","null","49","","NaN","","","","","","","","","","","","","",""
"","response","","html-keyboard-response","315","319438","0.0-1.0-446.0-0.0","0","0","41122","","266","","","75","49","","","2","49","training","adjacent","CB","3","2","R.jpg","O.jpg","0","0","1","",""
"","feedback","","html-keyboard-response","316","320442","0.0-1.0-447.0-0.0","0","0","41122","","null","","","null","49","","","","","","","","","","","","","","","",""
"","ITI","","html-keyboard-response","317","321444","0.0-1.0-450.0","0","0","41122","","null","","","null","49","","","","","","","","","","","","","","","NaN",""
"","S1","","html-keyboard-response","318","321698","0.0-1.0-452.0","0","0","41122","","null","","","null","50","","","","","","","","","","","","","","","",""
"","ISI","","html-keyboard-response","319","322700","0.0-1.0-453.0","0","0","41122","","null","","","null","50","NaN","","","","","","","","","","","","","","",""
"","S2","","html-keyboard-response","320","322954","0.0-1.0-454.0","0","0","41122","","null","","","null","50","","NaN","","","","","","","","","","","","","",""
"","response","","html-keyboard-response","321","322982","0.0-1.0-455.0-0.0","0","0","41122","","26","","","68","50","","","2","50","training","adjacent","FE","6","5","N.jpg","M.jpg","1","0","0","",""
"","feedback","","html-keyboard-response","322","323985","0.0-1.0-456.0-0.0","0","0","41122","","null","","","null","50","","","","","","","","","","","","","","","",""
"","time_out","","html-keyboard-response","323","325987","0.0-1.0-458.0-0.0","0","0","41122","","null","","","null","50","","","","","","","","","","","","","","","",""
"","ITI","","html-keyboard-response","324","326989","0.0-1.0-459.0","0","0","41122","","null","","","null","50","","","","","","","","","","","","","","","NaN",""
"","S1","","html-keyboard-response","325","327243","0.0-1.0-461.0","0","0","41122","","null","","","null","51","","","","","","","","","","","","","","","",""
"","ISI","","html-keyboard-response","326","328246","0.0-1.0-462.0","0","0","41122","","null","","","null","51","NaN","","","","","","","","","","","","","","",""
"","S2","","html-keyboard-response","327","328481","0.0-1.0-463.0","0","0","41122","","232","","","75","51","","k","2","51","training","adjacent","CB","3","2","R.jpg","O.jpg","0","0","1","",""
"","feedback","","html-keyboard-response","328","329485","0.0-1.0-465.0-0.0","0","0","41122","","null","","","null","51","","","","","","","","","","","","","","","",""
"","ITI","","html-keyboard-response","329","330487","0.0-1.0-468.0","0","0","41122","","null","","","null","51","","","","","","","","","","","","","","","NaN",""
"","S1","","html-keyboard-response","330","330740","0.0-1.0-470.0","0","0","41122","","null","","","null","52","","","","","","","","","","","","","","","",""
"","ISI","","html-keyboard-response","331","331745","0.0-1.0-471.0","0","0","41122","","null","","","null","52","NaN","","","","","","","","","","","","","","",""
"","S2","","html-keyboard-response","332","332000","0.0-1.0-472.0","0","0","41122","","null","","","null","52","","NaN","","","","","","","","","","","","","",""
"","response","","html-keyboard-response","333","332030","0.0-1.0-473.0-0.0","0","0","41122","","28","","","68","52","","","2","52","training","adjacent","DC","4","3","Q.jpg","R.jpg","1","0","0","",""
"","feedback","","html-keyboard-response","334","333033","0.0-1.0-474.0-0.0","0","0","41122","","null","","","null","52","","","","","","","","","","","","","","","",""
"","time_out","","html-keyboard-response","335","335036","0.0-1.0-476.0-0.0","0","0","41122","","null","","","null","52","","","","","","","","","","","","","","","",""
"","ITI","","html-keyboard-response","336","336038","0.0-1.0-477.0","0","0","41122","","null","","","null","52","","","","","","","","","","","","","","","NaN",""
"","S1","","html-keyboard-response","337","336291","0.0-1.0-479.0","0","0","41122","","null","","","null","53","","","","","","","","","","","","","","","",""
"","ISI","","html-keyboard-response","338","337294","0.0-1.0-480.0","0","0","41122","","null","","","null","53","NaN","","","","","","","","","","","","","","",""
"","S2","","html-keyboard-response","339","337547","0.0-1.0-481.0","0","0","41122","","null","","","null","53","","NaN","","","","","","","","","","","","","",""
"","response","","html-keyboard-response","340","337926","0.0-1.0-482.0-0.0","0","0","41122","","376","","","68","53","","","2","53","training","adjacent","BC","2","3","O.jpg","R.jpg","1","1","1","",""
"","feedback","","html-keyboard-response","341","338931","0.0-1.0-483.0-0.0","0","0","41122","","null","","","null","53","","","","","","","","","","","","","","","",""
"","ITI","","html-keyboard-response","342","339934","0.0-1.0-486.0","0","0","41122","","null","","","null","53","","","","","","","","","","","","","","","NaN",""
"","S1","","html-keyboard-response","343","340188","0.0-1.0-488.0","0","0","41122","","null","","","null","54","","","","","","","","","","","","","","","",""
"","ISI","","html-keyboard-response","344","341190","0.0-1.0-489.0","0","0","41122","","null","","","null","54","NaN","","","","","","","","","","","","","","",""
"","S2","","html-keyboard-response","345","341444","0.0-1.0-490.0","0","0","41122","","null","","","null","54","","NaN","","","","","","","","","","","","","",""
"","response","","html-keyboard-response","346","341475","0.0-1.0-491.0-0.0","0","0","41122","","27","","","68","54","","","2","54","training","adjacent","ED","5","4","M.jpg","Q.jpg","1","0","0","",""
"","feedback","","html-keyboard-response","347","342478","0.0-1.0-492.0-0.0","0","0","41122","","null","","","null","54","","","","","","","","","","","","","","","",""
"","time_out","","html-keyboard-response","348","344481","0.0-1.0-494.0-0.0","0","0","41122","","null","","","null","54","","","","","","","","","","","","","","","",""
"","ITI","","html-keyboard-response","349","345484","0.0-1.0-495.0","0","0","41122","","null","","","null","54","","","","","","","","","","","","","","","NaN",""
"","S1","","html-keyboard-response","350","345738","0.0-1.0-497.0","0","0","41122","","null","","","null","55","","","","","","","","","","","","","","","",""
"","ISI","","html-keyboard-response","351","346740","0.0-1.0-498.0","0","0","41122","","null","","","null","55","NaN","","","","","","","","","","","","","","",""
"","S2","","html-keyboard-response","352","346995","0.0-1.0-499.0","0","0","41122","","null","","","null","55","","NaN","","","","","","","","","","","","","",""
"","response","","html-keyboard-response","353","347286","0.0-1.0-500.0-0.0","0","0","41122","","288","","","75","55","","","2","55","training","adjacent","GF","7","6","P.jpg","N.jpg","0","0","1","",""
"","feedback","","html-keyboard-response","354","348289","0.0-1.0-501.0-0.0","0","0","41122","","null","","","null","55","","","","","","","","","","","","","","","",""
"","ITI","","html-keyboard-response","355","349292","0.0-1.0-504.0","0","0","41122","","null","","","null","55","","","","","","","","","","","","","","","NaN",""
"","S1","","html-keyboard-response","356","349545","0.0-1.0-506.0","0","0","41122","","null","","","null","56","","","","","","","","","","","","","","","",""
"","ISI","","html-keyboard-response","357","350547","0.0-1.0-507.0","0","0","41122","","null","","","null","56","NaN","","","","","","","","","","","","","","",""
"","S2","","html-keyboard-response","358","350801","0.0-1.0-508.0","0","0","41122","","null","","","null","56","","NaN","","","","","","","","","","","","","",""
"","response","","html-keyboard-response","359","350854","0.0-1.0-509.0-0.0","0","0","41122","","51","","","68","56","","","2","56","training","adjacent","EF","5","6","M.jpg","N.jpg","1","1","1","",""
"","feedback","","html-keyboard-response","360","351859","0.0-1.0-510.0-0.0","0","0","41122","","null","","","null","56","","","","","","","","","","","","","","","",""
"","ITI","","html-keyboard-response","361","352863","0.0-1.0-513.0","0","0","41122","","null","","","null","56","","","","","","","","","","","","","","","NaN",""
"","S1","","html-keyboard-response","362","353116","0.0-1.0-515.0","0","0","41122","","null","","","null","57","","","","","","","","","","","","","","","",""
"","ISI","","html-keyboard-response","363","354119","0.0-1.0-516.0","0","0","41122","","null","","","null","57","NaN","","","","","","","","","","","","","","",""
"","S2","","html-keyboard-response","364","354378","0.0-1.0-517.0","0","0","41122","","null","","","null","57","","NaN","","","","","","","","","","","","","",""
"","response","","html-keyboard-response","365","354768","0.0-1.0-518.0-0.0","0","0","41122","","387","","","75","57","","","2","57","training","adjacent","BC","2","3","O.jpg","R.jpg","0","1","0","",""
"","feedback","","html-keyboard-response","366","355771","0.0-1.0-519.0-0.0","0","0","41122","","null","","","null","57","","","","","","","","","","","","","","","",""
"","time_out","","html-keyboard-response","367","357774","0.0-1.0-521.0-0.0","0","0","41122","","null","","","null","57","","","","","","","","","","","","","","","",""
"","ITI","","html-keyboard-response","368","358777","0.0-1.0-522.0","0","0","41122","","null","","","null","57","","","","","","","","","","","","","","","NaN",""
"","S1","","html-keyboard-response","369","359030","0.0-1.0-524.0","0","0","41122","","null","","","null","58","","","","","","","","","","","","","","","",""
"","ISI","","html-keyboard-response","370","360033","0.0-1.0-525.0","0","0","41122","","null","","","null","58","NaN","","","","","","","","","","","","","","",""
"","S2","","html-keyboard-response","371","360286","0.0-1.0-526.0","0","0","41122","","null","","","null","58","","NaN","","","","","","","","","","","","","",""
"","response","","html-keyboard-response","372","360574","0.0-1.0-527.0-0.0","0","0","41122","","285","","","68","58","","","2","58","training","adjacent","GF","7","6","P.jpg","N.jpg","1","0","0","",""
"","feedback","","html-keyboard-response","373","361585","0.0-1.0-528.0-0.0","0","0","41122","","null","","","null","58","","","","","","","","","","","","","","","",""
"","time_out","","html-keyboard-response","374","363588","0.0-1.0-530.0-0.0","0","0","41122","","null","","","null","58","","","","","","","","","","","","","","","",""
"","ITI","","html-keyboard-response","375","364592","0.0-1.0-531.0","0","0","41122","","null","","","null","58","","","","","","","","","","","","","","","NaN",""
"","S1","","html-keyboard-response","376","364846","0.0-1.0-533.0","0","0","41122","","null","","","null","59","","","","","","","","","","","","","","","",""
"","ISI","","html-keyboard-response","377","365848","0.0-1.0-534.0","0","0","41122","","null","","","null","59","NaN","","","","","","","","","","","","","","",""
"","S2","","html-keyboard-response","378","366102","0.0-1.0-535.0","0","0","41122","","null","","","null","59","","NaN","","","","","","","","","","","","","",""
"","response","","html-keyboard-response","379","366167","0.0-1.0-536.0-0.0","0","0","41122","","62","","","75","59","","","2","59","training","adjacent","AB","1","2","L.jpg","O.jpg","0","1","0","",""
"","feedback","","html-keyboard-response","380","367170","0.0-1.0-537.0-0.0","0","0","41122","","null","","","null","59","","","","","","","","","","","","","","","",""
"","time_out","","html-keyboard-response","381","369172","0.0-1.0-539.0-0.0","0","0","41122","","null","","","null","59","","","","","","","","","","","","","","","",""
"","ITI","","html-keyboard-response","382","370175","0.0-1.0-540.0","0","0","41122","","null","","","null","59","","","","","","","","","","","","","","","NaN",""
"","S1","","html-keyboard-response","383","370428","0.0-1.0-542.0","0","0","41122","","null","","","null","60","","","","","","","","","","","","","","","",""
"","ISI","","html-keyboard-response","384","371430","0.0-1.0-543.0","0","0","41122","","null","","","null","60","NaN","","","","","","","","","","","","","","",""
"","S2","","html-keyboard-response","385","371683","0.0-1.0-544.0","0","0","41122","","null","","","null","60","","NaN","","","","","","","","","","","","","",""
"","response","","html-keyboard-response","386","371798","0.0-1.0-545.0-0.0","0","0","41122","","112","","","75","60","","","2","60","training","adjacent","DC","4","3","Q.jpg","R.jpg","0","0","1","",""
"","feedback","","html-keyboard-response","387","372801","0.0-1.0-546.0-0.0","0","0","41122","","null","","","null","60","","","","","","","","","","","","","","","",""
"","ITI","","html-keyboard-response","388","373804","0.0-1.0-549.0","0","0","41122","","null","","","null","60","","","","","","","","","","","","","","","NaN",""
"","S1","","html-keyboard-response","389","374058","0.0-1.0-551.0","0","0","41122","","null","","","null","61","","","","","","","","","","","","","","","",""
"","ISI","","html-keyboard-response","390","375060","0.0-1.0-552.0","0","0","41122","","null","","","null","61","NaN","","","","","","","","","","","","","","",""
"","S2","","html-keyboard-response","391","375315","0.0-1.0-553.0","0","0","41122","","null","","","null","61","","NaN","","","","","","","","","","","","","",""
"","response","","html-keyboard-response","392","375357","0.0-1.0-554.0-0.0","0","0","41122","","41","","","68","61","","","2","61","training","adjacent","BC","2","3","O.jpg","R.jpg","1","1","1","",""
"","feedback","","html-keyboard-response","393","376362","0.0-1.0-555.0-0.0","0","0","41122","","null","","","null","61","","","","","","","","","","","","","","","",""
"","ITI","","html-keyboard-response","394","377366","0.0-1.0-558.0","0","0","41122","","null","","","null","61","","","","","","","","","","","","","","","NaN",""
"","S1","","html-keyboard-response","395","377619","0.0-1.0-560.0","0","0","41122","","null","","","null","62","","","","","","","","","","","","","","","",""
"","ISI","","html-keyboard-response","396","378622","0.0-1.0-561.0","0","0","41122","","null","","","null","62","NaN","","","","","","","","","","","","","","",""
"","S2","","html-keyboard-response","397","378876","0.0-1.0-562.0","0","0","41122","","null","","","null","62","","NaN","","","","","","","","","","","","","",""
"","response","","html-keyboard-response","398","379049","0.0-1.0-563.0-0.0","0","0","41122","","171","","","75","62","","","2","62","training","adjacent","CD","3","4","R.jpg","Q.jpg","0","1","0","",""
"","feedback","","html-keyboard-response","399","380053","0.0-1.0-564.0-0.0","0","0","41122","","null","","","null","62","","","","","","","","","","","","","","","",""
"","time_out","","html-keyboard-response","400","382056","0.0-1.0-566.0-0.0","0","0","41122","","null","","","null","62","","","","","","","","","","","","","","","",""
"","ITI","","html-keyboard-response","401","383059","0.0-1.0-567.0","0","0","41122","","null","","","null","62","","","","","","","","","","","","","","","NaN",""
"","S1","","html-keyboard-response","402","383312","0.0-1.0-569.0","0","0","41122","","null","","","null","63","","","","","","","","","","","","","","","",""
"","ISI","","html-keyboard-response","403","384314","0.0-1.0-570.0","0","0","41122","","null","","","null","63","NaN","","","","","","","","","","","","","","",""
"","S2","","html-keyboard-response","404","384568","0.0-1.0-571.0","0","0","41122","","null","","","null","63","","NaN","","","","","","","","","","","","","",""
"","response","","html-keyboard-response","405","384653","0.0-1.0-572.0-0.0","0","0","41122","","83","","","68","63","","","2","63","training","adjacent","DC","4","3","Q.jpg","R.jpg","1","0","0","",""
"","feedback","","html-keyboard-response","406","385663","0.0-1.0-573.0-0.0","0","0","41122","","null","","","null","63","","","","","","","","","","","","","","","",""
"","time_out","","html-keyboard-response","407","387666","0.0-1.0-575.0-0.0","0","0","41122","","null","","","null","63","","","","","","","","","","","","","","","",""
"","ITI","","html-keyboard-response","408","388668","0.0-1.0-576.0","0","0","41122","","null","","","null","63","","","","","","","","","","","","","","","NaN",""
"","S1","","html-keyboard-response","409","388922","0.0-1.0-578.0","0","0","41122","","null","","","null","64","","","","","","","","","","","","","","","",""
"","ISI","","html-keyboard-response","410","389924","0.0-1.0-579.0","0","0","41122","","114","","","75","64","k","","","","","","","","","","","","","","",""
"","S2","","html-keyboard-response","411","390178","0.0-1.0-580.0","0","0","41122","","null","","","null","64","","NaN","","","","","","","","","","","","","",""
"","response","","html-keyboard-response","412","390223","0.0-1.0-581.0-0.0","0","0","41122","","42","","","75","64","","","2","64","training","adjacent","BA","2","1","O.jpg","L.jpg","0","0","1","",""
"","feedback","","html-keyboard-response","413","391227","0.0-1.0-582.0-0.0","0","0","41122","","null","","","null","64","","","","","","","","","","","","","","","",""
"","ITI","","html-keyboard-response","414","392230","0.0-1.0-585.0","0","0","41122","","null","","","null","64","","","","","","","","","","","","","","","NaN",""
"","S1","","html-keyboard-response","415","392483","0.0-1.0-587.0","0","0","41122","","null","","","null","65","","","","","","","","","","","","","","","",""
"","ISI","","html-keyboard-response","416","393485","0.0-1.0-588.0","0","0","41122","","208","","","68","65","d","","","","","","","","","","","","","","",""
"","S2","","html-keyboard-response","417","393739","0.0-1.0-589.0","0","0","41122","","null","","","null","65","","NaN","","","","","","","","","","","","","",""
"","response","","html-keyboard-response","418","393877","0.0-1.0-590.0-0.0","0","0","41122","","133","","","68","65","","","2","65","training","adjacent","DE","4","5","Q.jpg","M.jpg","1","1","1","",""
"","feedback","","html-keyboard-response","419","394880","0.0-1.0-591.0-0.0","0","0","41122","","null","","","null","65","","","","","","","","","","","","","","","",""
"","ITI","","html-keyboard-response","420","395883","0.0-1.0-594.0","0","0","41122","","null","","","null","65","","","","","","","","","","","","","","","NaN",""
"","S1","","html-keyboard-response","421","396136","0.0-1.0-596.0","0","0","41122","","null","","","null","66","","","","","","","","","","","","","","","",""
"","ISI","","html-keyboard-response","422","397138","0.0-1.0-597.0","0","0","41122","","null","","","null","66","NaN","","","","","","","","","","","","","","",""
"","S2","","html-keyboard-response","423","397393","0.0-1.0-598.0","0","0","41122","","null","","","null","66","","NaN","","","","","","","","","","","","","",""
"","response","","html-keyboard-response","424","397517","0.0-1.0-599.0-0.0","0","0","41122","","122","","","75","66","","","2","66","training","adjacent","CD","3","4","R.jpg","Q.jpg","0","1","0","",""
"","feedback","","html-keyboard-response","425","398520","0.0-1.0-600.0-0.0","0","0","41122","","null","","","null","66","","","","","","","","","","","","","","","",""
"","time_out","","html-keyboard-response","426","400523","0.0-1.0-602.0-0.0","0","0","41122","","null","","","null","66","","","","","","","","","","","","","","","",""
"","ITI","","html-keyboard-response","427","401536","0.0-1.0-603.0","0","0","41122","","null","","","null","66","","","","","","","","","","","","","","","NaN",""
"","S1","","html-keyboard-response","428","401788","0.0-1.0-605.0","0","0","41122","","null","","","null","67","","","","","","","","","","","","","","","",""
"","ISI","","html-keyboard-response","429","402790","0.0-1.0-606.0","0","0","41122","","266","","","68","67","d","","","","","","","","","","","","","","",""
"","S2","","html-keyboard-response","430","403044","0.0-1.0-607.0","0","0","41122","","null","","","null","67","","NaN","","","","","","","","","","","","","",""
"","response","","html-keyboard-response","431","403093","0.0-1.0-608.0-0.0","0","0","41122","","47","","","68","67","","","2","67","training","adjacent","BA","2","1","O.jpg","L.jpg","1","0","0","",""
"","feedback","","html-keyboard-response","432","404097","0.0-1.0-609.0-0.0","0","0","41122","","null","","","null","67","","","","","","","","","","","","","","","",""
"","time_out","","html-keyboard-response","433","406100","0.0-1.0-611.0-0.0","0","0","41122","","null","","","null","67","","","","","","","","","","","","","","","",""
"","ITI","","html-keyboard-response","434","407102","0.0-1.0-612.0","0","0","41122","","null","","","null","67","","","","","","","","","","","","","","","NaN",""
"","S1","","html-keyboard-response","435","407355","0.0-1.0-614.0","0","0","41122","","null","","","null","68","","","","","","","","","","","","","","","",""
"","ISI","","html-keyboard-response","436","408357","0.0-1.0-615.0","0","0","41122","","456","","","75","68","k","","","","","","","","","","","","","","",""
"","S2","","html-keyboard-response","437","408598","0.0-1.0-616.0","0","0","41122","","237","","","75","68","","k","2","68","training","adjacent","BA","2","1","O.jpg","L.jpg","0","0","1","",""
"","feedback","","html-keyboard-response","438","409601","0.0-1.0-618.0-0.0","0","0","41122","","null","","","null","68","","","","","","","","","","","","","","","",""
"","ITI","","html-keyboard-response","439","410603","0.0-1.0-621.0","0","0","41122","","null","","","null","68","","","","","","","","","","","","","","","NaN",""
"","S1","","html-keyboard-response","440","410856","0.0-1.0-623.0","0","0","41122","","null","","","null","69","","","","","","","","","","","","","","","",""
"","ISI","","html-keyboard-response","441","411859","0.0-1.0-624.0","0","0","41122","","null","","","null","69","NaN","","","","","","","","","","","","","","",""
"","S2","","html-keyboard-response","442","412113","0.0-1.0-625.0","0","0","41122","","null","","","null","69","","NaN","","","","","","","","","","","","","",""
"","response","","html-keyboard-response","443","412135","0.0-1.0-626.0-0.0","0","0","41122","","20","","","68","69","","","2","69","training","adjacent","CD","3","4","R.jpg","Q.jpg","1","1","1","",""
"","feedback","","html-keyboard-response","444","413138","0.0-1.0-627.0-0.0","0","0","41122","","null","","","null","69","","","","","","","","","","","","","","","",""
"","ITI","","html-keyboard-response","445","414141","0.0-1.0-630.0","0","0","41122","","null","","","null","69","","","","","","","","","","","","","","","NaN",""
"","S1","","html-keyboard-response","446","414394","0.0-1.0-632.0","0","0","41122","","null","","","null","70","","","","","","","","","","","","","","","",""
"","ISI","","html-keyboard-response","447","415396","0.0-1.0-633.0","0","0","41122","","209","","","68","70","d","","","","","","","","","","","","","","",""
"","S2","","html-keyboard-response","448","415650","0.0-1.0-634.0","0","0","41122","","null","","","null","70","","NaN","","","","","","","","","","","","","",""
"","response","","html-keyboard-response","449","415724","0.0-1.0-635.0-0.0","0","0","41122","","73","","","68","70","","","2","70","training","adjacent","DE","4","5","Q.jpg","M.jpg","1","1","1","",""
"","feedback","","html-keyboard-response","450","416728","0.0-1.0-636.0-0.0","0","0","41122","","null","","","null","70","","","","","","","","","","","","","","","",""
"","ITI","","html-keyboard-response","451","417730","0.0-1.0-639.0","0","0","41122","","null","","","null","70","","","","","","","","","","","","","","","NaN",""
"","S1","","html-keyboard-response","452","417983","0.0-1.0-641.0","0","0","41122","","null","","","null","71","","","","","","","","","","","","","","","",""
"","ISI","","html-keyboard-response","453","418986","0.0-1.0-642.0","0","0","41122","","null","","","null","71","NaN","","","","","","","","","","","","","","",""
"","S2","","html-keyboard-response","454","419240","0.0-1.0-643.0","0","0","41122","","null","","","null","71","","NaN","","","","","","","","","","","","","",""
"","response","","html-keyboard-response","455","419365","0.0-1.0-644.0-0.0","0","0","41122","","122","","","75","71","","","2","71","training","adjacent","CB","3","2","R.jpg","O.jpg","0","0","1","",""
"","feedback","","html-keyboard-response","456","420369","0.0-1.0-645.0-0.0","0","0","41122","","null","","","null","71","","","","","","","","","","","","","","","",""
"","ITI","","html-keyboard-response","457","421373","0.0-1.0-648.0","0","0","41122","","null","","","null","71","","","","","","","","","","","","","","","NaN",""
"","S1","","html-keyboard-response","458","421625","0.0-1.0-650.0","0","0","41122","","null","","","null","72","","","","","","","","","","","","","","","",""
"","ISI","","html-keyboard-response","459","422628","0.0-1.0-651.0","0","0","41122","","null","","","null","72","NaN","","","","","","","","","","","","","","",""
"","S2","","html-keyboard-response","460","422881","0.0-1.0-652.0","0","0","41122","","null","","","null","72","","NaN","","","","","","","","","","","","","",""
"","response","","html-keyboard-response","461","422966","0.0-1.0-653.0-0.0","0","0","41122","","83","","","68","72","","","2","72","training","adjacent","DE","4","5","Q.jpg","M.jpg","1","1","1","",""
"","feedback","","html-keyboard-response","462","423970","0.0-1.0-654.0-0.0","0","0","41122","","null","","","null","72","","","","","","","","","","","","","","","",""
"","ITI","","html-keyboard-response","463","424973","0.0-1.0-657.0","0","0","41122","","null","","","null","72","","","","","","","","","","","","","","","NaN",""
"","S1","","html-keyboard-response","464","425226","0.0-1.0-659.0","0","0","41122","","null","","","null","73","","","","","","","","","","","","","","","",""
"","ISI","","html-keyboard-response","465","426228","0.0-1.0-660.0","0","0","41122","","null","","","null","73","NaN","","","","","","","","","","","","","","",""
"","S2","","html-keyboard-response","466","426482","0.0-1.0-661.0","0","0","41122","","null","","","null","73","","NaN","","","","","","","","","","","","","",""
"","response","","html-keyboard-response","467","427492","0.0-1.0-662.0-0.0","0","0","41122","","1008","","","75","73","","","2","73","training","adjacent","GF","7","6","P.jpg","N.jpg","0","0","1","",""
"","feedback","","html-keyboard-response","468","428498","0.0-1.0-663.0-0.0","0","0","41122","","null","","","null","73","","","","","","","","","","","","","","","",""
"","ITI","","html-keyboard-response","469","429502","0.0-1.0-666.0","0","0","41122","","null","","","null","73","","","","","","","","","","","","","","","NaN",""
"","S1","","html-keyboard-response","470","429756","0.0-1.0-668.0","0","0","41122","","null","","","null","74","","","","","","","","","","","","","","","",""
"","ISI","","html-keyboard-response","471","430773","0.0-1.0-669.0","0","0","41122","","null","","","null","74","NaN","","","","","","","","","","","","","","",""
"","S2","","html-keyboard-response","472","431026","0.0-1.0-670.0","0","0","41122","","null","","","null","74","","NaN","","","","","","","","","","","","","",""
"","response","","html-keyboard-response","473","431109","0.0-1.0-671.0-0.0","0","0","41122","","80","","","68","74","","","2","74","training","adjacent","BA","2","1","O.jpg","L.jpg","1","0","0","",""
"","feedback","","html-keyboard-response","474","432113","0.0-1.0-672.0-0.0","0","0","41122","","null","","","null","74","","","","","","","","","","","","","","","",""
"","time_out","","html-keyboard-response","475","434117","0.0-1.0-674.0-0.0","0","0","41122","","null","","","null","74","","","","","","","","","","","","","","","",""
"","ITI","","html-keyboard-response","476","435120","0.0-1.0-675.0","0","0","41122","","null","","","null","74","","","","","","","","","","","","","","","NaN",""
"","S1","","html-keyboard-response","477","435373","0.0-1.0-677.0","0","0","41122","","null","","","null","75","","","","","","","","","","","","","","","",""
"","ISI","","html-keyboard-response","478","436375","0.0-1.0-678.0","0","0","41122","","149","","","75","75","k","","","","","","","","","","","","","","",""
"","S2","","html-keyboard-response","479","436604","0.0-1.0-679.0","0","0","41122","","225","","","75","75","","k","2","75","training","adjacent","AB","1","2","L.jpg","O.jpg","0","1","0","",""
"","feedback","","html-keyboard-response","480","437607","0.0-1.0-681.0-0.0","0","0","41122","","null","","","null","75","","","","","","","","","","","","","","","",""
"","time_out","","html-keyboard-response","481","439610","0.0-1.0-683.0-0.0","0","0","41122","","null","","","null","75","","","","","","","","","","","","","","","",""
"","ITI","","html-keyboard-response","482","440613","0.0-1.0-684.0","0","0","41122","","null","","","null","75","","","","","","","","","","","","","","","NaN",""
"","S1","","html-keyboard-response","483","440866","0.0-1.0-686.0","0","0","41122","","null","","","null","76","","","","","","","","","","","","","","","",""
"","ISI","","html-keyboard-response","484","441868","0.0-1.0-687.0","0","0","41122","","null","","","null","76","NaN","","","","","","","","","","","","","","",""
"","S2","","html-keyboard-response","485","442121","0.0-1.0-688.0","0","0","41122","","null","","","null","76","","NaN","","","","","","","","","","","","","",""
"","response","","html-keyboard-response","486","442139","0.0-1.0-689.0-0.0","0","0","41122","","16","","","68","76","","","2","76","training","adjacent","ED","5","4","M.jpg","Q.jpg","1","0","0","",""
"","feedback","","html-keyboard-response","487","443142","0.0-1.0-690.0-0.0","0","0","41122","","null","","","null","76","","","","","","","","","","","","","","","",""
"","time_out","","html-keyboard-response","488","445145","0.0-1.0-692.0-0.0","0","0","41122","","null","","","null","76","","","","","","","","","","","","","","","",""
"","ITI","","html-keyboard-response","489","446148","0.0-1.0-693.0","0","0","41122","","null","","","null","76","","","","","","","","","","","","","","","NaN",""
"","S1","","html-keyboard-response","490","446401","0.0-1.0-695.0","0","0","41122","","null","","","null","77","","","","","","","","","","","","","","","",""
"","ISI","","html-keyboard-response","491","447403","0.0-1.0-696.0","0","0","41122","","124","","","75","77","k","","","","","","","","","","","","","","",""
"","S2","","html-keyboard-response","492","447656","0.0-1.0-697.0","0","0","41122","","null","","","null","77","","NaN","","","","","","","","","","","","","",""
"","response","","html-keyboard-response","493","447733","0.0-1.0-698.0-0.0","0","0","41122","","73","","","75","77","","","2","77","training","adjacent","CB","3","2","R.jpg","O.jpg","0","0","1","",""
"","feedback","","html-keyboard-response","494","448736","0.0-1.0-699.0-0.0","0","0","41122","","null","","","null","77","","","","","","","","","","","","","","","",""
"","ITI","","html-keyboard-response","495","449740","0.0-1.0-702.0","0","0","41122","","null","","","null","77","","","","","","","","","","","","","","","NaN",""
"","S1","","html-keyboard-response","496","449993","0.0-1.0-704.0","0","0","41122","","null","","","null","78","","","","","","","","","","","","","","","",""
"","ISI","","html-keyboard-response","497","450997","0.0-1.0-705.0","0","0","41122","","null","","","null","78","NaN","","","","","","","","","","","","","","",""
"","S2","","html-keyboard-response","498","451250","0.0-1.0-706.0","0","0","41122","","null","","","null","78","","NaN","","","","","","","","","","","","","",""
"","response","","html-keyboard-response","499","451660","0.0-1.0-707.0-0.0","0","0","41122","","407","","","68","78","","","2","78","training","adjacent","FE","6","5","N.jpg","M.jpg","1","0","0","",""
"","feedback","","html-keyboard-response","500","452663","0.0-1.0-708.0-0.0","0","0","41122","","null","","","null","78","","","","","","","","","","","","","","","",""
"","time_out","","html-keyboard-response","501","454666","0.0-1.0-710.0-0.0","0","0","41122","","null","","","null","78","","","","","","","","","","","","","","","",""
"","ITI","","html-keyboard-response","502","455668","0.0-1.0-711.0","0","0","41122","","null","","","null","78","","","","","","","","","","","","","","","NaN",""
"","S1","","html-keyboard-response","503","455922","0.0-1.0-713.0","0","0","41122","","null","","","null","79","","","","","","","","","","","","","","","",""
"","ISI","","html-keyboard-response","504","456924","0.0-1.0-714.0","0","0","41122","","null","","","null","79","NaN","","","","","","","","","","","","","","",""
"","S2","","html-keyboard-response","505","457179","0.0-1.0-715.0","0","0","41122","","null","","","null","79","","NaN","","","","","","","","","","","","","",""
"","response","","html-keyboard-response","506","457183","0.0-1.0-716.0-0.0","0","0","41122","","0","","","75","79","","","2","79","training","adjacent","ED","5","4","M.jpg","Q.jpg","0","0","1","",""
"","feedback","","html-keyboard-response","507","458186","0.0-1.0-717.0-0.0","0","0","41122","","null","","","null","79","","","","","","","","","","","","","","","",""
"","ITI","","html-keyboard-response","508","459190","0.0-1.0-720.0","0","0","41122","","null","","","null","79","","","","","","","","","","","","","","","NaN",""
"","S1","","html-keyboard-response","509","459443","0.0-1.0-722.0","0","0","41122","","null","","","null","80","","","","","","","","","","","","","","","",""
"","ISI","","html-keyboard-response","510","460446","0.0-1.0-723.0","0","0","41122","","null","","","null","80","NaN","","","","","","","","","","","","","","",""
"","S2","","html-keyboard-response","511","460699","0.0-1.0-724.0","0","0","41122","","null","","","null","80","","NaN","","","","","","","","","","","","","",""
"","response","","html-keyboard-response","512","460732","0.0-1.0-725.0-0.0","0","0","41122","","31","","","68","80","","","2","80","training","adjacent","BC","2","3","O.jpg","R.jpg","1","1","1","",""
"","feedback","","html-keyboard-response","513","461735","0.0-1.0-726.0-0.0","0","0","41122","","null","","","null","80","","","","","","","","","","","","","","","",""
"","ITI","","html-keyboard-response","514","462738","0.0-1.0-729.0","0","0","41122","","null","","","null","80","","","","","","","","","","","","","","","NaN",""
"","S1","","html-keyboard-response","515","462990","0.0-1.0-731.0","0","0","41122","","null","","","null","81","","","","","","","","","","","","","","","",""
"","ISI","","html-keyboard-response","516","463993","0.0-1.0-732.0","0","0","41122","","100","","","75","81","k","","","","","","","","","","","","","","",""
"","S2","","html-keyboard-response","517","464148","0.0-1.0-733.0","0","0","41122","","152","","","75","81","","k","2","81","training","adjacent","EF","5","6","M.jpg","N.jpg","0","1","0","",""
"","feedback","","html-keyboard-response","518","465150","0.0-1.0-735.0-0.0","0","0","41122","","null","","","null","81","","","","","","","","","","","","","","","",""
"","time_out","","html-keyboard-response","519","467153","0.0-1.0-737.0-0.0","0","0","41122","","null","","","null","81","","","","","","","","","","","","","","","",""
"","ITI","","html-keyboard-response","520","468156","0.0-1.0-738.0","0","0","41122","","null","","","null","81","","","","","","","","","","","","","","","NaN",""
"","S1","","html-keyboard-response","521","468409","0.0-1.0-740.0","0","0","41122","","null","","","null","82","","","","","","","","","","","","","","","",""
"","ISI","","html-keyboard-response","522","469411","0.0-1.0-741.0","0","0","41122","","null","","","null","82","NaN","","","","","","","","","","","","","","",""
"","S2","","html-keyboard-response","523","469665","0.0-1.0-742.0","0","0","41122","","null","","","null","82","","NaN","","","","","","","","","","","","","",""
"","response","","html-keyboard-response","524","469696","0.0-1.0-743.0-0.0","0","0","41122","","28","","","68","82","","","2","82","training","adjacent","AB","1","2","L.jpg","O.jpg","1","1","1","",""
"","feedback","","html-keyboard-response","525","470699","0.0-1.0-744.0-0.0","0","0","41122","","null","","","null","82","","","","","","","","","","","","","","","",""
"","ITI","","html-keyboard-response","526","471701","0.0-1.0-747.0","0","0","41122","","null","","","null","82","","","","","","","","","","","","","","","NaN",""
"","S1","","html-keyboard-response","527","471954","0.0-1.0-749.0","0","0","41122","","null","","","null","83","","","","","","","","","","","","","","","",""
"","ISI","","html-keyboard-response","528","472957","0.0-1.0-750.0","0","0","41122","","null","","","null","83","NaN","","","","","","","","","","","","","","",""
"","S2","","html-keyboard-response","529","473211","0.0-1.0-751.0","0","0","41122","","null","","","null","83","","NaN","","","","","","","","","","","","","",""
"","response","","html-keyboard-response","530","473243","0.0-1.0-752.0-0.0","0","0","41122","","30","","","75","83","","","2","83","training","adjacent","FE","6","5","N.jpg","M.jpg","0","0","1","",""
"","feedback","","html-keyboard-response","531","474246","0.0-1.0-753.0-0.0","0","0","41122","","null","","","null","83","","","","","","","","","","","","","","","",""
"","ITI","","html-keyboard-response","532","475250","0.0-1.0-756.0","0","0","41122","","null","","","null","83","","","","","","","","","","","","","","","NaN",""
"","S1","","html-keyboard-response","533","475503","0.0-1.0-758.0","0","0","41122","","null","","","null","84","","","","","","","","","","","","","","","",""
"","ISI","","html-keyboard-response","534","476505","0.0-1.0-759.0","0","0","41122","","122","","","68","84","d","","","","","","","","","","","","","","",""
"","S2","","html-keyboard-response","535","476759","0.0-1.0-760.0","0","0","41122","","null","","","null","84","","NaN","","","","","","","","","","","","","",""
"","response","","html-keyboard-response","536","476765","0.0-1.0-761.0-0.0","0","0","41122","","2","","","68","84","","","2","84","training","adjacent","FG","6","7","N.jpg","P.jpg","1","1","1","",""
"","feedback","","html-keyboard-response","537","477768","0.0-1.0-762.0-0.0","0","0","41122","","null","","","null","84","","","","","","","","","","","","","","","",""
"","ITI","","html-keyboard-response","538","478771","0.0-1.0-765.0","0","0","41122","","null","","","null","84","","","","","","","","","","","","","","","NaN",""
"","S1","","html-keyboard-response","539","479030","0.0-1.0-767.0","0","0","41122","","null","","","null","85","","","","","","","","","","","","","","","",""
"","ISI","","html-keyboard-response","540","480033","0.0-1.0-768.0","0","0","41122","","null","","","null","85","NaN","","","","","","","","","","","","","","",""
"","S2","","html-keyboard-response","541","480286","0.0-1.0-769.0","0","0","41122","","null","","","null","85","","NaN","","","","","","","","","","","","","",""
"","response","","html-keyboard-response","542","480454","0.0-1.0-770.0-0.0","0","0","41122","","165","","","75","85","","","2","85","training","adjacent","FG","6","7","N.jpg","P.jpg","0","1","0","",""
"","feedback","","html-keyboard-response","543","481457","0.0-1.0-771.0-0.0","0","0","41122","","null","","","null","85","","","","","","","","","","","","","","","",""
"","time_out","","html-keyboard-response","544","483459","0.0-1.0-773.0-0.0","0","0","41122","","null","","","null","85","","","","","","","","","","","","","","","",""
"","ITI","","html-keyboard-response","545","484462","0.0-1.0-774.0","0","0","41122","","null","","","null","85","","","","","","","","","","","","","","","NaN",""
"","S1","","html-keyboard-response","546","484714","0.0-1.0-776.0","0","0","41122","","null","","","null","86","","","","","","","","","","","","","","","",""
"","ISI","","html-keyboard-response","547","485718","0.0-1.0-777.0","0","0","41122","","null","","","null","86","NaN","","","","","","","","","","","","","","",""
"","S2","","html-keyboard-response","548","485972","0.0-1.0-778.0","0","0","41122","","null","","","null","86","","NaN","","","","","","","","","","","","","",""
"","response","","html-keyboard-response","549","485995","0.0-1.0-779.0-0.0","0","0","41122","","21","","","68","86","","","2","86","training","adjacent","DE","4","5","Q.jpg","M.jpg","1","1","1","",""
"","feedback","","html-keyboard-response","550","486999","0.0-1.0-780.0-0.0","0","0","41122","","null","","","null","86","","","","","","","","","","","","","","","",""
"","ITI","","html-keyboard-response","551","488001","0.0-1.0-783.0","0","0","41122","","null","","","null","86","","","","","","","","","","","","","","","NaN",""
"","S1","","html-keyboard-response","552","488255","0.0-1.0-785.0","0","0","41122","","null","","","null","87","","","","","","","","","","","","","","","",""
"","ISI","","html-keyboard-response","553","489257","0.0-1.0-786.0","0","0","41122","","null","","","null","87","NaN","","","","","","","","","","","","","","",""
"","S2","","html-keyboard-response","554","489510","0.0-1.0-787.0","0","0","41122","","null","","","null","87","","NaN","","","","","","","","","","","","","",""
"","response","","html-keyboard-response","555","489523","0.0-1.0-788.0-0.0","0","0","41122","","11","","","75","87","","","2","87","training","adjacent","FG","6","7","N.jpg","P.jpg","0","1","0","",""
"","feedback","","html-keyboard-response","556","490526","0.0-1.0-789.0-0.0","0","0","41122","","null","","","null","87","","","","","","","","","","","","","","","",""
"","time_out","","html-keyboard-response","557","492528","0.0-1.0-791.0-0.0","0","0","41122","","null","","","null","87","","","","","","","","","","","","","","","",""
"","ITI","","html-keyboard-response","558","493532","0.0-1.0-792.0","0","0","41122","","null","","","null","87","","","","","","","","","","","","","","","NaN",""
"","S1","","html-keyboard-response","559","493784","0.0-1.0-794.0","0","0","41122","","null","","","null","88","","","","","","","","","","","","","","","",""
"","ISI","","html-keyboard-response","560","494786","0.0-1.0-795.0","0","0","41122","","395","","","68","88","d","","","","","","","","","","","","","","",""
"","S2","","html-keyboard-response","561","495041","0.0-1.0-796.0","0","0","41122","","null","","","null","88","","NaN","","","","","","","","","","","","","",""
"","response","","html-keyboard-response","562","495091","0.0-1.0-797.0-0.0","0","0","41122","","47","","","68","88","","","2","88","training","adjacent","EF","5","6","M.jpg","N.jpg","1","1","1","",""
"","feedback","","html-keyboard-response","563","496095","0.0-1.0-798.0-0.0","0","0","41122","","null","","","null","88","","","","","","","","","","","","","","","",""
"","ITI","","html-keyboard-response","564","497097","0.0-1.0-801.0","0","0","41122","","null","","","null","88","","","","","","","","","","","","","","","NaN",""
"","S1","","html-keyboard-response","565","497350","0.0-1.0-803.0","0","0","41122","","null","","","null","89","","","","","","","","","","","","","","","",""
"","ISI","","html-keyboard-response","566","498353","0.0-1.0-804.0","0","0","41122","","null","","","null","89","NaN","","","","","","","","","","","","","","",""
"","S2","","html-keyboard-response","567","498606","0.0-1.0-805.0","0","0","41122","","null","","","null","89","","NaN","","","","","","","","","","","","","",""
"","response","","html-keyboard-response","568","498819","0.0-1.0-806.0-0.0","0","0","41122","","209","","","75","89","","","2","89","training","adjacent","DC","4","3","Q.jpg","R.jpg","0","0","1","",""
"","feedback","","html-keyboard-response","569","499823","0.0-1.0-807.0-0.0","0","0","41122","","null","","","null","89","","","","","","","","","","","","","","","",""
"","ITI","","html-keyboard-response","570","500826","0.0-1.0-810.0","0","0","41122","","null","","","null","89","","","","","","","","","","","","","","","NaN",""
"","S1","","html-keyboard-response","571","501079","0.0-1.0-812.0","0","0","41122","","null","","","null","90","","","","","","","","","","","","","","","",""
"","ISI","","html-keyboard-response","572","502081","0.0-1.0-813.0","0","0","41122","","null","","","null","90","NaN","","","","","","","","","","","","","","",""
"","S2","","html-keyboard-response","573","502334","0.0-1.0-814.0","0","0","41122","","null","","","null","90","","NaN","","","","","","","","","","","","","",""
"","response","","html-keyboard-response","574","502379","0.0-1.0-815.0-0.0","0","0","41122","","42","","","68","90","","","2","90","training","adjacent","ED","5","4","M.jpg","Q.jpg","1","0","0","",""
"","feedback","","html-keyboard-response","575","503383","0.0-1.0-816.0-0.0","0","0","41122","","null","","","null","90","","","","","","","","","","","","","","","",""
"","time_out","","html-keyboard-response","576","505386","0.0-1.0-818.0-0.0","0","0","41122","","null","","","null","90","","","","","","","","","","","","","","","",""
"","ITI","","html-keyboard-response","577","506389","0.0-1.0-819.0","0","0","41122","","null","","","null","90","","","","","","","","","","","","","","","NaN",""
"","S1","","html-keyboard-response","578","506643","0.0-1.0-821.0","0","0","41122","","null","","","null","91","","","","","","","","","","","","","","","",""
"","ISI","","html-keyboard-response","579","507645","0.0-1.0-822.0","0","0","41122","","null","","","null","91","NaN","","","","","","","","","","","","","","",""
"","S2","","html-keyboard-response","580","507899","0.0-1.0-823.0","0","0","41122","","null","","","null","91","","NaN","","","","","","","","","","","","","",""
"","response","","html-keyboard-response","581","507917","0.0-1.0-824.0-0.0","0","0","41122","","15","","","75","91","","","2","91","training","adjacent","EF","5","6","M.jpg","N.jpg","0","1","0","",""
"","feedback","","html-keyboard-response","582","508920","0.0-1.0-825.0-0.0","0","0","41122","","null","","","null","91","","","","","","","","","","","","","","","",""
"","time_out","","html-keyboard-response","583","510924","0.0-1.0-827.0-0.0","0","0","41122","","null","","","null","91","","","","","","","","","","","","","","","",""
