"success","ttype","start_time","trial_type","trial_index","time_elapsed","internal_node_id","warning","missed_checkup","PID","view_history","rt","responses","repeat_instructions","key_press","index","keypress_isi","keypress_S2","block","trial_num","phase","group_type","pair_type","S1_stim","S2_stim","S1_img","S2_img","S1_chosen","S1_higher","accuracy","keypress_iti","total_bonus_tally"
"true","full_screen","d04132023hr1617","fullscreen","0","8645","0.0-0.0","0","0","65121","","","","","","","","","","","","","","","","","","","","","",""
"","instructions","","instructions","1","37098","0.0-1.0-0.0-0.0","0","0","65121","[{""page_index"":0,""viewing_time"":9349},{""page_index"":1,""viewing_time"":13526},{""page_index"":2,""viewing_time"":3686},{""page_index"":3,""viewing_time"":1888}]","28449","","","","","","","","","","","","","","","","","","","",""
"","comprehension_check","","survey-multi-choice","2","72794","0.0-1.0-0.0-1.0","0","0","65121","","35687","{""Q0"":""True"",""Q1"":""D"",""Q2"":""Once the second image appears and while the screen 'MAKE A CHOICE' is shown"",""Q3"":""Green mark"",""Q4"":""either D or K""}","1","","","","","","","","","","","","","","","","","",""
"","missed_instruction_checkup","","html-keyboard-response","3","76488","0.0-1.0-0.0-2.0-0.0","0","1","65121","","3688","","","32","","","","","","","","","","","","","","","","",""
"","instructions","","instructions","4","109544","0.0-1.0-0.1-0.1","0","0","65121","[{""page_index"":0,""viewing_time"":5610},{""page_index"":1,""viewing_time"":19779},{""page_index"":2,""viewing_time"":6235},{""page_index"":3,""viewing_time"":1427}]","33052","","","","","","","","","","","","","","","","","","","",""
"","comprehension_check","","survey-multi-choice","5","136556","0.0-1.0-0.1-1.1","0","0","65121","","27005","{""Q0"":""True"",""Q1"":""K"",""Q2"":""Once the second image appears and while the screen 'MAKE A CHOICE' is shown"",""Q3"":""Green mark"",""Q4"":""either D or K""}","0","","","","","","","","","","","","","","","","","",""
"","start_exp","","html-keyboard-response","6","139784","0.0-1.0-1.0","0","0","65121","","3223","","","32","","","","","","","","","","","","","","","","",""
"","S1","","html-keyboard-response","7","140045","0.0-1.0-2.0","0","0","65121","","null","","","null","0","","","","","","","","","","","","","","","",""
"","ISI","","html-keyboard-response","8","141053","0.0-1.0-3.0","0","0","65121","","null","","","null","0","NaN","","","","","","","","","","","","","","",""
"","S2","","html-keyboard-response","9","141309","0.0-1.0-4.0","0","0","65121","","null","","","null","0","","NaN","","","","","","","","","","","","","",""
"","response","","html-keyboard-response","10","141582","0.0-1.0-5.0-0.0","0","0","65121","","269","","","75","0","","","1","0","training","adjacent","BA","2","1","O.jpg","N.jpg","1","0","0","",""
"","feedback","","html-keyboard-response","11","142589","0.0-1.0-6.0-0.0","0","0","65121","","null","","","null","0","","","","","","","","","","","","","","","",""
"","time_out","","html-keyboard-response","12","144597","0.0-1.0-8.0-0.0","0","0","65121","","null","","","null","0","","","","","","","","","","","","","","","",""
"","ITI","","html-keyboard-response","13","145605","0.0-1.0-9.0","0","0","65121","","null","","","null","0","","","","","","","","","","","","","","","NaN",""
"","S1","","html-keyboard-response","14","145861","0.0-1.0-11.0","0","0","65121","","null","","","null","1","","","","","","","","","","","","","","","",""
"","ISI","","html-keyboard-response","15","146869","0.0-1.0-12.0","0","0","65121","","null","","","null","1","NaN","","","","","","","","","","","","","","",""
"","S2","","html-keyboard-response","16","147125","0.0-1.0-13.0","0","0","65121","","null","","","null","1","","NaN","","","","","","","","","","","","","",""
"","response","","html-keyboard-response","17","147357","0.0-1.0-14.0-0.0","0","0","65121","","228","","","75","1","","","1","1","training","adjacent","CB","3","2","L.jpg","O.jpg","1","0","0","",""
"","feedback","","html-keyboard-response","18","148365","0.0-1.0-15.0-0.0","0","0","65121","","null","","","null","1","","","","","","","","","","","","","","","",""
"","time_out","","html-keyboard-response","19","150373","0.0-1.0-17.0-0.0","0","0","65121","","null","","","null","1","","","","","","","","","","","","","","","",""
"","ITI","","html-keyboard-response","20","151381","0.0-1.0-18.0","0","0","65121","","null","","","null","1","","","","","","","","","","","","","","","NaN",""
"","S1","","html-keyboard-response","21","151637","0.0-1.0-20.0","0","0","65121","","null","","","null","2","","","","","","","","","","","","","","","",""
"","ISI","","html-keyboard-response","22","152644","0.0-1.0-21.0","0","0","65121","","null","","","null","2","NaN","","","","","","","","","","","","","","",""
"","S2","","html-keyboard-response","23","152901","0.0-1.0-22.0","0","0","65121","","null","","","null","2","","NaN","","","","","","","","","","","","","",""
"","response","","html-keyboard-response","24","153065","0.0-1.0-23.0-0.0","0","0","65121","","160","","","68","2","","","1","2","training","adjacent","FE","6","5","Q.jpg","R.jpg","0","0","1","",""
"","feedback","","html-keyboard-response","25","154077","0.0-1.0-24.0-0.0","0","0","65121","","null","","","null","2","","","","","","","","","","","","","","","",""
"","ITI","","html-keyboard-response","26","155085","0.0-1.0-27.0","0","0","65121","","null","","","null","2","","","","","","","","","","","","","","","NaN",""
"","S1","","html-keyboard-response","27","155341","0.0-1.0-29.0","0","0","65121","","null","","","null","3","","","","","","","","","","","","","","","",""
"","ISI","","html-keyboard-response","28","156348","0.0-1.0-30.0","0","0","65121","","null","","","null","3","NaN","","","","","","","","","","","","","","",""
"","S2","","html-keyboard-response","29","156605","0.0-1.0-31.0","0","0","65121","","null","","","null","3","","NaN","","","","","","","","","","","","","",""
"","response","","html-keyboard-response","30","157126","0.0-1.0-32.0-0.0","0","0","65121","","519","","","75","3","","","1","3","training","adjacent","DC","4","3","M.jpg","L.jpg","1","0","0","",""
"","feedback","","html-keyboard-response","31","158132","0.0-1.0-33.0-0.0","0","0","65121","","null","","","null","3","","","","","","","","","","","","","","","",""
"","time_out","","html-keyboard-response","32","160141","0.0-1.0-35.0-0.0","0","0","65121","","null","","","null","3","","","","","","","","","","","","","","","",""
"","ITI","","html-keyboard-response","33","161150","0.0-1.0-36.0","0","0","65121","","null","","","null","3","","","","","","","","","","","","","","","NaN",""
"","S1","","html-keyboard-response","34","161405","0.0-1.0-38.0","0","0","65121","","null","","","null","4","","","","","","","","","","","","","","","",""
"","ISI","","html-keyboard-response","35","162412","0.0-1.0-39.0","0","0","65121","","null","","","null","4","NaN","","","","","","","","","","","","","","",""
"","S2","","html-keyboard-response","36","162669","0.0-1.0-40.0","0","0","65121","","null","","","null","4","","NaN","","","","","","","","","","","","","",""
"","response","","html-keyboard-response","37","163415","0.0-1.0-41.0-0.0","0","0","65121","","733","","","68","4","","","1","4","training","adjacent","DE","4","5","M.jpg","R.jpg","0","1","0","",""
"","feedback","","html-keyboard-response","38","164421","0.0-1.0-42.0-0.0","0","0","65121","","null","","","null","4","","","","","","","","","","","","","","","",""
"","time_out","","html-keyboard-response","39","166429","0.0-1.0-44.0-0.0","0","0","65121","","null","","","null","4","","","","","","","","","","","","","","","",""
"","ITI","","html-keyboard-response","40","167437","0.0-1.0-45.0","0","0","65121","","null","","","null","4","","","","","","","","","","","","","","","NaN",""
"","S1","","html-keyboard-response","41","167692","0.0-1.0-47.0","0","0","65121","","null","","","null","5","","","","","","","","","","","","","","","",""
"","ISI","","html-keyboard-response","42","168701","0.0-1.0-48.0","0","0","65121","","null","","","null","5","NaN","","","","","","","","","","","","","","",""
"","S2","","html-keyboard-response","43","168958","0.0-1.0-49.0","0","0","65121","","null","","","null","5","","NaN","","","","","","","","","","","","","",""
"","response","","html-keyboard-response","44","169162","0.0-1.0-50.0-0.0","0","0","65121","","199","","","75","5","","","1","5","training","adjacent","BA","2","1","O.jpg","N.jpg","1","0","0","",""
"","feedback","","html-keyboard-response","45","170173","0.0-1.0-51.0-0.0","0","0","65121","","null","","","null","5","","","","","","","","","","","","","","","",""
"","time_out","","html-keyboard-response","46","172181","0.0-1.0-53.0-0.0","0","0","65121","","null","","","null","5","","","","","","","","","","","","","","","",""
"","ITI","","html-keyboard-response","47","173189","0.0-1.0-54.0","0","0","65121","","null","","","null","5","","","","","","","","","","","","","","","NaN",""
"","S1","","html-keyboard-response","48","173445","0.0-1.0-56.0","0","0","65121","","null","","","null","6","","","","","","","","","","","","","","","",""
"","ISI","","html-keyboard-response","49","174453","0.0-1.0-57.0","0","0","65121","","null","","","null","6","NaN","","","","","","","","","","","","","","",""
"","S2","","html-keyboard-response","50","174709","0.0-1.0-58.0","0","0","65121","","null","","","null","6","","NaN","","","","","","","","","","","","","",""
"","response","","html-keyboard-response","51","175141","0.0-1.0-59.0-0.0","0","0","65121","","429","","","68","6","","","1","6","training","adjacent","BC","2","3","O.jpg","L.jpg","0","1","0","",""
"","feedback","","html-keyboard-response","52","176149","0.0-1.0-60.0-0.0","0","0","65121","","null","","","null","6","","","","","","","","","","","","","","","",""
"","time_out","","html-keyboard-response","53","178157","0.0-1.0-62.0-0.0","0","0","65121","","null","","","null","6","","","","","","","","","","","","","","","",""
"","ITI","","html-keyboard-response","54","179165","0.0-1.0-63.0","0","0","65121","","null","","","null","6","","","","","","","","","","","","","","","NaN",""
"","S1","","html-keyboard-response","55","179422","0.0-1.0-65.0","0","0","65121","","null","","","null","7","","","","","","","","","","","","","","","",""
"","ISI","","html-keyboard-response","56","180429","0.0-1.0-66.0","0","0","65121","","null","","","null","7","NaN","","","","","","","","","","","","","","",""
"","S2","","html-keyboard-response","57","180685","0.0-1.0-67.0","0","0","65121","","null","","","null","7","","NaN","","","","","","","","","","","","","",""
"","response","","html-keyboard-response","58","180850","0.0-1.0-68.0-0.0","0","0","65121","","162","","","75","7","","","1","7","training","adjacent","CD","3","4","L.jpg","M.jpg","1","1","1","",""
"","feedback","","html-keyboard-response","59","181861","0.0-1.0-69.0-0.0","0","0","65121","","null","","","null","7","","","","","","","","","","","","","","","",""
"","ITI","","html-keyboard-response","60","182869","0.0-1.0-72.0","0","0","65121","","null","","","null","7","","","","","","","","","","","","","","","NaN",""
"","S1","","html-keyboard-response","61","183125","0.0-1.0-74.0","0","0","65121","","null","","","null","8","","","","","","","","","","","","","","","",""
"","ISI","","html-keyboard-response","62","184133","0.0-1.0-75.0","0","0","65121","","null","","","null","8","NaN","","","","","","","","","","","","","","",""
"","S2","","html-keyboard-response","63","184389","0.0-1.0-76.0","0","0","65121","","null","","","null","8","","NaN","","","","","","","","","","","","","",""
"","response","","html-keyboard-response","64","184550","0.0-1.0-77.0-0.0","0","0","65121","","157","","","75","8","","","1","8","training","adjacent","BA","2","1","O.jpg","N.jpg","1","0","0","",""
"","feedback","","html-keyboard-response","65","185557","0.0-1.0-78.0-0.0","0","0","65121","","null","","","null","8","","","","","","","","","","","","","","","",""
"","time_out","","html-keyboard-response","66","187565","0.0-1.0-80.0-0.0","0","0","65121","","null","","","null","8","","","","","","","","","","","","","","","",""
"","ITI","","html-keyboard-response","67","188573","0.0-1.0-81.0","0","0","65121","","null","","","null","8","","","","","","","","","","","","","","","NaN",""
"","S1","","html-keyboard-response","68","188829","0.0-1.0-83.0","0","0","65121","","null","","","null","9","","","","","","","","","","","","","","","",""
"","ISI","","html-keyboard-response","69","189837","0.0-1.0-84.0","0","0","65121","","null","","","null","9","NaN","","","","","","","","","","","","","","",""
"","S2","","html-keyboard-response","70","190093","0.0-1.0-85.0","0","0","65121","","null","","","null","9","","NaN","","","","","","","","","","","","","",""
"","response","","html-keyboard-response","71","190574","0.0-1.0-86.0-0.0","0","0","65121","","478","","","75","9","","","1","9","training","adjacent","EF","5","6","R.jpg","Q.jpg","1","1","1","",""
"","feedback","","html-keyboard-response","72","191581","0.0-1.0-87.0-0.0","0","0","65121","","null","","","null","9","","","","","","","","","","","","","","","",""
"","ITI","","html-keyboard-response","73","192589","0.0-1.0-90.0","0","0","65121","","null","","","null","9","","","","","","","","","","","","","","","NaN",""
"","S1","","html-keyboard-response","74","192845","0.0-1.0-92.0","0","0","65121","","null","","","null","10","","","","","","","","","","","","","","","",""
"","ISI","","html-keyboard-response","75","193852","0.0-1.0-93.0","0","0","65121","","null","","","null","10","NaN","","","","","","","","","","","","","","",""
"","S2","","html-keyboard-response","76","194109","0.0-1.0-94.0","0","0","65121","","null","","","null","10","","NaN","","","","","","","","","","","","","",""
"","response","","html-keyboard-response","77","195150","0.0-1.0-95.0-0.0","0","0","65121","","1037","","","75","10","","","1","10","training","adjacent","ED","5","4","R.jpg","M.jpg","1","0","0","",""
"","feedback","","html-keyboard-response","78","196157","0.0-1.0-96.0-0.0","0","0","65121","","null","","","null","10","","","","","","","","","","","","","","","",""
"","time_out","","html-keyboard-response","79","198165","0.0-1.0-98.0-0.0","0","0","65121","","null","","","null","10","","","","","","","","","","","","","","","",""
"","ITI","","html-keyboard-response","80","199173","0.0-1.0-99.0","0","0","65121","","null","","","null","10","","","","","","","","","","","","","","","NaN",""
"","S1","","html-keyboard-response","81","199429","0.0-1.0-101.0","0","0","65121","","null","","","null","11","","","","","","","","","","","","","","","",""
"","ISI","","html-keyboard-response","82","200437","0.0-1.0-102.0","0","0","65121","","null","","","null","11","NaN","","","","","","","","","","","","","","",""
"","S2","","html-keyboard-response","83","200693","0.0-1.0-103.0","0","0","65121","","null","","","null","11","","NaN","","","","","","","","","","","","","",""
"","response","","html-keyboard-response","84","201121","0.0-1.0-104.0-0.0","0","0","65121","","424","","","75","11","","","1","11","training","adjacent","BC","2","3","O.jpg","L.jpg","1","1","1","",""
"","feedback","","html-keyboard-response","85","202133","0.0-1.0-105.0-0.0","0","0","65121","","null","","","null","11","","","","","","","","","","","","","","","",""
"","ITI","","html-keyboard-response","86","203141","0.0-1.0-108.0","0","0","65121","","null","","","null","11","","","","","","","","","","","","","","","NaN",""
"","S1","","html-keyboard-response","87","203397","0.0-1.0-110.0","0","0","65121","","null","","","null","12","","","","","","","","","","","","","","","",""
"","ISI","","html-keyboard-response","88","204405","0.0-1.0-111.0","0","0","65121","","null","","","null","12","NaN","","","","","","","","","","","","","","",""
"","S2","","html-keyboard-response","89","204661","0.0-1.0-112.0","0","0","65121","","null","","","null","12","","NaN","","","","","","","","","","","","","",""
"","response","","html-keyboard-response","90","205216","0.0-1.0-113.0-0.0","0","0","65121","","551","","","68","12","","","1","12","training","adjacent","CD","3","4","L.jpg","M.jpg","0","1","0","",""
"","feedback","","html-keyboard-response","91","206221","0.0-1.0-114.0-0.0","0","0","65121","","null","","","null","12","","","","","","","","","","","","","","","",""
"","time_out","","html-keyboard-response","92","208230","0.0-1.0-116.0-0.0","0","0","65121","","null","","","null","12","","","","","","","","","","","","","","","",""
"","ITI","","html-keyboard-response","93","209237","0.0-1.0-117.0","0","0","65121","","null","","","null","12","","","","","","","","","","","","","","","NaN",""
"","S1","","html-keyboard-response","94","209493","0.0-1.0-119.0","0","0","65121","","null","","","null","13","","","","","","","","","","","","","","","",""
"","ISI","","html-keyboard-response","95","210500","0.0-1.0-120.0","0","0","65121","","null","","","null","13","NaN","","","","","","","","","","","","","","",""
"","S2","","html-keyboard-response","96","210756","0.0-1.0-121.0","0","0","65121","","null","","","null","13","","NaN","","","","","","","","","","","","","",""
"","response","","html-keyboard-response","97","211176","0.0-1.0-122.0-0.0","0","0","65121","","416","","","75","13","","","1","13","training","adjacent","GF","7","6","P.jpg","Q.jpg","1","0","0","",""
"","feedback","","html-keyboard-response","98","212181","0.0-1.0-123.0-0.0","0","0","65121","","null","","","null","13","","","","","","","","","","","","","","","",""
"","time_out","","html-keyboard-response","99","214189","0.0-1.0-125.0-0.0","0","0","65121","","null","","","null","13","","","","","","","","","","","","","","","",""
"","ITI","","html-keyboard-response","100","215196","0.0-1.0-126.0","0","0","65121","","null","","","null","13","","","","","","","","","","","","","","","NaN",""
"","S1","","html-keyboard-response","101","215453","0.0-1.0-128.0","0","0","65121","","null","","","null","14","","","","","","","","","","","","","","","",""
"","ISI","","html-keyboard-response","102","216460","0.0-1.0-129.0","0","0","65121","","null","","","null","14","NaN","","","","","","","","","","","","","","",""
"","S2","","html-keyboard-response","103","216717","0.0-1.0-130.0","0","0","65121","","null","","","null","14","","NaN","","","","","","","","","","","","","",""
"","response","","html-keyboard-response","104","217578","0.0-1.0-131.0-0.0","0","0","65121","","857","","","75","14","","","1","14","training","adjacent","CB","3","2","L.jpg","O.jpg","1","0","0","",""
"","feedback","","html-keyboard-response","105","218589","0.0-1.0-132.0-0.0","0","0","65121","","null","","","null","14","","","","","","","","","","","","","","","",""
"","time_out","","html-keyboard-response","106","220596","0.0-1.0-134.0-0.0","0","0","65121","","null","","","null","14","","","","","","","","","","","","","","","",""
"","ITI","","html-keyboard-response","107","221605","0.0-1.0-135.0","0","0","65121","","null","","","null","14","","","","","","","","","","","","","","","NaN",""
"","S1","","html-keyboard-response","108","221861","0.0-1.0-137.0","0","0","65121","","null","","","null","15","","","","","","","","","","","","","","","",""
"","ISI","","html-keyboard-response","109","222871","0.0-1.0-138.0","0","0","65121","","null","","","null","15","NaN","","","","","","","","","","","","","","",""
"","S2","","html-keyboard-response","110","223125","0.0-1.0-139.0","0","0","65121","","null","","","null","15","","NaN","","","","","","","","","","","","","",""
"","response","","html-keyboard-response","111","223820","0.0-1.0-140.0-0.0","0","0","65121","","692","","","68","15","","","1","15","training","adjacent","GF","7","6","P.jpg","Q.jpg","0","0","1","",""
"","feedback","","html-keyboard-response","112","224829","0.0-1.0-141.0-0.0","0","0","65121","","null","","","null","15","","","","","","","","","","","","","","","",""
"","ITI","","html-keyboard-response","113","225837","0.0-1.0-144.0","0","0","65121","","null","","","null","15","","","","","","","","","","","","","","","NaN",""
"","S1","","html-keyboard-response","114","226092","0.0-1.0-146.0","0","0","65121","","null","","","null","16","","","","","","","","","","","","","","","",""
"","ISI","","html-keyboard-response","115","227101","0.0-1.0-147.0","0","0","65121","","null","","","null","16","NaN","","","","","","","","","","","","","","",""
"","S2","","html-keyboard-response","116","227357","0.0-1.0-148.0","0","0","65121","","null","","","null","16","","NaN","","","","","","","","","","","","","",""
"","response","","html-keyboard-response","117","228798","0.0-1.0-149.0-0.0","0","0","65121","","1439","","","75","16","","","1","16","training","adjacent","FE","6","5","Q.jpg","R.jpg","1","0","0","",""
"","feedback","","html-keyboard-response","118","229805","0.0-1.0-150.0-0.0","0","0","65121","","null","","","null","16","","","","","","","","","","","","","","","",""
"","time_out","","html-keyboard-response","119","231812","0.0-1.0-152.0-0.0","0","0","65121","","null","","","null","16","","","","","","","","","","","","","","","",""
"","ITI","","html-keyboard-response","120","232821","0.0-1.0-153.0","0","0","65121","","null","","","null","16","","","","","","","","","","","","","","","NaN",""
"","S1","","html-keyboard-response","121","233077","0.0-1.0-155.0","0","0","65121","","null","","","null","17","","","","","","","","","","","","","","","",""
"","ISI","","html-keyboard-response","122","234084","0.0-1.0-156.0","0","0","65121","","null","","","null","17","NaN","","","","","","","","","","","","","","",""
"","S2","","html-keyboard-response","123","234341","0.0-1.0-157.0","0","0","65121","","null","","","null","17","","NaN","","","","","","","","","","","","","",""
"","response","","html-keyboard-response","124","234854","0.0-1.0-158.0-0.0","0","0","65121","","509","","","75","17","","","1","17","training","adjacent","BA","2","1","O.jpg","N.jpg","1","0","0","",""
"","feedback","","html-keyboard-response","125","235861","0.0-1.0-159.0-0.0","0","0","65121","","null","","","null","17","","","","","","","","","","","","","","","",""
"","time_out","","html-keyboard-response","126","237869","0.0-1.0-161.0-0.0","0","0","65121","","null","","","null","17","","","","","","","","","","","","","","","",""
"","ITI","","html-keyboard-response","127","238877","0.0-1.0-162.0","0","0","65121","","null","","","null","17","","","","","","","","","","","","","","","NaN",""
"","S1","","html-keyboard-response","128","239133","0.0-1.0-164.0","0","0","65121","","null","","","null","18","","","","","","","","","","","","","","","",""
"","ISI","","html-keyboard-response","129","240141","0.0-1.0-165.0","0","0","65121","","null","","","null","18","NaN","","","","","","","","","","","","","","",""
"","S2","","html-keyboard-response","130","240397","0.0-1.0-166.0","0","0","65121","","null","","","null","18","","NaN","","","","","","","","","","","","","",""
"","response","","html-keyboard-response","131","241154","0.0-1.0-167.0-0.0","0","0","65121","","753","","","75","18","","","1","18","training","adjacent","AB","1","2","N.jpg","O.jpg","1","1","1","",""
"","feedback","","html-keyboard-response","132","242165","0.0-1.0-168.0-0.0","0","0","65121","","null","","","null","18","","","","","","","","","","","","","","","",""
"","ITI","","html-keyboard-response","133","243173","0.0-1.0-171.0","0","0","65121","","null","","","null","18","","","","","","","","","","","","","","","NaN",""
"","S1","","html-keyboard-response","134","243429","0.0-1.0-173.0","0","0","65121","","null","","","null","19","","","","","","","","","","","","","","","",""
"","ISI","","html-keyboard-response","135","244437","0.0-1.0-174.0","0","0","65121","","null","","","null","19","NaN","","","","","","","","","","","","","","",""
"","S2","","html-keyboard-response","136","244693","0.0-1.0-175.0","0","0","65121","","null","","","null","19","","NaN","","","","","","","","","","","","","",""
"","response","","html-keyboard-response","137","245064","0.0-1.0-176.0-0.0","0","0","65121","","367","","","68","19","","","1","19","training","adjacent","CD","3","4","L.jpg","M.jpg","0","1","0","",""
"","feedback","","html-keyboard-response","138","246069","0.0-1.0-177.0-0.0","0","0","65121","","null","","","null","19","","","","","","","","","","","","","","","",""
"","time_out","","html-keyboard-response","139","248076","0.0-1.0-179.0-0.0","0","0","65121","","null","","","null","19","","","","","","","","","","","","","","","",""
"","ITI","","html-keyboard-response","140","249084","0.0-1.0-180.0","0","0","65121","","null","","","null","19","","","","","","","","","","","","","","","NaN",""
"","S1","","html-keyboard-response","141","249340","0.0-1.0-182.0","0","0","65121","","null","","","null","20","","","","","","","","","","","","","","","",""
"","ISI","","html-keyboard-response","142","250348","0.0-1.0-183.0","0","0","65121","","null","","","null","20","NaN","","","","","","","","","","","","","","",""
"","S2","","html-keyboard-response","143","250605","0.0-1.0-184.0","0","0","65121","","null","","","null","20","","NaN","","","","","","","","","","","","","",""
"","response","","html-keyboard-response","144","250714","0.0-1.0-185.0-0.0","0","0","65121","","105","","","68","20","","","1","20","training","adjacent","BC","2","3","O.jpg","L.jpg","0","1","0","",""
"","feedback","","html-keyboard-response","145","251725","0.0-1.0-186.0-0.0","0","0","65121","","null","","","null","20","","","","","","","","","","","","","","","",""
"","time_out","","html-keyboard-response","146","253733","0.0-1.0-188.0-0.0","0","0","65121","","null","","","null","20","","","","","","","","","","","","","","","",""
"","ITI","","html-keyboard-response","147","254740","0.0-1.0-189.0","0","0","65121","","null","","","null","20","","","","","","","","","","","","","","","NaN",""
"","S1","","html-keyboard-response","148","254996","0.0-1.0-191.0","0","0","65121","","null","","","null","21","","","","","","","","","","","","","","","",""
"","ISI","","html-keyboard-response","149","256004","0.0-1.0-192.0","0","0","65121","","null","","","null","21","NaN","","","","","","","","","","","","","","",""
"","S2","","html-keyboard-response","150","256260","0.0-1.0-193.0","0","0","65121","","null","","","null","21","","NaN","","","","","","","","","","","","","",""
"","response","","html-keyboard-response","151","256769","0.0-1.0-194.0-0.0","0","0","65121","","505","","","75","21","","","1","21","training","adjacent","FG","6","7","Q.jpg","P.jpg","1","1","1","",""
"","feedback","","html-keyboard-response","152","257780","0.0-1.0-195.0-0.0","0","0","65121","","null","","","null","21","","","","","","","","","","","","","","","",""
"","ITI","","html-keyboard-response","153","258788","0.0-1.0-198.0","0","0","65121","","null","","","null","21","","","","","","","","","","","","","","","NaN",""
"","S1","","html-keyboard-response","154","259045","0.0-1.0-200.0","0","0","65121","","null","","","null","22","","","","","","","","","","","","","","","",""
"","ISI","","html-keyboard-response","155","260052","0.0-1.0-201.0","0","0","65121","","null","","","null","22","NaN","","","","","","","","","","","","","","",""
"","S2","","html-keyboard-response","156","260308","0.0-1.0-202.0","0","0","65121","","null","","","null","22","","NaN","","","","","","","","","","","","","",""
"","response","","html-keyboard-response","157","260889","0.0-1.0-203.0-0.0","0","0","65121","","577","","","75","22","","","1","22","training","adjacent","DE","4","5","M.jpg","R.jpg","1","1","1","",""
"","feedback","","html-keyboard-response","158","261900","0.0-1.0-204.0-0.0","0","0","65121","","null","","","null","22","","","","","","","","","","","","","","","",""
"","ITI","","html-keyboard-response","159","262909","0.0-1.0-207.0","0","0","65121","","null","","","null","22","","","","","","","","","","","","","","","NaN",""
"","S1","","html-keyboard-response","160","263165","0.0-1.0-209.0","0","0","65121","","null","","","null","23","","","","","","","","","","","","","","","",""
"","ISI","","html-keyboard-response","161","264172","0.0-1.0-210.0","0","0","65121","","null","","","null","23","NaN","","","","","","","","","","","","","","",""
"","S2","","html-keyboard-response","162","264429","0.0-1.0-211.0","0","0","65121","","null","","","null","23","","NaN","","","","","","","","","","","","","",""
"","response","","html-keyboard-response","163","265054","0.0-1.0-212.0-0.0","0","0","65121","","621","","","75","23","","","1","23","training","adjacent","FE","6","5","Q.jpg","R.jpg","1","0","0","",""
"","feedback","","html-keyboard-response","164","266061","0.0-1.0-213.0-0.0","0","0","65121","","null","","","null","23","","","","","","","","","","","","","","","",""
"","time_out","","html-keyboard-response","165","268069","0.0-1.0-215.0-0.0","0","0","65121","","null","","","null","23","","","","","","","","","","","","","","","",""
"","ITI","","html-keyboard-response","166","269077","0.0-1.0-216.0","0","0","65121","","null","","","null","23","","","","","","","","","","","","","","","NaN",""
"","S1","","html-keyboard-response","167","269333","0.0-1.0-218.0","0","0","65121","","null","","","null","24","","","","","","","","","","","","","","","",""
"","ISI","","html-keyboard-response","168","270341","0.0-1.0-219.0","0","0","65121","","null","","","null","24","NaN","","","","","","","","","","","","","","",""
"","S2","","html-keyboard-response","169","270597","0.0-1.0-220.0","0","0","65121","","null","","","null","24","","NaN","","","","","","","","","","","","","",""
"","response","","html-keyboard-response","170","271231","0.0-1.0-221.0-0.0","0","0","65121","","630","","","75","24","","","1","24","training","adjacent","FE","6","5","Q.jpg","R.jpg","1","0","0","",""
"","feedback","","html-keyboard-response","171","272237","0.0-1.0-222.0-0.0","0","0","65121","","null","","","null","24","","","","","","","","","","","","","","","",""
"","time_out","","html-keyboard-response","172","274245","0.0-1.0-224.0-0.0","0","0","65121","","null","","","null","24","","","","","","","","","","","","","","","",""
"","ITI","","html-keyboard-response","173","275253","0.0-1.0-225.0","0","0","65121","","null","","","null","24","","","","","","","","","","","","","","","NaN",""
"","S1","","html-keyboard-response","174","275509","0.0-1.0-227.0","0","0","65121","","null","","","null","25","","","","","","","","","","","","","","","",""
"","ISI","","html-keyboard-response","175","276517","0.0-1.0-228.0","0","0","65121","","null","","","null","25","NaN","","","","","","","","","","","","","","",""
"","S2","","html-keyboard-response","176","276773","0.0-1.0-229.0","0","0","65121","","null","","","null","25","","NaN","","","","","","","","","","","","","",""
"","response","","html-keyboard-response","177","277468","0.0-1.0-230.0-0.0","0","0","65121","","691","","","68","25","","","1","25","training","adjacent","DE","4","5","M.jpg","R.jpg","0","1","0","",""
"","feedback","","html-keyboard-response","178","278476","0.0-1.0-231.0-0.0","0","0","65121","","null","","","null","25","","","","","","","","","","","","","","","",""
"","time_out","","html-keyboard-response","179","280485","0.0-1.0-233.0-0.0","0","0","65121","","null","","","null","25","","","","","","","","","","","","","","","",""
"","ITI","","html-keyboard-response","180","281492","0.0-1.0-234.0","0","0","65121","","null","","","null","25","","","","","","","","","","","","","","","NaN",""
"","S1","","html-keyboard-response","181","281749","0.0-1.0-236.0","0","0","65121","","null","","","null","26","","","","","","","","","","","","","","","",""
"","ISI","","html-keyboard-response","182","282756","0.0-1.0-237.0","0","0","65121","","null","","","null","26","NaN","","","","","","","","","","","","","","",""
"","S2","","html-keyboard-response","183","283013","0.0-1.0-238.0","0","0","65121","","null","","","null","26","","NaN","","","","","","","","","","","","","",""
"","response","","html-keyboard-response","184","283506","0.0-1.0-239.0-0.0","0","0","65121","","489","","","75","26","","","1","26","training","adjacent","FG","6","7","Q.jpg","P.jpg","1","1","1","",""
"","feedback","","html-keyboard-response","185","284517","0.0-1.0-240.0-0.0","0","0","65121","","null","","","null","26","","","","","","","","","","","","","","","",""
"","ITI","","html-keyboard-response","186","285525","0.0-1.0-243.0","0","0","65121","","null","","","null","26","","","","","","","","","","","","","","","NaN",""
"","S1","","html-keyboard-response","187","285781","0.0-1.0-245.0","0","0","65121","","null","","","null","27","","","","","","","","","","","","","","","",""
"","ISI","","html-keyboard-response","188","286788","0.0-1.0-246.0","0","0","65121","","null","","","null","27","NaN","","","","","","","","","","","","","","",""
"","S2","","html-keyboard-response","189","287045","0.0-1.0-247.0","0","0","65121","","null","","","null","27","","NaN","","","","","","","","","","","","","",""
"","response","","html-keyboard-response","190","287853","0.0-1.0-248.0-0.0","0","0","65121","","803","","","75","27","","","1","27","training","adjacent","FG","6","7","Q.jpg","P.jpg","1","1","1","",""
"","feedback","","html-keyboard-response","191","288861","0.0-1.0-249.0-0.0","0","0","65121","","null","","","null","27","","","","","","","","","","","","","","","",""
"","ITI","","html-keyboard-response","192","289869","0.0-1.0-252.0","0","0","65121","","null","","","null","27","","","","","","","","","","","","","","","NaN",""
"","S1","","html-keyboard-response","193","290125","0.0-1.0-254.0","0","0","65121","","null","","","null","28","","","","","","","","","","","","","","","",""
"","ISI","","html-keyboard-response","194","291133","0.0-1.0-255.0","0","0","65121","","null","","","null","28","NaN","","","","","","","","","","","","","","",""
"","S2","","html-keyboard-response","195","291389","0.0-1.0-256.0","0","0","65121","","null","","","null","28","","NaN","","","","","","","","","","","","","",""
"","response","","html-keyboard-response","196","292126","0.0-1.0-257.0-0.0","0","0","65121","","732","","","75","28","","","1","28","training","adjacent","ED","5","4","R.jpg","M.jpg","1","0","0","",""
"","feedback","","html-keyboard-response","197","293134","0.0-1.0-258.0-0.0","0","0","65121","","null","","","null","28","","","","","","","","","","","","","","","",""
"","time_out","","html-keyboard-response","198","295141","0.0-1.0-260.0-0.0","0","0","65121","","null","","","null","28","","","","","","","","","","","","","","","",""
"","ITI","","html-keyboard-response","199","296149","0.0-1.0-261.0","0","0","65121","","null","","","null","28","","","","","","","","","","","","","","","NaN",""
"","S1","","html-keyboard-response","200","296405","0.0-1.0-263.0","0","0","65121","","null","","","null","29","","","","","","","","","","","","","","","",""
"","ISI","","html-keyboard-response","201","297413","0.0-1.0-264.0","0","0","65121","","null","","","null","29","NaN","","","","","","","","","","","","","","",""
"","S2","","html-keyboard-response","202","297669","0.0-1.0-265.0","0","0","65121","","null","","","null","29","","NaN","","","","","","","","","","","","","",""
"","response","","html-keyboard-response","203","298624","0.0-1.0-266.0-0.0","0","0","65121","","951","","","68","29","","","1","29","training","adjacent","ED","5","4","R.jpg","M.jpg","0","0","1","",""
"","feedback","","html-keyboard-response","204","299628","0.0-1.0-267.0-0.0","0","0","65121","","null","","","null","29","","","","","","","","","","","","","","","",""
"","ITI","","html-keyboard-response","205","300636","0.0-1.0-270.0","0","0","65121","","null","","","null","29","","","","","","","","","","","","","","","NaN",""
"","S1","","html-keyboard-response","206","300892","0.0-1.0-272.0","0","0","65121","","null","","","null","30","","","","","","","","","","","","","","","",""
"","ISI","","html-keyboard-response","207","301901","0.0-1.0-273.0","0","0","65121","","null","","","null","30","NaN","","","","","","","","","","","","","","",""
"","S2","","html-keyboard-response","208","302157","0.0-1.0-274.0","0","0","65121","","null","","","null","30","","NaN","","","","","","","","","","","","","",""
"","response","","html-keyboard-response","209","302585","0.0-1.0-275.0-0.0","0","0","65121","","424","","","68","30","","","1","30","training","adjacent","EF","5","6","R.jpg","Q.jpg","0","1","0","",""
"","feedback","","html-keyboard-response","210","303597","0.0-1.0-276.0-0.0","0","0","65121","","null","","","null","30","","","","","","","","","","","","","","","",""
"","time_out","","html-keyboard-response","211","305605","0.0-1.0-278.0-0.0","0","0","65121","","null","","","null","30","","","","","","","","","","","","","","","",""
"","ITI","","html-keyboard-response","212","306613","0.0-1.0-279.0","0","0","65121","","null","","","null","30","","","","","","","","","","","","","","","NaN",""
"","S1","","html-keyboard-response","213","306869","0.0-1.0-281.0","0","0","65121","","null","","","null","31","","","","","","","","","","","","","","","",""
"","ISI","","html-keyboard-response","214","307877","0.0-1.0-282.0","0","0","65121","","null","","","null","31","NaN","","","","","","","","","","","","","","",""
"","S2","","html-keyboard-response","215","308133","0.0-1.0-283.0","0","0","65121","","null","","","null","31","","NaN","","","","","","","","","","","","","",""
"","response","","html-keyboard-response","216","309108","0.0-1.0-284.0-0.0","0","0","65121","","971","","","75","31","","","1","31","training","adjacent","DC","4","3","M.jpg","L.jpg","1","0","0","",""
"","feedback","","html-keyboard-response","217","310117","0.0-1.0-285.0-0.0","0","0","65121","","null","","","null","31","","","","","","","","","","","","","","","",""
"","time_out","","html-keyboard-response","218","312126","0.0-1.0-287.0-0.0","0","0","65121","","null","","","null","31","","","","","","","","","","","","","","","",""
"","ITI","","html-keyboard-response","219","313133","0.0-1.0-288.0","0","0","65121","","null","","","null","31","","","","","","","","","","","","","","","NaN",""
"","S1","","html-keyboard-response","220","313389","0.0-1.0-290.0","0","0","65121","","null","","","null","32","","","","","","","","","","","","","","","",""
"","ISI","","html-keyboard-response","221","314396","0.0-1.0-291.0","0","0","65121","","null","","","null","32","NaN","","","","","","","","","","","","","","",""
"","S2","","html-keyboard-response","222","314653","0.0-1.0-292.0","0","0","65121","","null","","","null","32","","NaN","","","","","","","","","","","","","",""
"","response","","html-keyboard-response","223","315452","0.0-1.0-293.0-0.0","0","0","65121","","795","","","75","32","","","1","32","training","adjacent","CB","3","2","L.jpg","O.jpg","1","0","0","",""
"","feedback","","html-keyboard-response","224","316461","0.0-1.0-294.0-0.0","0","0","65121","","null","","","null","32","","","","","","","","","","","","","","","",""
"","time_out","","html-keyboard-response","225","318468","0.0-1.0-296.0-0.0","0","0","65121","","null","","","null","32","","","","","","","","","","","","","","","",""
"","ITI","","html-keyboard-response","226","319477","0.0-1.0-297.0","0","0","65121","","null","","","null","32","","","","","","","","","","","","","","","NaN",""
"","S1","","html-keyboard-response","227","319733","0.0-1.0-299.0","0","0","65121","","null","","","null","33","","","","","","","","","","","","","","","",""
"","ISI","","html-keyboard-response","228","320741","0.0-1.0-300.0","0","0","65121","","null","","","null","33","NaN","","","","","","","","","","","","","","",""
"","S2","","html-keyboard-response","229","320996","0.0-1.0-301.0","0","0","65121","","null","","","null","33","","NaN","","","","","","","","","","","","","",""
"","response","","html-keyboard-response","230","321761","0.0-1.0-302.0-0.0","0","0","65121","","760","","","68","33","","","1","33","training","adjacent","EF","5","6","R.jpg","Q.jpg","0","1","0","",""
"","feedback","","html-keyboard-response","231","322772","0.0-1.0-303.0-0.0","0","0","65121","","null","","","null","33","","","","","","","","","","","","","","","",""
"","time_out","","html-keyboard-response","232","324781","0.0-1.0-305.0-0.0","0","0","65121","","null","","","null","33","","","","","","","","","","","","","","","",""
"","ITI","","html-keyboard-response","233","325789","0.0-1.0-306.0","0","0","65121","","null","","","null","33","","","","","","","","","","","","","","","NaN",""
"","S1","","html-keyboard-response","234","326045","0.0-1.0-308.0","0","0","65121","","null","","","null","34","","","","","","","","","","","","","","","",""
"","ISI","","html-keyboard-response","235","327053","0.0-1.0-309.0","0","0","65121","","null","","","null","34","NaN","","","","","","","","","","","","","","",""
"","S2","","html-keyboard-response","236","327309","0.0-1.0-310.0","0","0","65121","","null","","","null","34","","NaN","","","","","","","","","","","","","",""
"","response","","html-keyboard-response","237","327874","0.0-1.0-311.0-0.0","0","0","65121","","561","","","75","34","","","1","34","training","adjacent","AB","1","2","N.jpg","O.jpg","1","1","1","",""
"","feedback","","html-keyboard-response","238","328885","0.0-1.0-312.0-0.0","0","0","65121","","null","","","null","34","","","","","","","","","","","","","","","",""
"","ITI","","html-keyboard-response","239","329893","0.0-1.0-315.0","0","0","65121","","null","","","null","34","","","","","","","","","","","","","","","NaN",""
"","S1","","html-keyboard-response","240","330149","0.0-1.0-317.0","0","0","65121","","null","","","null","35","","","","","","","","","","","","","","","",""
"","ISI","","html-keyboard-response","241","331157","0.0-1.0-318.0","0","0","65121","","null","","","null","35","NaN","","","","","","","","","","","","","","",""
"","S2","","html-keyboard-response","242","331413","0.0-1.0-319.0","0","0","65121","","null","","","null","35","","NaN","","","","","","","","","","","","","",""
"","response","","html-keyboard-response","243","332013","0.0-1.0-320.0-0.0","0","0","65121","","598","","","75","35","","","1","35","training","adjacent","AB","1","2","N.jpg","O.jpg","1","1","1","",""
"","feedback","","html-keyboard-response","244","333022","0.0-1.0-321.0-0.0","0","0","65121","","null","","","null","35","","","","","","","","","","","","","","","",""
"","ITI","","html-keyboard-response","245","334029","0.0-1.0-324.0","0","0","65121","","null","","","null","35","","","","","","","","","","","","","","","NaN",""
"","S1","","html-keyboard-response","246","334285","0.0-1.0-326.0","0","0","65121","","null","","","null","36","","","","","","","","","","","","","","","",""
"","ISI","","html-keyboard-response","247","335293","0.0-1.0-327.0","0","0","65121","","null","","","null","36","NaN","","","","","","","","","","","","","","",""
"","S2","","html-keyboard-response","248","335549","0.0-1.0-328.0","0","0","65121","","null","","","null","36","","NaN","","","","","","","","","","","","","",""
"","response","","html-keyboard-response","249","336484","0.0-1.0-329.0-0.0","0","0","65121","","932","","","75","36","","","1","36","training","adjacent","GF","7","6","P.jpg","Q.jpg","1","0","0","",""
"","feedback","","html-keyboard-response","250","337492","0.0-1.0-330.0-0.0","0","0","65121","","null","","","null","36","","","","","","","","","","","","","","","",""
"","time_out","","html-keyboard-response","251","339501","0.0-1.0-332.0-0.0","0","0","65121","","null","","","null","36","","","","","","","","","","","","","","","",""
"","ITI","","html-keyboard-response","252","340509","0.0-1.0-333.0","0","0","65121","","null","","","null","36","","","","","","","","","","","","","","","NaN",""
"","S1","","html-keyboard-response","253","340764","0.0-1.0-335.0","0","0","65121","","null","","","null","37","","","","","","","","","","","","","","","",""
"","ISI","","html-keyboard-response","254","341773","0.0-1.0-336.0","0","0","65121","","null","","","null","37","NaN","","","","","","","","","","","","","","",""
"","S2","","html-keyboard-response","255","342029","0.0-1.0-337.0","0","0","65121","","null","","","null","37","","NaN","","","","","","","","","","","","","",""
"","response","","html-keyboard-response","256","343542","0.0-1.0-338.0-0.0","0","0","65121","","1509","","","68","37","","","1","37","training","adjacent","DC","4","3","M.jpg","L.jpg","0","0","1","",""
"","feedback","","html-keyboard-response","257","344549","0.0-1.0-339.0-0.0","0","0","65121","","null","","","null","37","","","","","","","","","","","","","","","",""
"","ITI","","html-keyboard-response","258","345558","0.0-1.0-342.0","0","0","65121","","null","","","null","37","","","","","","","","","","","","","","","NaN",""
"","S1","","html-keyboard-response","259","345815","0.0-1.0-344.0","0","0","65121","","null","","","null","38","","","","","","","","","","","","","","","",""
"","ISI","","html-keyboard-response","260","346821","0.0-1.0-345.0","0","0","65121","","null","","","null","38","NaN","","","","","","","","","","","","","","",""
"","S2","","html-keyboard-response","261","347077","0.0-1.0-346.0","0","0","65121","","null","","","null","38","","NaN","","","","","","","","","","","","","",""
"","response","","html-keyboard-response","262","347844","0.0-1.0-347.0-0.0","0","0","65121","","764","","","75","38","","","1","38","training","adjacent","EF","5","6","R.jpg","Q.jpg","1","1","1","",""
"","feedback","","html-keyboard-response","263","348853","0.0-1.0-348.0-0.0","0","0","65121","","null","","","null","38","","","","","","","","","","","","","","","",""
"","ITI","","html-keyboard-response","264","349861","0.0-1.0-351.0","0","0","65121","","null","","","null","38","","","","","","","","","","","","","","","NaN",""
"","S1","","html-keyboard-response","265","350117","0.0-1.0-353.0","0","0","65121","","null","","","null","39","","","","","","","","","","","","","","","",""
"","ISI","","html-keyboard-response","266","351124","0.0-1.0-354.0","0","0","65121","","null","","","null","39","NaN","","","","","","","","","","","","","","",""
"","S2","","html-keyboard-response","267","351381","0.0-1.0-355.0","0","0","65121","","null","","","null","39","","NaN","","","","","","","","","","","","","",""
"","response","","html-keyboard-response","268","352037","0.0-1.0-356.0-0.0","0","0","65121","","653","","","68","39","","","1","39","training","adjacent","DC","4","3","M.jpg","L.jpg","0","0","1","",""
"","feedback","","html-keyboard-response","269","353045","0.0-1.0-357.0-0.0","0","0","65121","","null","","","null","39","","","","","","","","","","","","","","","",""
"","ITI","","html-keyboard-response","270","354053","0.0-1.0-360.0","0","0","65121","","null","","","null","39","","","","","","","","","","","","","","","NaN",""
"","S1","","html-keyboard-response","271","354309","0.0-1.0-362.0","0","0","65121","","null","","","null","40","","","","","","","","","","","","","","","",""
"","ISI","","html-keyboard-response","272","355316","0.0-1.0-363.0","0","0","65121","","null","","","null","40","NaN","","","","","","","","","","","","","","",""
"","S2","","html-keyboard-response","273","355573","0.0-1.0-364.0","0","0","65121","","null","","","null","40","","NaN","","","","","","","","","","","","","",""
"","response","","html-keyboard-response","274","356757","0.0-1.0-365.0-0.0","0","0","65121","","1180","","","75","40","","","1","40","training","adjacent","ED","5","4","R.jpg","M.jpg","1","0","0","",""
"","feedback","","html-keyboard-response","275","357764","0.0-1.0-366.0-0.0","0","0","65121","","null","","","null","40","","","","","","","","","","","","","","","",""
"","time_out","","html-keyboard-response","276","359772","0.0-1.0-368.0-0.0","0","0","65121","","null","","","null","40","","","","","","","","","","","","","","","",""
"","ITI","","html-keyboard-response","277","360781","0.0-1.0-369.0","0","0","65121","","null","","","null","40","","","","","","","","","","","","","","","NaN",""
"","S1","","html-keyboard-response","278","361037","0.0-1.0-371.0","0","0","65121","","null","","","null","41","","","","","","","","","","","","","","","",""
"","ISI","","html-keyboard-response","279","362044","0.0-1.0-372.0","0","0","65121","","null","","","null","41","NaN","","","","","","","","","","","","","","",""
"","S2","","html-keyboard-response","280","362300","0.0-1.0-373.0","0","0","65121","","null","","","null","41","","NaN","","","","","","","","","","","","","",""
"","response","","html-keyboard-response","281","363233","0.0-1.0-374.0-0.0","0","0","65121","","929","","","68","41","","","1","41","training","adjacent","DE","4","5","M.jpg","R.jpg","0","1","0","",""
"","feedback","","html-keyboard-response","282","364245","0.0-1.0-375.0-0.0","0","0","65121","","null","","","null","41","","","","","","","","","","","","","","","",""
"","time_out","","html-keyboard-response","283","366252","0.0-1.0-377.0-0.0","0","0","65121","","null","","","null","41","","","","","","","","","","","","","","","",""
"","ITI","","html-keyboard-response","284","367260","0.0-1.0-378.0","0","0","65121","","null","","","null","41","","","","","","","","","","","","","","","NaN",""
"","S1","","html-keyboard-response","285","367516","0.0-1.0-380.0","0","0","65121","","null","","","null","42","","","","","","","","","","","","","","","",""
"","ISI","","html-keyboard-response","286","368525","0.0-1.0-381.0","0","0","65121","","null","","","null","42","NaN","","","","","","","","","","","","","","",""
"","S2","","html-keyboard-response","287","368780","0.0-1.0-382.0","0","0","65121","","null","","","null","42","","NaN","","","","","","","","","","","","","",""
"","response","","html-keyboard-response","288","369712","0.0-1.0-383.0-0.0","0","0","65121","","928","","","75","42","","","1","42","training","adjacent","CB","3","2","L.jpg","O.jpg","1","0","0","",""
"","feedback","","html-keyboard-response","289","370717","0.0-1.0-384.0-0.0","0","0","65121","","null","","","null","42","","","","","","","","","","","","","","","",""
"","time_out","","html-keyboard-response","290","372725","0.0-1.0-386.0-0.0","0","0","65121","","null","","","null","42","","","","","","","","","","","","","","","",""
"","ITI","","html-keyboard-response","291","373733","0.0-1.0-387.0","0","0","65121","","null","","","null","42","","","","","","","","","","","","","","","NaN",""
"","S1","","html-keyboard-response","292","373989","0.0-1.0-389.0","0","0","65121","","null","","","null","43","","","","","","","","","","","","","","","",""
"","ISI","","html-keyboard-response","293","374998","0.0-1.0-390.0","0","0","65121","","null","","","null","43","NaN","","","","","","","","","","","","","","",""
"","S2","","html-keyboard-response","294","375253","0.0-1.0-391.0","0","0","65121","","null","","","null","43","","NaN","","","","","","","","","","","","","",""
"","response","","html-keyboard-response","295","376805","0.0-1.0-392.0-0.0","0","0","65121","","1548","","","75","43","","","1","43","training","adjacent","AB","1","2","N.jpg","O.jpg","1","1","1","",""
"","feedback","","html-keyboard-response","296","377813","0.0-1.0-393.0-0.0","0","0","65121","","null","","","null","43","","","","","","","","","","","","","","","",""
"","ITI","","html-keyboard-response","297","378821","0.0-1.0-396.0","0","0","65121","","null","","","null","43","","","","","","","","","","","","","","","NaN",""
"","S1","","html-keyboard-response","298","379076","0.0-1.0-398.0","0","0","65121","","null","","","null","44","","","","","","","","","","","","","","","",""
"","ISI","","html-keyboard-response","299","380084","0.0-1.0-399.0","0","0","65121","","null","","","null","44","NaN","","","","","","","","","","","","","","",""
"","S2","","html-keyboard-response","300","380340","0.0-1.0-400.0","0","0","65121","","null","","","null","44","","NaN","","","","","","","","","","","","","",""
"","response","","html-keyboard-response","301","380702","0.0-1.0-401.0-0.0","0","0","65121","","358","","","75","44","","","1","44","training","adjacent","GF","7","6","P.jpg","Q.jpg","1","0","0","",""
"","feedback","","html-keyboard-response","302","381709","0.0-1.0-402.0-0.0","0","0","65121","","null","","","null","44","","","","","","","","","","","","","","","",""
"","time_out","","html-keyboard-response","303","383717","0.0-1.0-404.0-0.0","0","0","65121","","null","","","null","44","","","","","","","","","","","","","","","",""
"","ITI","","html-keyboard-response","304","384724","0.0-1.0-405.0","0","0","65121","","null","","","null","44","","","","","","","","","","","","","","","NaN",""
"","S1","","html-keyboard-response","305","384980","0.0-1.0-407.0","0","0","65121","","null","","","null","45","","","","","","","","","","","","","","","",""
"","ISI","","html-keyboard-response","306","385988","0.0-1.0-408.0","0","0","65121","","null","","","null","45","NaN","","","","","","","","","","","","","","",""
"","S2","","html-keyboard-response","307","386244","0.0-1.0-409.0","0","0","65121","","null","","","null","45","","NaN","","","","","","","","","","","","","",""
"","response","","html-keyboard-response","308","386401","0.0-1.0-410.0-0.0","0","0","65121","","153","","","75","45","","","1","45","training","adjacent","FG","6","7","Q.jpg","P.jpg","1","1","1","",""
"","feedback","","html-keyboard-response","309","387413","0.0-1.0-411.0-0.0","0","0","65121","","null","","","null","45","","","","","","","","","","","","","","","",""
"","ITI","","html-keyboard-response","310","388421","0.0-1.0-414.0","0","0","65121","","null","","","null","45","","","","","","","","","","","","","","","NaN",""
"","S1","","html-keyboard-response","311","388677","0.0-1.0-416.0","0","0","65121","","null","","","null","46","","","","","","","","","","","","","","","",""
"","ISI","","html-keyboard-response","312","389685","0.0-1.0-417.0","0","0","65121","","null","","","null","46","NaN","","","","","","","","","","","","","","",""
"","S2","","html-keyboard-response","313","389941","0.0-1.0-418.0","0","0","65121","","null","","","null","46","","NaN","","","","","","","","","","","","","",""
"","response","","html-keyboard-response","314","390003","0.0-1.0-419.0-0.0","0","0","65121","","58","","","75","46","","","1","46","training","adjacent","BC","2","3","O.jpg","L.jpg","1","1","1","",""
"","feedback","","html-keyboard-response","315","391012","0.0-1.0-420.0-0.0","0","0","65121","","null","","","null","46","","","","","","","","","","","","","","","",""
"","ITI","","html-keyboard-response","316","392023","0.0-1.0-423.0","0","0","65121","","null","","","null","46","","","","","","","","","","","","","","","NaN",""
"","S1","","html-keyboard-response","317","392285","0.0-1.0-425.0","0","0","65121","","null","","","null","47","","","","","","","","","","","","","","","",""
"","ISI","","html-keyboard-response","318","393293","0.0-1.0-426.0","0","0","65121","","null","","","null","47","NaN","","","","","","","","","","","","","","",""
"","S2","","html-keyboard-response","319","393549","0.0-1.0-427.0","0","0","65121","","null","","","null","47","","NaN","","","","","","","","","","","","","",""
"","response","","html-keyboard-response","320","394280","0.0-1.0-428.0-0.0","0","0","65121","","727","","","75","47","","","1","47","training","adjacent","CD","3","4","L.jpg","M.jpg","1","1","1","",""
"","feedback","","html-keyboard-response","321","395284","0.0-1.0-429.0-0.0","0","0","65121","","null","","","null","47","","","","","","","","","","","","","","","",""
"","ITI","","html-keyboard-response","322","396292","0.0-1.0-432.0","0","0","65121","","null","","","null","47","","","","","","","","","","","","","","","NaN",""
"","block_over","","html-keyboard-response","323","537177","0.0-1.0-433.0-0.0","0","0","65121","","140880","","","32","47","","","","","","","","","","","","","","","",""
"","S1","","html-keyboard-response","324","537437","0.0-1.0-434.0","0","0","65121","","null","","","null","48","","","","","","","","","","","","","","","",""
"","ISI","","html-keyboard-response","325","538445","0.0-1.0-435.0","0","0","65121","","null","","","null","48","NaN","","","","","","","","","","","","","","",""
"","S2","","html-keyboard-response","326","538701","0.0-1.0-436.0","0","0","65121","","null","","","null","48","","NaN","","","","","","","","","","","","","",""
"","response","","html-keyboard-response","327","539006","0.0-1.0-437.0-0.0","0","0","65121","","301","","","75","48","","","2","48","training","adjacent","FE","6","5","Q.jpg","R.jpg","1","0","0","",""
"","feedback","","html-keyboard-response","328","540013","0.0-1.0-438.0-0.0","0","0","65121","","null","","","null","48","","","","","","","","","","","","","","","",""
"","time_out","","html-keyboard-response","329","542021","0.0-1.0-440.0-0.0","0","0","65121","","null","","","null","48","","","","","","","","","","","","","","","",""
"","ITI","","html-keyboard-response","330","543029","0.0-1.0-441.0","0","0","65121","","null","","","null","48","","","","","","","","","","","","","","","NaN",""
"","S1","","html-keyboard-response","331","543285","0.0-1.0-443.0","0","0","65121","","null","","","null","49","","","","","","","","","","","","","","","",""
"","ISI","","html-keyboard-response","332","544293","0.0-1.0-444.0","0","0","65121","","null","","","null","49","NaN","","","","","","","","","","","","","","",""
"","S2","","html-keyboard-response","333","544549","0.0-1.0-445.0","0","0","65121","","null","","","null","49","","NaN","","","","","","","","","","","","","",""
"","response","","html-keyboard-response","334","545381","0.0-1.0-446.0-0.0","0","0","65121","","828","","","68","49","","","2","49","training","adjacent","CB","3","2","L.jpg","O.jpg","0","0","1","",""
"","feedback","","html-keyboard-response","335","546388","0.0-1.0-447.0-0.0","0","0","65121","","null","","","null","49","","","","","","","","","","","","","","","",""
"","ITI","","html-keyboard-response","336","547396","0.0-1.0-450.0","0","0","65121","","null","","","null","49","","","","","","","","","","","","","","","NaN",""
"","S1","","html-keyboard-response","337","547652","0.0-1.0-452.0","0","0","65121","","null","","","null","50","","","","","","","","","","","","","","","",""
"","ISI","","html-keyboard-response","338","548661","0.0-1.0-453.0","0","0","65121","","null","","","null","50","NaN","","","","","","","","","","","","","","",""
"","S2","","html-keyboard-response","339","548917","0.0-1.0-454.0","0","0","65121","","null","","","null","50","","NaN","","","","","","","","","","","","","",""
"","response","","html-keyboard-response","340","549656","0.0-1.0-455.0-0.0","0","0","65121","","737","","","68","50","","","2","50","training","adjacent","FE","6","5","Q.jpg","R.jpg","0","0","1","",""
"","feedback","","html-keyboard-response","341","550669","0.0-1.0-456.0-0.0","0","0","65121","","null","","","null","50","","","","","","","","","","","","","","","",""
"","ITI","","html-keyboard-response","342","551677","0.0-1.0-459.0","0","0","65121","","null","","","null","50","","","","","","","","","","","","","","","NaN",""
"","S1","","html-keyboard-response","343","551933","0.0-1.0-461.0","0","0","65121","","null","","","null","51","","","","","","","","","","","","","","","",""
"","ISI","","html-keyboard-response","344","552941","0.0-1.0-462.0","0","0","65121","","null","","","null","51","NaN","","","","","","","","","","","","","","",""
"","S2","","html-keyboard-response","345","553197","0.0-1.0-463.0","0","0","65121","","null","","","null","51","","NaN","","","","","","","","","","","","","",""
"","response","","html-keyboard-response","346","553847","0.0-1.0-464.0-0.0","0","0","65121","","646","","","68","51","","","2","51","training","adjacent","CD","3","4","L.jpg","M.jpg","0","1","0","",""
"","feedback","","html-keyboard-response","347","554852","0.0-1.0-465.0-0.0","0","0","65121","","null","","","null","51","","","","","","","","","","","","","","","",""
"","time_out","","html-keyboard-response","348","556861","0.0-1.0-467.0-0.0","0","0","65121","","null","","","null","51","","","","","","","","","","","","","","","",""
"","ITI","","html-keyboard-response","349","557869","0.0-1.0-468.0","0","0","65121","","null","","","null","51","","","","","","","","","","","","","","","NaN",""
"","S1","","html-keyboard-response","350","558125","0.0-1.0-470.0","0","0","65121","","null","","","null","52","","","","","","","","","","","","","","","",""
"","ISI","","html-keyboard-response","351","559133","0.0-1.0-471.0","0","0","65121","","null","","","null","52","NaN","","","","","","","","","","","","","","",""
"","S2","","html-keyboard-response","352","559389","0.0-1.0-472.0","0","0","65121","","null","","","null","52","","NaN","","","","","","","","","","","","","",""
"","response","","html-keyboard-response","353","560052","0.0-1.0-473.0-0.0","0","0","65121","","659","","","75","52","","","2","52","training","adjacent","FG","6","7","Q.jpg","P.jpg","1","1","1","",""
"","feedback","","html-keyboard-response","354","561060","0.0-1.0-474.0-0.0","0","0","65121","","null","","","null","52","","","","","","","","","","","","","","","",""
"","ITI","","html-keyboard-response","355","562069","0.0-1.0-477.0","0","0","65121","","null","","","null","52","","","","","","","","","","","","","","","NaN",""
"","S1","","html-keyboard-response","356","562325","0.0-1.0-479.0","0","0","65121","","null","","","null","53","","","","","","","","","","","","","","","",""
"","ISI","","html-keyboard-response","357","563332","0.0-1.0-480.0","0","0","65121","","null","","","null","53","NaN","","","","","","","","","","","","","","",""
"","S2","","html-keyboard-response","358","563589","0.0-1.0-481.0","0","0","65121","","null","","","null","53","","NaN","","","","","","","","","","","","","",""
"","response","","html-keyboard-response","359","565349","0.0-1.0-482.0-0.0","0","0","65121","","null","","","null","53","","","2","53","training","adjacent","GF","7","6","P.jpg","Q.jpg","NaN","0","0","",""
"","too_slow_prompt","","html-keyboard-response","360","566357","0.0-1.0-484.0-0.0","1","0","65121","","null","","","null","","","","","","","","","","","","","","","","",""
"","time_out","","html-keyboard-response","361","568365","0.0-1.0-485.0-0.0","0","0","65121","","null","","","null","53","","","","","","","","","","","","","","","",""
"","ITI","","html-keyboard-response","362","569373","0.0-1.0-486.0","0","0","65121","","null","","","null","53","","","","","","","","","","","","","","","NaN",""
"","S1","","html-keyboard-response","363","569629","0.0-1.0-488.0","0","0","65121","","null","","","null","54","","","","","","","","","","","","","","","",""
"","ISI","","html-keyboard-response","364","570637","0.0-1.0-489.0","0","0","65121","","null","","","null","54","NaN","","","","","","","","","","","","","","",""
"","S2","","html-keyboard-response","365","570893","0.0-1.0-490.0","0","0","65121","","null","","","null","54","","NaN","","","","","","","","","","","","","",""
"","response","","html-keyboard-response","366","571079","0.0-1.0-491.0-0.0","0","0","65121","","182","","","68","54","","","2","54","training","adjacent","BC","2","3","O.jpg","L.jpg","0","1","0","",""
"","feedback","","html-keyboard-response","367","572085","0.0-1.0-492.0-0.0","0","0","65121","","null","","","null","54","","","","","","","","","","","","","","","",""
"","time_out","","html-keyboard-response","368","574093","0.0-1.0-494.0-0.0","0","0","65121","","null","","","null","54","","","","","","","","","","","","","","","",""
"","ITI","","html-keyboard-response","369","575101","0.0-1.0-495.0","0","0","65121","","null","","","null","54","","","","","","","","","","","","","","","NaN",""
"","S1","","html-keyboard-response","370","575357","0.0-1.0-497.0","0","0","65121","","null","","","null","55","","","","","","","","","","","","","","","",""
"","ISI","","html-keyboard-response","371","576365","0.0-1.0-498.0","0","0","65121","","null","","","null","55","NaN","","","","","","","","","","","","","","",""
"","S2","","html-keyboard-response","372","576621","0.0-1.0-499.0","0","0","65121","","null","","","null","55","","NaN","","","","","","","","","","","","","",""
"","response","","html-keyboard-response","373","576978","0.0-1.0-500.0-0.0","0","0","65121","","353","","","68","55","","","2","55","training","adjacent","FG","6","7","Q.jpg","P.jpg","0","1","0","",""
"","feedback","","html-keyboard-response","374","577988","0.0-1.0-501.0-0.0","0","0","65121","","null","","","null","55","","","","","","","","","","","","","","","",""
"","time_out","","html-keyboard-response","375","579997","0.0-1.0-503.0-0.0","0","0","65121","","null","","","null","55","","","","","","","","","","","","","","","",""
"","ITI","","html-keyboard-response","376","581005","0.0-1.0-504.0","0","0","65121","","null","","","null","55","","","","","","","","","","","","","","","NaN",""
"","S1","","html-keyboard-response","377","581261","0.0-1.0-506.0","0","0","65121","","null","","","null","56","","","","","","","","","","","","","","","",""
"","ISI","","html-keyboard-response","378","582269","0.0-1.0-507.0","0","0","65121","","null","","","null","56","NaN","","","","","","","","","","","","","","",""
"","S2","","html-keyboard-response","379","582525","0.0-1.0-508.0","0","0","65121","","null","","","null","56","","NaN","","","","","","","","","","","","","",""
"","response","","html-keyboard-response","380","582611","0.0-1.0-509.0-0.0","0","0","65121","","82","","","75","56","","","2","56","training","adjacent","FE","6","5","Q.jpg","R.jpg","1","0","0","",""
"","feedback","","html-keyboard-response","381","583621","0.0-1.0-510.0-0.0","0","0","65121","","null","","","null","56","","","","","","","","","","","","","","","",""
"","time_out","","html-keyboard-response","382","585629","0.0-1.0-512.0-0.0","0","0","65121","","null","","","null","56","","","","","","","","","","","","","","","",""
"","ITI","","html-keyboard-response","383","586637","0.0-1.0-513.0","0","0","65121","","null","","","null","56","","","","","","","","","","","","","","","NaN",""
"","S1","","html-keyboard-response","384","586893","0.0-1.0-515.0","0","0","65121","","null","","","null","57","","","","","","","","","","","","","","","",""
"","ISI","","html-keyboard-response","385","587901","0.0-1.0-516.0","0","0","65121","","null","","","null","57","NaN","","","","","","","","","","","","","","",""
"","S2","","html-keyboard-response","386","588157","0.0-1.0-517.0","0","0","65121","","null","","","null","57","","NaN","","","","","","","","","","","","","",""
"","response","","html-keyboard-response","387","588713","0.0-1.0-518.0-0.0","0","0","65121","","552","","","75","57","","","2","57","training","adjacent","BC","2","3","O.jpg","L.jpg","1","1","1","",""
"","feedback","","html-keyboard-response","388","589725","0.0-1.0-519.0-0.0","0","0","65121","","null","","","null","57","","","","","","","","","","","","","","","",""
"","ITI","","html-keyboard-response","389","590733","0.0-1.0-522.0","0","0","65121","","null","","","null","57","","","","","","","","","","","","","","","NaN",""
"","S1","","html-keyboard-response","390","590989","0.0-1.0-524.0","0","0","65121","","null","","","null","58","","","","","","","","","","","","","","","",""
"","ISI","","html-keyboard-response","391","591997","0.0-1.0-525.0","0","0","65121","","null","","","null","58","NaN","","","","","","","","","","","","","","",""
"","S2","","html-keyboard-response","392","592252","0.0-1.0-526.0","0","0","65121","","null","","","null","58","","NaN","","","","","","","","","","","","","",""
"","response","","html-keyboard-response","393","592305","0.0-1.0-527.0-0.0","0","0","65121","","49","","","75","58","","","2","58","training","adjacent","AB","1","2","N.jpg","O.jpg","1","1","1","",""
"","feedback","","html-keyboard-response","394","593317","0.0-1.0-528.0-0.0","0","0","65121","","null","","","null","58","","","","","","","","","","","","","","","",""
"","ITI","","html-keyboard-response","395","594325","0.0-1.0-531.0","0","0","65121","","null","","","null","58","","","","","","","","","","","","","","","NaN",""
"","S1","","html-keyboard-response","396","594580","0.0-1.0-533.0","0","0","65121","","null","","","null","59","","","","","","","","","","","","","","","",""
"","ISI","","html-keyboard-response","397","595589","0.0-1.0-534.0","0","0","65121","","null","","","null","59","NaN","","","","","","","","","","","","","","",""
"","S2","","html-keyboard-response","398","595845","0.0-1.0-535.0","0","0","65121","","null","","","null","59","","NaN","","","","","","","","","","","","","",""
"","response","","html-keyboard-response","399","595911","0.0-1.0-536.0-0.0","0","0","65121","","62","","","75","59","","","2","59","training","adjacent","DE","4","5","M.jpg","R.jpg","1","1","1","",""
"","feedback","","html-keyboard-response","400","596917","0.0-1.0-537.0-0.0","0","0","65121","","null","","","null","59","","","","","","","","","","","","","","","",""
"","ITI","","html-keyboard-response","401","597924","0.0-1.0-540.0","0","0","65121","","null","","","null","59","","","","","","","","","","","","","","","NaN",""
"","S1","","html-keyboard-response","402","598181","0.0-1.0-542.0","0","0","65121","","null","","","null","60","","","","","","","","","","","","","","","",""
"","ISI","","html-keyboard-response","403","599189","0.0-1.0-543.0","0","0","65121","","null","","","null","60","NaN","","","","","","","","","","","","","","",""
"","S2","","html-keyboard-response","404","599445","0.0-1.0-544.0","0","0","65121","","null","","","null","60","","NaN","","","","","","","","","","","","","",""
"","response","","html-keyboard-response","405","599562","0.0-1.0-545.0-0.0","0","0","65121","","113","","","68","60","","","2","60","training","adjacent","BA","2","1","O.jpg","N.jpg","0","0","1","",""
"","feedback","","html-keyboard-response","406","600573","0.0-1.0-546.0-0.0","0","0","65121","","null","","","null","60","","","","","","","","","","","","","","","",""
"","ITI","","html-keyboard-response","407","601581","0.0-1.0-549.0","0","0","65121","","null","","","null","60","","","","","","","","","","","","","","","NaN",""
"","S1","","html-keyboard-response","408","601837","0.0-1.0-551.0","0","0","65121","","null","","","null","61","","","","","","","","","","","","","","","",""
"","ISI","","html-keyboard-response","409","602845","0.0-1.0-552.0","0","0","65121","","null","","","null","61","NaN","","","","","","","","","","","","","","",""
"","S2","","html-keyboard-response","410","603101","0.0-1.0-553.0","0","0","65121","","null","","","null","61","","NaN","","","","","","","","","","","","","",""
"","response","","html-keyboard-response","411","603534","0.0-1.0-554.0-0.0","0","0","65121","","430","","","75","61","","","2","61","training","adjacent","ED","5","4","R.jpg","M.jpg","1","0","0","",""
"","feedback","","html-keyboard-response","412","604540","0.0-1.0-555.0-0.0","0","0","65121","","null","","","null","61","","","","","","","","","","","","","","","",""
"","time_out","","html-keyboard-response","413","606549","0.0-1.0-557.0-0.0","0","0","65121","","null","","","null","61","","","","","","","","","","","","","","","",""
"","ITI","","html-keyboard-response","414","607557","0.0-1.0-558.0","0","0","65121","","null","","","null","61","","","","","","","","","","","","","","","NaN",""
"","S1","","html-keyboard-response","415","607813","0.0-1.0-560.0","0","0","65121","","null","","","null","62","","","","","","","","","","","","","","","",""
"","ISI","","html-keyboard-response","416","608821","0.0-1.0-561.0","0","0","65121","","null","","","null","62","NaN","","","","","","","","","","","","","","",""
"","S2","","html-keyboard-response","417","609077","0.0-1.0-562.0","0","0","65121","","null","","","null","62","","NaN","","","","","","","","","","","","","",""
"","response","","html-keyboard-response","418","609533","0.0-1.0-563.0-0.0","0","0","65121","","453","","","75","62","","","2","62","training","adjacent","CD","3","4","L.jpg","M.jpg","1","1","1","",""
"","feedback","","html-keyboard-response","419","610541","0.0-1.0-564.0-0.0","0","0","65121","","null","","","null","62","","","","","","","","","","","","","","","",""
"","ITI","","html-keyboard-response","420","611549","0.0-1.0-567.0","0","0","65121","","null","","","null","62","","","","","","","","","","","","","","","NaN",""
"","S1","","html-keyboard-response","421","611805","0.0-1.0-569.0","0","0","65121","","null","","","null","63","","","","","","","","","","","","","","","",""
"","ISI","","html-keyboard-response","422","612813","0.0-1.0-570.0","0","0","65121","","null","","","null","63","NaN","","","","","","","","","","","","","","",""
"","S2","","html-keyboard-response","423","613069","0.0-1.0-571.0","0","0","65121","","null","","","null","63","","NaN","","","","","","","","","","","","","",""
"","response","","html-keyboard-response","424","613589","0.0-1.0-572.0-0.0","0","0","65121","","516","","","68","63","","","2","63","training","adjacent","EF","5","6","R.jpg","Q.jpg","0","1","0","",""
"","feedback","","html-keyboard-response","425","614597","0.0-1.0-573.0-0.0","0","0","65121","","null","","","null","63","","","","","","","","","","","","","","","",""
"","time_out","","html-keyboard-response","426","616604","0.0-1.0-575.0-0.0","0","0","65121","","null","","","null","63","","","","","","","","","","","","","","","",""
"","ITI","","html-keyboard-response","427","617612","0.0-1.0-576.0","0","0","65121","","null","","","null","63","","","","","","","","","","","","","","","NaN",""
"","S1","","html-keyboard-response","428","617869","0.0-1.0-578.0","0","0","65121","","null","","","null","64","","","","","","","","","","","","","","","",""
"","ISI","","html-keyboard-response","429","618876","0.0-1.0-579.0","0","0","65121","","null","","","null","64","NaN","","","","","","","","","","","","","","",""
"","S2","","html-keyboard-response","430","619133","0.0-1.0-580.0","0","0","65121","","null","","","null","64","","NaN","","","","","","","","","","","","","",""
"","response","","html-keyboard-response","431","619293","0.0-1.0-581.0-0.0","0","0","65121","","156","","","75","64","","","2","64","training","adjacent","BA","2","1","O.jpg","N.jpg","1","0","0","",""
"","feedback","","html-keyboard-response","432","620301","0.0-1.0-582.0-0.0","0","0","65121","","null","","","null","64","","","","","","","","","","","","","","","",""
"","time_out","","html-keyboard-response","433","622309","0.0-1.0-584.0-0.0","0","0","65121","","null","","","null","64","","","","","","","","","","","","","","","",""
"","ITI","","html-keyboard-response","434","623317","0.0-1.0-585.0","0","0","65121","","null","","","null","64","","","","","","","","","","","","","","","NaN",""
"","S1","","html-keyboard-response","435","623573","0.0-1.0-587.0","0","0","65121","","null","","","null","65","","","","","","","","","","","","","","","",""
"","ISI","","html-keyboard-response","436","624581","0.0-1.0-588.0","0","0","65121","","null","","","null","65","NaN","","","","","","","","","","","","","","",""
"","S2","","html-keyboard-response","437","624837","0.0-1.0-589.0","0","0","65121","","null","","","null","65","","NaN","","","","","","","","","","","","","",""
"","response","","html-keyboard-response","438","625633","0.0-1.0-590.0-0.0","0","0","65121","","792","","","68","65","","","2","65","training","adjacent","DE","4","5","M.jpg","R.jpg","0","1","0","",""
"","feedback","","html-keyboard-response","439","626645","0.0-1.0-591.0-0.0","0","0","65121","","null","","","null","65","","","","","","","","","","","","","","","",""
"","time_out","","html-keyboard-response","440","628653","0.0-1.0-593.0-0.0","0","0","65121","","null","","","null","65","","","","","","","","","","","","","","","",""
"","ITI","","html-keyboard-response","441","629661","0.0-1.0-594.0","0","0","65121","","null","","","null","65","","","","","","","","","","","","","","","NaN",""
"","S1","","html-keyboard-response","442","629916","0.0-1.0-596.0","0","0","65121","","null","","","null","66","","","","","","","","","","","","","","","",""
"","ISI","","html-keyboard-response","443","630925","0.0-1.0-597.0","0","0","65121","","null","","","null","66","NaN","","","","","","","","","","","","","","",""
"","S2","","html-keyboard-response","444","631181","0.0-1.0-598.0","0","0","65121","","null","","","null","66","","NaN","","","","","","","","","","","","","",""
"","response","","html-keyboard-response","445","631258","0.0-1.0-599.0-0.0","0","0","65121","","73","","","75","66","","","2","66","training","adjacent","CB","3","2","L.jpg","O.jpg","1","0","0","",""
"","feedback","","html-keyboard-response","446","632269","0.0-1.0-600.0-0.0","0","0","65121","","null","","","null","66","","","","","","","","","","","","","","","",""
"","time_out","","html-keyboard-response","447","634277","0.0-1.0-602.0-0.0","0","0","65121","","null","","","null","66","","","","","","","","","","","","","","","",""
"","ITI","","html-keyboard-response","448","635285","0.0-1.0-603.0","0","0","65121","","null","","","null","66","","","","","","","","","","","","","","","NaN",""
"","S1","","html-keyboard-response","449","635541","0.0-1.0-605.0","0","0","65121","","null","","","null","67","","","","","","","","","","","","","","","",""
"","ISI","","html-keyboard-response","450","636548","0.0-1.0-606.0","0","0","65121","","null","","","null","67","NaN","","","","","","","","","","","","","","",""
"","S2","","html-keyboard-response","451","636805","0.0-1.0-607.0","0","0","65121","","null","","","null","67","","NaN","","","","","","","","","","","","","",""
"","response","","html-keyboard-response","452","637007","0.0-1.0-608.0-0.0","0","0","65121","","199","","","75","67","","","2","67","training","adjacent","GF","7","6","P.jpg","Q.jpg","1","0","0","",""
"","feedback","","html-keyboard-response","453","638014","0.0-1.0-609.0-0.0","0","0","65121","","null","","","null","67","","","","","","","","","","","","","","","",""
"","time_out","","html-keyboard-response","454","640021","0.0-1.0-611.0-0.0","0","0","65121","","null","","","null","67","","","","","","","","","","","","","","","",""
"","ITI","","html-keyboard-response","455","641029","0.0-1.0-612.0","0","0","65121","","null","","","null","67","","","","","","","","","","","","","","","NaN",""
"","S1","","html-keyboard-response","456","641284","0.0-1.0-614.0","0","0","65121","","null","","","null","68","","","","","","","","","","","","","","","",""
"","ISI","","html-keyboard-response","457","642293","0.0-1.0-615.0","0","0","65121","","null","","","null","68","NaN","","","","","","","","","","","","","","",""
"","S2","","html-keyboard-response","458","642550","0.0-1.0-616.0","0","0","65121","","null","","","null","68","","NaN","","","","","","","","","","","","","",""
"","response","","html-keyboard-response","459","642704","0.0-1.0-617.0-0.0","0","0","65121","","151","","","68","68","","","2","68","training","adjacent","FG","6","7","Q.jpg","P.jpg","0","1","0","",""
"","feedback","","html-keyboard-response","460","643709","0.0-1.0-618.0-0.0","0","0","65121","","null","","","null","68","","","","","","","","","","","","","","","",""
"","time_out","","html-keyboard-response","461","645717","0.0-1.0-620.0-0.0","0","0","65121","","null","","","null","68","","","","","","","","","","","","","","","",""
"","ITI","","html-keyboard-response","462","646725","0.0-1.0-621.0","0","0","65121","","null","","","null","68","","","","","","","","","","","","","","","NaN",""
"","S1","","html-keyboard-response","463","646981","0.0-1.0-623.0","0","0","65121","","null","","","null","69","","","","","","","","","","","","","","","",""
"","ISI","","html-keyboard-response","464","647988","0.0-1.0-624.0","0","0","65121","","null","","","null","69","NaN","","","","","","","","","","","","","","",""
"","S2","","html-keyboard-response","465","648245","0.0-1.0-625.0","0","0","65121","","null","","","null","69","","NaN","","","","","","","","","","","","","",""
"","response","","html-keyboard-response","466","648547","0.0-1.0-626.0-0.0","0","0","65121","","298","","","75","69","","","2","69","training","adjacent","FG","6","7","Q.jpg","P.jpg","1","1","1","",""
"","feedback","","html-keyboard-response","467","649557","0.0-1.0-627.0-0.0","0","0","65121","","null","","","null","69","","","","","","","","","","","","","","","",""
"","ITI","","html-keyboard-response","468","650564","0.0-1.0-630.0","0","0","65121","","null","","","null","69","","","","","","","","","","","","","","","NaN",""
"","S1","","html-keyboard-response","469","650821","0.0-1.0-632.0","0","0","65121","","null","","","null","70","","","","","","","","","","","","","","","",""
"","ISI","","html-keyboard-response","470","651829","0.0-1.0-633.0","0","0","65121","","null","","","null","70","NaN","","","","","","","","","","","","","","",""
"","S2","","html-keyboard-response","471","652085","0.0-1.0-634.0","0","0","65121","","null","","","null","70","","NaN","","","","","","","","","","","","","",""
"","response","","html-keyboard-response","472","652780","0.0-1.0-635.0-0.0","0","0","65121","","691","","","75","70","","","2","70","training","adjacent","DC","4","3","M.jpg","L.jpg","1","0","0","",""
"","feedback","","html-keyboard-response","473","653789","0.0-1.0-636.0-0.0","0","0","65121","","null","","","null","70","","","","","","","","","","","","","","","",""
"","time_out","","html-keyboard-response","474","655798","0.0-1.0-638.0-0.0","0","0","65121","","null","","","null","70","","","","","","","","","","","","","","","",""
"","ITI","","html-keyboard-response","475","656805","0.0-1.0-639.0","0","0","65121","","null","","","null","70","","","","","","","","","","","","","","","NaN",""
"","S1","","html-keyboard-response","476","657061","0.0-1.0-641.0","0","0","65121","","null","","","null","71","","","","","","","","","","","","","","","",""
"","ISI","","html-keyboard-response","477","658069","0.0-1.0-642.0","0","0","65121","","null","","","null","71","NaN","","","","","","","","","","","","","","",""
"","S2","","html-keyboard-response","478","658325","0.0-1.0-643.0","0","0","65121","","null","","","null","71","","NaN","","","","","","","","","","","","","",""
"","response","","html-keyboard-response","479","658556","0.0-1.0-644.0-0.0","0","0","65121","","227","","","68","71","","","2","71","training","adjacent","BA","2","1","O.jpg","N.jpg","0","0","1","",""
"","feedback","","html-keyboard-response","480","659565","0.0-1.0-645.0-0.0","0","0","65121","","null","","","null","71","","","","","","","","","","","","","","","",""
"","ITI","","html-keyboard-response","481","660572","0.0-1.0-648.0","0","0","65121","","null","","","null","71","","","","","","","","","","","","","","","NaN",""
"","S1","","html-keyboard-response","482","660829","0.0-1.0-650.0","0","0","65121","","null","","","null","72","","","","","","","","","","","","","","","",""
"","ISI","","html-keyboard-response","483","661837","0.0-1.0-651.0","0","0","65121","","null","","","null","72","NaN","","","","","","","","","","","","","","",""
"","S2","","html-keyboard-response","484","662093","0.0-1.0-652.0","0","0","65121","","null","","","null","72","","NaN","","","","","","","","","","","","","",""
"","response","","html-keyboard-response","485","662280","0.0-1.0-653.0-0.0","0","0","65121","","183","","","68","72","","","2","72","training","adjacent","DE","4","5","M.jpg","R.jpg","0","1","0","",""
"","feedback","","html-keyboard-response","486","663285","0.0-1.0-654.0-0.0","0","0","65121","","null","","","null","72","","","","","","","","","","","","","","","",""
"","time_out","","html-keyboard-response","487","665293","0.0-1.0-656.0-0.0","0","0","65121","","null","","","null","72","","","","","","","","","","","","","","","",""
"","ITI","","html-keyboard-response","488","666301","0.0-1.0-657.0","0","0","65121","","null","","","null","72","","","","","","","","","","","","","","","NaN",""
"","S1","","html-keyboard-response","489","666557","0.0-1.0-659.0","0","0","65121","","null","","","null","73","","","","","","","","","","","","","","","",""
"","ISI","","html-keyboard-response","490","667565","0.0-1.0-660.0","0","0","65121","","null","","","null","73","NaN","","","","","","","","","","","","","","",""
"","S2","","html-keyboard-response","491","667821","0.0-1.0-661.0","0","0","65121","","null","","","null","73","","NaN","","","","","","","","","","","","","",""
"","response","","html-keyboard-response","492","668243","0.0-1.0-662.0-0.0","0","0","65121","","418","","","75","73","","","2","73","training","adjacent","GF","7","6","P.jpg","Q.jpg","1","0","0","",""
"","feedback","","html-keyboard-response","493","669253","0.0-1.0-663.0-0.0","0","0","65121","","null","","","null","73","","","","","","","","","","","","","","","",""
"","time_out","","html-keyboard-response","494","671261","0.0-1.0-665.0-0.0","0","0","65121","","null","","","null","73","","","","","","","","","","","","","","","",""
"","ITI","","html-keyboard-response","495","672269","0.0-1.0-666.0","0","0","65121","","null","","","null","73","","","","","","","","","","","","","","","NaN",""
"","S1","","html-keyboard-response","496","672525","0.0-1.0-668.0","0","0","65121","","null","","","null","74","","","","","","","","","","","","","","","",""
"","ISI","","html-keyboard-response","497","673532","0.0-1.0-669.0","0","0","65121","","null","","","null","74","NaN","","","","","","","","","","","","","","",""
"","S2","","html-keyboard-response","498","673789","0.0-1.0-670.0","0","0","65121","","null","","","null","74","","NaN","","","","","","","","","","","","","",""
"","response","","html-keyboard-response","499","674269","0.0-1.0-671.0-0.0","0","0","65121","","476","","","68","74","","","2","74","training","adjacent","CB","3","2","L.jpg","O.jpg","0","0","1","",""
"","feedback","","html-keyboard-response","500","675277","0.0-1.0-672.0-0.0","0","0","65121","","null","","","null","74","","","","","","","","","","","","","","","",""
"","ITI","","html-keyboard-response","501","676285","0.0-1.0-675.0","0","0","65121","","null","","","null","74","","","","","","","","","","","","","","","NaN",""
"","S1","","html-keyboard-response","502","676541","0.0-1.0-677.0","0","0","65121","","null","","","null","75","","","","","","","","","","","","","","","",""
"","ISI","","html-keyboard-response","503","677549","0.0-1.0-678.0","0","0","65121","","null","","","null","75","NaN","","","","","","","","","","","","","","",""
"","S2","","html-keyboard-response","504","677805","0.0-1.0-679.0","0","0","65121","","null","","","null","75","","NaN","","","","","","","","","","","","","",""
"","response","","html-keyboard-response","505","678460","0.0-1.0-680.0-0.0","0","0","65121","","651","","","68","75","","","2","75","training","adjacent","EF","5","6","R.jpg","Q.jpg","0","1","0","",""
"","feedback","","html-keyboard-response","506","679469","0.0-1.0-681.0-0.0","0","0","65121","","null","","","null","75","","","","","","","","","","","","","","","",""
"","time_out","","html-keyboard-response","507","681476","0.0-1.0-683.0-0.0","0","0","65121","","null","","","null","75","","","","","","","","","","","","","","","",""
"","ITI","","html-keyboard-response","508","682485","0.0-1.0-684.0","0","0","65121","","null","","","null","75","","","","","","","","","","","","","","","NaN",""
"","S1","","html-keyboard-response","509","682741","0.0-1.0-686.0","0","0","65121","","null","","","null","76","","","","","","","","","","","","","","","",""
"","ISI","","html-keyboard-response","510","683749","0.0-1.0-687.0","0","0","65121","","null","","","null","76","NaN","","","","","","","","","","","","","","",""
"","S2","","html-keyboard-response","511","684005","0.0-1.0-688.0","0","0","65121","","null","","","null","76","","NaN","","","","","","","","","","","","","",""
"","response","","html-keyboard-response","512","684580","0.0-1.0-689.0-0.0","0","0","65121","","572","","","75","76","","","2","76","training","adjacent","DC","4","3","M.jpg","L.jpg","1","0","0","",""
"","feedback","","html-keyboard-response","513","685588","0.0-1.0-690.0-0.0","0","0","65121","","null","","","null","76","","","","","","","","","","","","","","","",""
"","time_out","","html-keyboard-response","514","687597","0.0-1.0-692.0-0.0","0","0","65121","","null","","","null","76","","","","","","","","","","","","","","","",""
"","ITI","","html-keyboard-response","515","688605","0.0-1.0-693.0","0","0","65121","","null","","","null","76","","","","","","","","","","","","","","","NaN",""
"","S1","","html-keyboard-response","516","688861","0.0-1.0-695.0","0","0","65121","","null","","","null","77","","","","","","","","","","","","","","","",""
"","ISI","","html-keyboard-response","517","689869","0.0-1.0-696.0","0","0","65121","","null","","","null","77","NaN","","","","","","","","","","","","","","",""
"","S2","","html-keyboard-response","518","690125","0.0-1.0-697.0","0","0","65121","","null","","","null","77","","NaN","","","","","","","","","","","","","",""
"","response","","html-keyboard-response","519","690254","0.0-1.0-698.0-0.0","0","0","65121","","125","","","75","77","","","2","77","training","adjacent","EF","5","6","R.jpg","Q.jpg","1","1","1","",""
"","feedback","","html-keyboard-response","520","691261","0.0-1.0-699.0-0.0","0","0","65121","","null","","","null","77","","","","","","","","","","","","","","","",""
"","ITI","","html-keyboard-response","521","692269","0.0-1.0-702.0","0","0","65121","","null","","","null","77","","","","","","","","","","","","","","","NaN",""
"","S1","","html-keyboard-response","522","692532","0.0-1.0-704.0","0","0","65121","","null","","","null","78","","","","","","","","","","","","","","","",""
"","ISI","","html-keyboard-response","523","693541","0.0-1.0-705.0","0","0","65121","","null","","","null","78","NaN","","","","","","","","","","","","","","",""
"","S2","","html-keyboard-response","524","693797","0.0-1.0-706.0","0","0","65121","","null","","","null","78","","NaN","","","","","","","","","","","","","",""
"","response","","html-keyboard-response","525","694209","0.0-1.0-707.0-0.0","0","0","65121","","409","","","75","78","","","2","78","training","adjacent","GF","7","6","P.jpg","Q.jpg","1","0","0","",""
"","feedback","","html-keyboard-response","526","695221","0.0-1.0-708.0-0.0","0","0","65121","","null","","","null","78","","","","","","","","","","","","","","","",""
"","time_out","","html-keyboard-response","527","697229","0.0-1.0-710.0-0.0","0","0","65121","","null","","","null","78","","","","","","","","","","","","","","","",""
"","ITI","","html-keyboard-response","528","698237","0.0-1.0-711.0","0","0","65121","","null","","","null","78","","","","","","","","","","","","","","","NaN",""
"","S1","","html-keyboard-response","529","698493","0.0-1.0-713.0","0","0","65121","","null","","","null","79","","","","","","","","","","","","","","","",""
"","ISI","","html-keyboard-response","530","699501","0.0-1.0-714.0","0","0","65121","","null","","","null","79","NaN","","","","","","","","","","","","","","",""
"","S2","","html-keyboard-response","531","699757","0.0-1.0-715.0","0","0","65121","","null","","","null","79","","NaN","","","","","","","","","","","","","",""
"","response","","html-keyboard-response","532","700330","0.0-1.0-716.0-0.0","0","0","65121","","569","","","68","79","","","2","79","training","adjacent","AB","1","2","N.jpg","O.jpg","0","1","0","",""
"","feedback","","html-keyboard-response","533","701341","0.0-1.0-717.0-0.0","0","0","65121","","null","","","null","79","","","","","","","","","","","","","","","",""
"","time_out","","html-keyboard-response","534","703349","0.0-1.0-719.0-0.0","0","0","65121","","null","","","null","79","","","","","","","","","","","","","","","",""
"","ITI","","html-keyboard-response","535","704357","0.0-1.0-720.0","0","0","65121","","null","","","null","79","","","","","","","","","","","","","","","NaN",""
"","S1","","html-keyboard-response","536","704613","0.0-1.0-722.0","0","0","65121","","null","","","null","80","","","","","","","","","","","","","","","",""
"","ISI","","html-keyboard-response","537","705621","0.0-1.0-723.0","0","0","65121","","null","","","null","80","NaN","","","","","","","","","","","","","","",""
"","S2","","html-keyboard-response","538","705877","0.0-1.0-724.0","0","0","65121","","null","","","null","80","","NaN","","","","","","","","","","","","","",""
"","response","","html-keyboard-response","539","706022","0.0-1.0-725.0-0.0","0","0","65121","","140","","","75","80","","","2","80","training","adjacent","DC","4","3","M.jpg","L.jpg","1","0","0","",""
"","feedback","","html-keyboard-response","540","707028","0.0-1.0-726.0-0.0","0","0","65121","","null","","","null","80","","","","","","","","","","","","","","","",""
"","time_out","","html-keyboard-response","541","709037","0.0-1.0-728.0-0.0","0","0","65121","","null","","","null","80","","","","","","","","","","","","","","","",""
"","ITI","","html-keyboard-response","542","710045","0.0-1.0-729.0","0","0","65121","","null","","","null","80","","","","","","","","","","","","","","","NaN",""
"","S1","","html-keyboard-response","543","710301","0.0-1.0-731.0","0","0","65121","","null","","","null","81","","","","","","","","","","","","","","","",""
"","ISI","","html-keyboard-response","544","711309","0.0-1.0-732.0","0","0","65121","","null","","","null","81","NaN","","","","","","","","","","","","","","",""
"","S2","","html-keyboard-response","545","711565","0.0-1.0-733.0","0","0","65121","","null","","","null","81","","NaN","","","","","","","","","","","","","",""
"","response","","html-keyboard-response","546","712586","0.0-1.0-734.0-0.0","0","0","65121","","1016","","","75","81","","","2","81","training","adjacent","CB","3","2","L.jpg","O.jpg","1","0","0","",""
"","feedback","","html-keyboard-response","547","713597","0.0-1.0-735.0-0.0","0","0","65121","","null","","","null","81","","","","","","","","","","","","","","","",""
"","time_out","","html-keyboard-response","548","715605","0.0-1.0-737.0-0.0","0","0","65121","","null","","","null","81","","","","","","","","","","","","","","","",""
"","ITI","","html-keyboard-response","549","716613","0.0-1.0-738.0","0","0","65121","","null","","","null","81","","","","","","","","","","","","","","","NaN",""
"","S1","","html-keyboard-response","550","716869","0.0-1.0-740.0","0","0","65121","","null","","","null","82","","","","","","","","","","","","","","","",""
"","ISI","","html-keyboard-response","551","717877","0.0-1.0-741.0","0","0","65121","","null","","","null","82","NaN","","","","","","","","","","","","","","",""
"","S2","","html-keyboard-response","552","718133","0.0-1.0-742.0","0","0","65121","","null","","","null","82","","NaN","","","","","","","","","","","","","",""
"","response","","html-keyboard-response","553","718593","0.0-1.0-743.0-0.0","0","0","65121","","456","","","68","82","","","2","82","training","adjacent","ED","5","4","R.jpg","M.jpg","0","0","1","",""
"","feedback","","html-keyboard-response","554","719605","0.0-1.0-744.0-0.0","0","0","65121","","null","","","null","82","","","","","","","","","","","","","","","",""
"","ITI","","html-keyboard-response","555","720613","0.0-1.0-747.0","0","0","65121","","null","","","null","82","","","","","","","","","","","","","","","NaN",""
"","S1","","html-keyboard-response","556","720869","0.0-1.0-749.0","0","0","65121","","null","","","null","83","","","","","","","","","","","","","","","",""
"","ISI","","html-keyboard-response","557","721876","0.0-1.0-750.0","0","0","65121","","null","","","null","83","NaN","","","","","","","","","","","","","","",""
"","S2","","html-keyboard-response","558","722133","0.0-1.0-751.0","0","0","65121","","null","","","null","83","","NaN","","","","","","","","","","","","","",""
"","response","","html-keyboard-response","559","723272","0.0-1.0-752.0-0.0","0","0","65121","","1136","","","75","83","","","2","83","training","adjacent","FE","6","5","Q.jpg","R.jpg","1","0","0","",""
"","feedback","","html-keyboard-response","560","724285","0.0-1.0-753.0-0.0","0","0","65121","","null","","","null","83","","","","","","","","","","","","","","","",""
"","time_out","","html-keyboard-response","561","726293","0.0-1.0-755.0-0.0","0","0","65121","","null","","","null","83","","","","","","","","","","","","","","","",""
"","ITI","","html-keyboard-response","562","727301","0.0-1.0-756.0","0","0","65121","","null","","","null","83","","","","","","","","","","","","","","","NaN",""
"","S1","","html-keyboard-response","563","727557","0.0-1.0-758.0","0","0","65121","","null","","","null","84","","","","","","","","","","","","","","","",""
"","ISI","","html-keyboard-response","564","728565","0.0-1.0-759.0","0","0","65121","","null","","","null","84","NaN","","","","","","","","","","","","","","",""
"","S2","","html-keyboard-response","565","728821","0.0-1.0-760.0","0","0","65121","","null","","","null","84","","NaN","","","","","","","","","","","","","",""
"","response","","html-keyboard-response","566","729413","0.0-1.0-761.0-0.0","0","0","65121","","589","","","68","84","","","2","84","training","adjacent","DE","4","5","M.jpg","R.jpg","0","1","0","",""
"","feedback","","html-keyboard-response","567","730422","0.0-1.0-762.0-0.0","0","0","65121","","null","","","null","84","","","","","","","","","","","","","","","",""
"","time_out","","html-keyboard-response","568","732429","0.0-1.0-764.0-0.0","0","0","65121","","null","","","null","84","","","","","","","","","","","","","","","",""
"","ITI","","html-keyboard-response","569","733437","0.0-1.0-765.0","0","0","65121","","null","","","null","84","","","","","","","","","","","","","","","NaN",""
"","S1","","html-keyboard-response","570","733693","0.0-1.0-767.0","0","0","65121","","null","","","null","85","","","","","","","","","","","","","","","",""
"","ISI","","html-keyboard-response","571","734701","0.0-1.0-768.0","0","0","65121","","null","","","null","85","NaN","","","","","","","","","","","","","","",""
"","S2","","html-keyboard-response","572","734957","0.0-1.0-769.0","0","0","65121","","null","","","null","85","","NaN","","","","","","","","","","","","","",""
"","response","","html-keyboard-response","573","735323","0.0-1.0-770.0-0.0","0","0","65121","","361","","","68","85","","","2","85","training","adjacent","AB","1","2","N.jpg","O.jpg","0","1","0","",""
"","feedback","","html-keyboard-response","574","736333","0.0-1.0-771.0-0.0","0","0","65121","","null","","","null","85","","","","","","","","","","","","","","","",""
"","time_out","","html-keyboard-response","575","738340","0.0-1.0-773.0-0.0","0","0","65121","","null","","","null","85","","","","","","","","","","","","","","","",""
"","ITI","","html-keyboard-response","576","739349","0.0-1.0-774.0","0","0","65121","","null","","","null","85","","","","","","","","","","","","","","","NaN",""
"","S1","","html-keyboard-response","577","739605","0.0-1.0-776.0","0","0","65121","","null","","","null","86","","","","","","","","","","","","","","","",""
"","ISI","","html-keyboard-response","578","740613","0.0-1.0-777.0","0","0","65121","","null","","","null","86","NaN","","","","","","","","","","","","","","",""
"","S2","","html-keyboard-response","579","740869","0.0-1.0-778.0","0","0","65121","","null","","","null","86","","NaN","","","","","","","","","","","","","",""
"","response","","html-keyboard-response","580","740979","0.0-1.0-779.0-0.0","0","0","65121","","107","","","75","86","","","2","86","training","adjacent","BC","2","3","O.jpg","L.jpg","1","1","1","",""
