"success","ttype","start_time","trial_type","trial_index","time_elapsed","internal_node_id","warning","missed_checkup","PID","view_history","rt","responses","repeat_instructions","key_press","index","keypress_isi","keypress_S2","block","trial_num","phase","group_type","pair_type","S1_stim","S2_stim","S1_img","S2_img","S1_chosen","S1_higher","accuracy","keypress_iti","total_bonus_tally"
"true","full_screen","d03082023hr2026","fullscreen","0","8147","0.0-0.0","0","0","41522","","","","","","","","","","","","","","","","","","","","","",""
"","instructions","","instructions","1","81522","0.0-1.0-0.0-0.0","0","0","41522","[{""page_index"":0,""viewing_time"":4288},{""page_index"":1,""viewing_time"":60231},{""page_index"":2,""viewing_time"":7317},{""page_index"":3,""viewing_time"":1535}]","73372","","","","","","","","","","","","","","","","","","","",""
"","comprehension_check","","survey-multi-choice","2","100329","0.0-1.0-0.0-1.0","0","0","41522","","18796","{""Q0"":""True"",""Q1"":""D"",""Q2"":""Once the second image appears and while the screen 'MAKE A CHOICE' is shown"",""Q3"":""Green mark"",""Q4"":""either D or K""}","0","","","","","","","","","","","","","","","","","",""
"","start_exp","","html-keyboard-response","3","101852","0.0-1.0-1.0","0","0","41522","","1518","","","32","","","","","","","","","","","","","","","","",""
"","S1","","html-keyboard-response","4","102109","0.0-1.0-2.0","0","0","41522","","null","","","null","0","","","","","","","","","","","","","","","",""
"","ISI","","html-keyboard-response","5","102263","0.0-1.0-3.0","0","0","41522","","null","","","null","0","NaN","","","","","","","","","","","","","","",""
"","S2","","html-keyboard-response","6","102518","0.0-1.0-4.0","0","0","41522","","null","","","null","0","","NaN","","","","","","","","","","","","","",""
"","response","","html-keyboard-response","7","103068","0.0-1.0-5.0-0.0","0","0","41522","","546","","","75","0","","","1","0","training","adjacent","DC","4","3","L.jpg","P.jpg","0","0","1","",""
"","feedback","","html-keyboard-response","8","104072","0.0-1.0-6.0-0.0","0","0","41522","","null","","","null","0","","","","","","","","","","","","","","","",""
"","ITI","","html-keyboard-response","9","105076","0.0-1.0-9.0","0","0","41522","","null","","","null","0","","","","","","","","","","","","","","","NaN",""
"","S1","","html-keyboard-response","10","105332","0.0-1.0-11.0","0","0","41522","","null","","","null","1","","","","","","","","","","","","","","","",""
"","ISI","","html-keyboard-response","11","105485","0.0-1.0-12.0","0","0","41522","","null","","","null","1","NaN","","","","","","","","","","","","","","",""
"","S2","","html-keyboard-response","12","105738","0.0-1.0-13.0","0","0","41522","","null","","","null","1","","NaN","","","","","","","","","","","","","",""
"","response","","html-keyboard-response","13","106060","0.0-1.0-14.0-0.0","0","0","41522","","319","","","75","1","","","1","1","training","adjacent","ED","5","4","Q.jpg","L.jpg","0","0","1","",""
"","feedback","","html-keyboard-response","14","107065","0.0-1.0-15.0-0.0","0","0","41522","","null","","","null","1","","","","","","","","","","","","","","","",""
"","ITI","","html-keyboard-response","15","108069","0.0-1.0-18.0","0","0","41522","","null","","","null","1","","","","","","","","","","","","","","","NaN",""
"","S1","","html-keyboard-response","16","108323","0.0-1.0-20.0","0","0","41522","","null","","","null","2","","","","","","","","","","","","","","","",""
"","ISI","","html-keyboard-response","17","108476","0.0-1.0-21.0","0","0","41522","","null","","","null","2","NaN","","","","","","","","","","","","","","",""
"","S2","","html-keyboard-response","18","108730","0.0-1.0-22.0","0","0","41522","","null","","","null","2","","NaN","","","","","","","","","","","","","",""
"","response","","html-keyboard-response","19","109147","0.0-1.0-23.0-0.0","0","0","41522","","414","","","75","2","","","1","2","training","adjacent","CB","3","2","P.jpg","O.jpg","0","0","1","",""
"","feedback","","html-keyboard-response","20","110151","0.0-1.0-24.0-0.0","0","0","41522","","null","","","null","2","","","","","","","","","","","","","","","",""
"","ITI","","html-keyboard-response","21","111156","0.0-1.0-27.0","0","0","41522","","null","","","null","2","","","","","","","","","","","","","","","NaN",""
"","S1","","html-keyboard-response","22","111410","0.0-1.0-29.0","0","0","41522","","null","","","null","3","","","","","","","","","","","","","","","",""
"","ISI","","html-keyboard-response","23","111564","0.0-1.0-30.0","0","0","41522","","null","","","null","3","NaN","","","","","","","","","","","","","","",""
"","S2","","html-keyboard-response","24","111819","0.0-1.0-31.0","0","0","41522","","null","","","null","3","","NaN","","","","","","","","","","","","","",""
"","response","","html-keyboard-response","25","112316","0.0-1.0-32.0-0.0","0","0","41522","","494","","","75","3","","","1","3","training","adjacent","FG","6","7","R.jpg","N.jpg","0","1","0","",""
"","feedback","","html-keyboard-response","26","113321","0.0-1.0-33.0-0.0","0","0","41522","","null","","","null","3","","","","","","","","","","","","","","","",""
"","time_out","","html-keyboard-response","27","115324","0.0-1.0-35.0-0.0","0","0","41522","","null","","","null","3","","","","","","","","","","","","","","","",""
"","ITI","","html-keyboard-response","28","116328","0.0-1.0-36.0","0","0","41522","","null","","","null","3","","","","","","","","","","","","","","","NaN",""
"","S1","","html-keyboard-response","29","116582","0.0-1.0-38.0","0","0","41522","","null","","","null","4","","","","","","","","","","","","","","","",""
"","ISI","","html-keyboard-response","30","116736","0.0-1.0-39.0","0","0","41522","","null","","","null","4","NaN","","","","","","","","","","","","","","",""
"","S2","","html-keyboard-response","31","116990","0.0-1.0-40.0","0","0","41522","","null","","","null","4","","NaN","","","","","","","","","","","","","",""
"","response","","html-keyboard-response","32","117324","0.0-1.0-41.0-0.0","0","0","41522","","330","","","75","4","","","1","4","training","adjacent","ED","5","4","Q.jpg","L.jpg","0","0","1","",""
"","feedback","","html-keyboard-response","33","118327","0.0-1.0-42.0-0.0","0","0","41522","","null","","","null","4","","","","","","","","","","","","","","","",""
"","ITI","","html-keyboard-response","34","119331","0.0-1.0-45.0","0","0","41522","","null","","","null","4","","","","","","","","","","","","","","","NaN",""
"","S1","","html-keyboard-response","35","119587","0.0-1.0-47.0","0","0","41522","","null","","","null","5","","","","","","","","","","","","","","","",""
"","ISI","","html-keyboard-response","36","119740","0.0-1.0-48.0","0","0","41522","","null","","","null","5","NaN","","","","","","","","","","","","","","",""
"","S2","","html-keyboard-response","37","119994","0.0-1.0-49.0","0","0","41522","","null","","","null","5","","NaN","","","","","","","","","","","","","",""
"","response","","html-keyboard-response","38","120428","0.0-1.0-50.0-0.0","0","0","41522","","430","","","68","5","","","1","5","training","adjacent","BA","2","1","O.jpg","M.jpg","1","0","0","",""
"","feedback","","html-keyboard-response","39","121432","0.0-1.0-51.0-0.0","0","0","41522","","null","","","null","5","","","","","","","","","","","","","","","",""
"","time_out","","html-keyboard-response","40","123436","0.0-1.0-53.0-0.0","0","0","41522","","null","","","null","5","","","","","","","","","","","","","","","",""
"","ITI","","html-keyboard-response","41","124440","0.0-1.0-54.0","0","0","41522","","null","","","null","5","","","","","","","","","","","","","","","NaN",""
"","S1","","html-keyboard-response","42","124695","0.0-1.0-56.0","0","0","41522","","null","","","null","6","","","","","","","","","","","","","","","",""
"","ISI","","html-keyboard-response","43","124848","0.0-1.0-57.0","0","0","41522","","null","","","null","6","NaN","","","","","","","","","","","","","","",""
"","S2","","html-keyboard-response","44","125104","0.0-1.0-58.0","0","0","41522","","null","","","null","6","","NaN","","","","","","","","","","","","","",""
"","response","","html-keyboard-response","45","125436","0.0-1.0-59.0-0.0","0","0","41522","","329","","","68","6","","","1","6","training","adjacent","CB","3","2","P.jpg","O.jpg","1","0","0","",""
"","feedback","","html-keyboard-response","46","126440","0.0-1.0-60.0-0.0","0","0","41522","","null","","","null","6","","","","","","","","","","","","","","","",""
"","time_out","","html-keyboard-response","47","128447","0.0-1.0-62.0-0.0","0","0","41522","","null","","","null","6","","","","","","","","","","","","","","","",""
"","ITI","","html-keyboard-response","48","129451","0.0-1.0-63.0","0","0","41522","","null","","","null","6","","","","","","","","","","","","","","","NaN",""
"","S1","","html-keyboard-response","49","129706","0.0-1.0-65.0","0","0","41522","","null","","","null","7","","","","","","","","","","","","","","","",""
"","ISI","","html-keyboard-response","50","129859","0.0-1.0-66.0","0","0","41522","","null","","","null","7","NaN","","","","","","","","","","","","","","",""
"","S2","","html-keyboard-response","51","130114","0.0-1.0-67.0","0","0","41522","","null","","","null","7","","NaN","","","","","","","","","","","","","",""
"","response","","html-keyboard-response","52","130476","0.0-1.0-68.0-0.0","0","0","41522","","359","","","75","7","","","1","7","training","adjacent","EF","5","6","Q.jpg","R.jpg","0","1","0","",""
"","feedback","","html-keyboard-response","53","131481","0.0-1.0-69.0-0.0","0","0","41522","","null","","","null","7","","","","","","","","","","","","","","","",""
"","time_out","","html-keyboard-response","54","133485","0.0-1.0-71.0-0.0","0","0","41522","","null","","","null","7","","","","","","","","","","","","","","","",""
"","ITI","","html-keyboard-response","55","134488","0.0-1.0-72.0","0","0","41522","","null","","","null","7","","","","","","","","","","","","","","","NaN",""
"","S1","","html-keyboard-response","56","134742","0.0-1.0-74.0","0","0","41522","","null","","","null","8","","","","","","","","","","","","","","","",""
"","ISI","","html-keyboard-response","57","134895","0.0-1.0-75.0","0","0","41522","","null","","","null","8","NaN","","","","","","","","","","","","","","",""
"","S2","","html-keyboard-response","58","135149","0.0-1.0-76.0","0","0","41522","","null","","","null","8","","NaN","","","","","","","","","","","","","",""
"","response","","html-keyboard-response","59","135515","0.0-1.0-77.0-0.0","0","0","41522","","363","","","68","8","","","1","8","training","adjacent","AB","1","2","M.jpg","O.jpg","1","1","1","",""
"","feedback","","html-keyboard-response","60","136519","0.0-1.0-78.0-0.0","0","0","41522","","null","","","null","8","","","","","","","","","","","","","","","",""
"","ITI","","html-keyboard-response","61","137523","0.0-1.0-81.0","0","0","41522","","null","","","null","8","","","","","","","","","","","","","","","NaN",""
"","S1","","html-keyboard-response","62","137776","0.0-1.0-83.0","0","0","41522","","null","","","null","9","","","","","","","","","","","","","","","",""
"","ISI","","html-keyboard-response","63","137930","0.0-1.0-84.0","0","0","41522","","null","","","null","9","NaN","","","","","","","","","","","","","","",""
"","S2","","html-keyboard-response","64","138185","0.0-1.0-85.0","0","0","41522","","null","","","null","9","","NaN","","","","","","","","","","","","","",""
"","response","","html-keyboard-response","65","138555","0.0-1.0-86.0-0.0","0","0","41522","","367","","","68","9","","","1","9","training","adjacent","GF","7","6","N.jpg","R.jpg","1","0","0","",""
"","feedback","","html-keyboard-response","66","139559","0.0-1.0-87.0-0.0","0","0","41522","","null","","","null","9","","","","","","","","","","","","","","","",""
"","time_out","","html-keyboard-response","67","141567","0.0-1.0-89.0-0.0","0","0","41522","","null","","","null","9","","","","","","","","","","","","","","","",""
"","ITI","","html-keyboard-response","68","142571","0.0-1.0-90.0","0","0","41522","","null","","","null","9","","","","","","","","","","","","","","","NaN",""
"","S1","","html-keyboard-response","69","142827","0.0-1.0-92.0","0","0","41522","","null","","","null","10","","","","","","","","","","","","","","","",""
"","ISI","","html-keyboard-response","70","142981","0.0-1.0-93.0","0","0","41522","","null","","","null","10","NaN","","","","","","","","","","","","","","",""
"","S2","","html-keyboard-response","71","143237","0.0-1.0-94.0","0","0","41522","","null","","","null","10","","NaN","","","","","","","","","","","","","",""
"","response","","html-keyboard-response","72","143803","0.0-1.0-95.0-0.0","0","0","41522","","563","","","75","10","","","1","10","training","adjacent","GF","7","6","N.jpg","R.jpg","0","0","1","",""
"","feedback","","html-keyboard-response","73","144807","0.0-1.0-96.0-0.0","0","0","41522","","null","","","null","10","","","","","","","","","","","","","","","",""
"","ITI","","html-keyboard-response","74","145812","0.0-1.0-99.0","0","0","41522","","null","","","null","10","","","","","","","","","","","","","","","NaN",""
"","S1","","html-keyboard-response","75","146066","0.0-1.0-101.0","0","0","41522","","null","","","null","11","","","","","","","","","","","","","","","",""
"","ISI","","html-keyboard-response","76","146221","0.0-1.0-102.0","0","0","41522","","null","","","null","11","NaN","","","","","","","","","","","","","","",""
"","S2","","html-keyboard-response","77","146475","0.0-1.0-103.0","0","0","41522","","null","","","null","11","","NaN","","","","","","","","","","","","","",""
"","response","","html-keyboard-response","78","147339","0.0-1.0-104.0-0.0","0","0","41522","","860","","","68","11","","","1","11","training","adjacent","DC","4","3","L.jpg","P.jpg","1","0","0","",""
"","feedback","","html-keyboard-response","79","148343","0.0-1.0-105.0-0.0","0","0","41522","","null","","","null","11","","","","","","","","","","","","","","","",""
"","time_out","","html-keyboard-response","80","150347","0.0-1.0-107.0-0.0","0","0","41522","","null","","","null","11","","","","","","","","","","","","","","","",""
"","ITI","","html-keyboard-response","81","151350","0.0-1.0-108.0","0","0","41522","","null","","","null","11","","","","","","","","","","","","","","","NaN",""
"","S1","","html-keyboard-response","82","151604","0.0-1.0-110.0","0","0","41522","","null","","","null","12","","","","","","","","","","","","","","","",""
"","ISI","","html-keyboard-response","83","151758","0.0-1.0-111.0","0","0","41522","","null","","","null","12","NaN","","","","","","","","","","","","","","",""
"","S2","","html-keyboard-response","84","152012","0.0-1.0-112.0","0","0","41522","","null","","","null","12","","NaN","","","","","","","","","","","","","",""
"","response","","html-keyboard-response","85","152444","0.0-1.0-113.0-0.0","0","0","41522","","428","","","75","12","","","1","12","training","adjacent","GF","7","6","N.jpg","R.jpg","0","0","1","",""
"","feedback","","html-keyboard-response","86","153448","0.0-1.0-114.0-0.0","0","0","41522","","null","","","null","12","","","","","","","","","","","","","","","",""
"","ITI","","html-keyboard-response","87","154453","0.0-1.0-117.0","0","0","41522","","null","","","null","12","","","","","","","","","","","","","","","NaN",""
"","S1","","html-keyboard-response","88","154707","0.0-1.0-119.0","0","0","41522","","null","","","null","13","","","","","","","","","","","","","","","",""
"","ISI","","html-keyboard-response","89","154861","0.0-1.0-120.0","0","0","41522","","null","","","null","13","NaN","","","","","","","","","","","","","","",""
"","S2","","html-keyboard-response","90","155116","0.0-1.0-121.0","0","0","41522","","null","","","null","13","","NaN","","","","","","","","","","","","","",""
"","response","","html-keyboard-response","91","155371","0.0-1.0-122.0-0.0","0","0","41522","","253","","","68","13","","","1","13","training","adjacent","FG","6","7","R.jpg","N.jpg","1","1","1","",""
"","feedback","","html-keyboard-response","92","156376","0.0-1.0-123.0-0.0","0","0","41522","","null","","","null","13","","","","","","","","","","","","","","","",""
"","ITI","","html-keyboard-response","93","157380","0.0-1.0-126.0","0","0","41522","","null","","","null","13","","","","","","","","","","","","","","","NaN",""
"","S1","","html-keyboard-response","94","157634","0.0-1.0-128.0","0","0","41522","","null","","","null","14","","","","","","","","","","","","","","","",""
"","ISI","","html-keyboard-response","95","157788","0.0-1.0-129.0","0","0","41522","","null","","","null","14","NaN","","","","","","","","","","","","","","",""
"","S2","","html-keyboard-response","96","158043","0.0-1.0-130.0","0","0","41522","","null","","","null","14","","NaN","","","","","","","","","","","","","",""
"","response","","html-keyboard-response","97","158347","0.0-1.0-131.0-0.0","0","0","41522","","301","","","75","14","","","1","14","training","adjacent","CD","3","4","P.jpg","L.jpg","0","1","0","",""
"","feedback","","html-keyboard-response","98","159351","0.0-1.0-132.0-0.0","0","0","41522","","null","","","null","14","","","","","","","","","","","","","","","",""
"","time_out","","html-keyboard-response","99","161356","0.0-1.0-134.0-0.0","0","0","41522","","null","","","null","14","","","","","","","","","","","","","","","",""
"","ITI","","html-keyboard-response","100","162359","0.0-1.0-135.0","0","0","41522","","null","","","null","14","","","","","","","","","","","","","","","NaN",""
"","S1","","html-keyboard-response","101","162614","0.0-1.0-137.0","0","0","41522","","null","","","null","15","","","","","","","","","","","","","","","",""
"","ISI","","html-keyboard-response","102","162768","0.0-1.0-138.0","0","0","41522","","null","","","null","15","NaN","","","","","","","","","","","","","","",""
"","S2","","html-keyboard-response","103","163022","0.0-1.0-139.0","0","0","41522","","null","","","null","15","","NaN","","","","","","","","","","","","","",""
"","response","","html-keyboard-response","104","163227","0.0-1.0-140.0-0.0","0","0","41522","","202","","","68","15","","","1","15","training","adjacent","FE","6","5","R.jpg","Q.jpg","1","0","0","",""
"","feedback","","html-keyboard-response","105","164232","0.0-1.0-141.0-0.0","0","0","41522","","null","","","null","15","","","","","","","","","","","","","","","",""
"","time_out","","html-keyboard-response","106","166236","0.0-1.0-143.0-0.0","0","0","41522","","null","","","null","15","","","","","","","","","","","","","","","",""
"","ITI","","html-keyboard-response","107","167240","0.0-1.0-144.0","0","0","41522","","null","","","null","15","","","","","","","","","","","","","","","NaN",""
"","S1","","html-keyboard-response","108","167494","0.0-1.0-146.0","0","0","41522","","null","","","null","16","","","","","","","","","","","","","","","",""
"","ISI","","html-keyboard-response","109","167648","0.0-1.0-147.0","0","0","41522","","null","","","null","16","NaN","","","","","","","","","","","","","","",""
"","S2","","html-keyboard-response","110","167902","0.0-1.0-148.0","0","0","41522","","null","","","null","16","","NaN","","","","","","","","","","","","","",""
"","response","","html-keyboard-response","111","168284","0.0-1.0-149.0-0.0","0","0","41522","","379","","","68","16","","","1","16","training","adjacent","AB","1","2","M.jpg","O.jpg","1","1","1","",""
"","feedback","","html-keyboard-response","112","169289","0.0-1.0-150.0-0.0","0","0","41522","","null","","","null","16","","","","","","","","","","","","","","","",""
"","ITI","","html-keyboard-response","113","170292","0.0-1.0-153.0","0","0","41522","","null","","","null","16","","","","","","","","","","","","","","","NaN",""
"","S1","","html-keyboard-response","114","170546","0.0-1.0-155.0","0","0","41522","","null","","","null","17","","","","","","","","","","","","","","","",""
"","ISI","","html-keyboard-response","115","170699","0.0-1.0-156.0","0","0","41522","","null","","","null","17","NaN","","","","","","","","","","","","","","",""
"","S2","","html-keyboard-response","116","170953","0.0-1.0-157.0","0","0","41522","","null","","","null","17","","NaN","","","","","","","","","","","","","",""
"","response","","html-keyboard-response","117","171419","0.0-1.0-158.0-0.0","0","0","41522","","463","","","68","17","","","1","17","training","adjacent","DE","4","5","L.jpg","Q.jpg","1","1","1","",""
"","feedback","","html-keyboard-response","118","172425","0.0-1.0-159.0-0.0","0","0","41522","","null","","","null","17","","","","","","","","","","","","","","","",""
"","ITI","","html-keyboard-response","119","173428","0.0-1.0-162.0","0","0","41522","","null","","","null","17","","","","","","","","","","","","","","","NaN",""
"","S1","","html-keyboard-response","120","173683","0.0-1.0-164.0","0","0","41522","","null","","","null","18","","","","","","","","","","","","","","","",""
"","ISI","","html-keyboard-response","121","173836","0.0-1.0-165.0","0","0","41522","","null","","","null","18","NaN","","","","","","","","","","","","","","",""
"","S2","","html-keyboard-response","122","174090","0.0-1.0-166.0","0","0","41522","","null","","","null","18","","NaN","","","","","","","","","","","","","",""
"","response","","html-keyboard-response","123","174507","0.0-1.0-167.0-0.0","0","0","41522","","414","","","68","18","","","1","18","training","adjacent","DE","4","5","L.jpg","Q.jpg","1","1","1","",""
"","feedback","","html-keyboard-response","124","175511","0.0-1.0-168.0-0.0","0","0","41522","","null","","","null","18","","","","","","","","","","","","","","","",""
"","ITI","","html-keyboard-response","125","176515","0.0-1.0-171.0","0","0","41522","","null","","","null","18","","","","","","","","","","","","","","","NaN",""
"","S1","","html-keyboard-response","126","176769","0.0-1.0-173.0","0","0","41522","","null","","","null","19","","","","","","","","","","","","","","","",""
"","ISI","","html-keyboard-response","127","176923","0.0-1.0-174.0","0","0","41522","","null","","","null","19","NaN","","","","","","","","","","","","","","",""
"","S2","","html-keyboard-response","128","177178","0.0-1.0-175.0","0","0","41522","","null","","","null","19","","NaN","","","","","","","","","","","","","",""
"","response","","html-keyboard-response","129","177644","0.0-1.0-176.0-0.0","0","0","41522","","462","","","75","19","","","1","19","training","adjacent","EF","5","6","Q.jpg","R.jpg","0","1","0","",""
"","feedback","","html-keyboard-response","130","178648","0.0-1.0-177.0-0.0","0","0","41522","","null","","","null","19","","","","","","","","","","","","","","","",""
"","time_out","","html-keyboard-response","131","180653","0.0-1.0-179.0-0.0","0","0","41522","","null","","","null","19","","","","","","","","","","","","","","","",""
"","ITI","","html-keyboard-response","132","181656","0.0-1.0-180.0","0","0","41522","","null","","","null","19","","","","","","","","","","","","","","","NaN",""
"","S1","","html-keyboard-response","133","181911","0.0-1.0-182.0","0","0","41522","","null","","","null","20","","","","","","","","","","","","","","","",""
"","ISI","","html-keyboard-response","134","182065","0.0-1.0-183.0","0","0","41522","","null","","","null","20","NaN","","","","","","","","","","","","","","",""
"","S2","","html-keyboard-response","135","182320","0.0-1.0-184.0","0","0","41522","","null","","","null","20","","NaN","","","","","","","","","","","","","",""
"","response","","html-keyboard-response","136","182492","0.0-1.0-185.0-0.0","0","0","41522","","168","","","68","20","","","1","20","training","adjacent","DC","4","3","L.jpg","P.jpg","1","0","0","",""
"","feedback","","html-keyboard-response","137","183496","0.0-1.0-186.0-0.0","0","0","41522","","null","","","null","20","","","","","","","","","","","","","","","",""
"","time_out","","html-keyboard-response","138","185501","0.0-1.0-188.0-0.0","0","0","41522","","null","","","null","20","","","","","","","","","","","","","","","",""
"","ITI","","html-keyboard-response","139","186506","0.0-1.0-189.0","0","0","41522","","null","","","null","20","","","","","","","","","","","","","","","NaN",""
"","S1","","html-keyboard-response","140","186760","0.0-1.0-191.0","0","0","41522","","null","","","null","21","","","","","","","","","","","","","","","",""
"","ISI","","html-keyboard-response","141","186913","0.0-1.0-192.0","0","0","41522","","null","","","null","21","NaN","","","","","","","","","","","","","","",""
"","S2","","html-keyboard-response","142","187168","0.0-1.0-193.0","0","0","41522","","null","","","null","21","","NaN","","","","","","","","","","","","","",""
"","response","","html-keyboard-response","143","187532","0.0-1.0-194.0-0.0","0","0","41522","","360","","","75","21","","","1","21","training","adjacent","BA","2","1","O.jpg","M.jpg","0","0","1","",""
"","feedback","","html-keyboard-response","144","188536","0.0-1.0-195.0-0.0","0","0","41522","","null","","","null","21","","","","","","","","","","","","","","","",""
"","ITI","","html-keyboard-response","145","189541","0.0-1.0-198.0","0","0","41522","","null","","","null","21","","","","","","","","","","","","","","","NaN",""
"","S1","","html-keyboard-response","146","189795","0.0-1.0-200.0","0","0","41522","","null","","","null","22","","","","","","","","","","","","","","","",""
"","ISI","","html-keyboard-response","147","189949","0.0-1.0-201.0","0","0","41522","","null","","","null","22","NaN","","","","","","","","","","","","","","",""
"","S2","","html-keyboard-response","148","190204","0.0-1.0-202.0","0","0","41522","","null","","","null","22","","NaN","","","","","","","","","","","","","",""
"","response","","html-keyboard-response","149","190587","0.0-1.0-203.0-0.0","0","0","41522","","381","","","68","22","","","1","22","training","adjacent","CD","3","4","P.jpg","L.jpg","1","1","1","",""
"","feedback","","html-keyboard-response","150","191592","0.0-1.0-204.0-0.0","0","0","41522","","null","","","null","22","","","","","","","","","","","","","","","",""
"","ITI","","html-keyboard-response","151","192596","0.0-1.0-207.0","0","0","41522","","null","","","null","22","","","","","","","","","","","","","","","NaN",""
"","S1","","html-keyboard-response","152","192850","0.0-1.0-209.0","0","0","41522","","null","","","null","23","","","","","","","","","","","","","","","",""
"","ISI","","html-keyboard-response","153","193004","0.0-1.0-210.0","0","0","41522","","null","","","null","23","NaN","","","","","","","","","","","","","","",""
"","S2","","html-keyboard-response","154","193259","0.0-1.0-211.0","0","0","41522","","null","","","null","23","","NaN","","","","","","","","","","","","","",""
"","response","","html-keyboard-response","155","193548","0.0-1.0-212.0-0.0","0","0","41522","","286","","","75","23","","","1","23","training","adjacent","CD","3","4","P.jpg","L.jpg","0","1","0","",""
"","feedback","","html-keyboard-response","156","194552","0.0-1.0-213.0-0.0","0","0","41522","","null","","","null","23","","","","","","","","","","","","","","","",""
"","time_out","","html-keyboard-response","157","196556","0.0-1.0-215.0-0.0","0","0","41522","","null","","","null","23","","","","","","","","","","","","","","","",""
"","ITI","","html-keyboard-response","158","197560","0.0-1.0-216.0","0","0","41522","","null","","","null","23","","","","","","","","","","","","","","","NaN",""
"","S1","","html-keyboard-response","159","197814","0.0-1.0-218.0","0","0","41522","","null","","","null","24","","","","","","","","","","","","","","","",""
"","ISI","","html-keyboard-response","160","197968","0.0-1.0-219.0","0","0","41522","","null","","","null","24","NaN","","","","","","","","","","","","","","",""
"","S2","","html-keyboard-response","161","198222","0.0-1.0-220.0","0","0","41522","","null","","","null","24","","NaN","","","","","","","","","","","","","",""
"","response","","html-keyboard-response","162","198331","0.0-1.0-221.0-0.0","0","0","41522","","106","","","68","24","","","1","24","training","adjacent","DE","4","5","L.jpg","Q.jpg","1","1","1","",""
"","feedback","","html-keyboard-response","163","199336","0.0-1.0-222.0-0.0","0","0","41522","","null","","","null","24","","","","","","","","","","","","","","","",""
"","ITI","","html-keyboard-response","164","200339","0.0-1.0-225.0","0","0","41522","","null","","","null","24","","","","","","","","","","","","","","","NaN",""
"","S1","","html-keyboard-response","165","200594","0.0-1.0-227.0","0","0","41522","","null","","","null","25","","","","","","","","","","","","","","","",""
"","ISI","","html-keyboard-response","166","200748","0.0-1.0-228.0","0","0","41522","","null","","","null","25","NaN","","","","","","","","","","","","","","",""
"","S2","","html-keyboard-response","167","201002","0.0-1.0-229.0","0","0","41522","","null","","","null","25","","NaN","","","","","","","","","","","","","",""
"","response","","html-keyboard-response","168","201371","0.0-1.0-230.0-0.0","0","0","41522","","366","","","75","25","","","1","25","training","adjacent","BC","2","3","O.jpg","P.jpg","0","1","0","",""
"","feedback","","html-keyboard-response","169","202375","0.0-1.0-231.0-0.0","0","0","41522","","null","","","null","25","","","","","","","","","","","","","","","",""
"","time_out","","html-keyboard-response","170","204379","0.0-1.0-233.0-0.0","0","0","41522","","null","","","null","25","","","","","","","","","","","","","","","",""
"","ITI","","html-keyboard-response","171","205383","0.0-1.0-234.0","0","0","41522","","null","","","null","25","","","","","","","","","","","","","","","NaN",""
"","S1","","html-keyboard-response","172","205637","0.0-1.0-236.0","0","0","41522","","null","","","null","26","","","","","","","","","","","","","","","",""
"","ISI","","html-keyboard-response","173","205791","0.0-1.0-237.0","0","0","41522","","null","","","null","26","NaN","","","","","","","","","","","","","","",""
"","S2","","html-keyboard-response","174","206046","0.0-1.0-238.0","0","0","41522","","null","","","null","26","","NaN","","","","","","","","","","","","","",""
"","response","","html-keyboard-response","175","206428","0.0-1.0-239.0-0.0","0","0","41522","","380","","","75","26","","","1","26","training","adjacent","BC","2","3","O.jpg","P.jpg","0","1","0","",""
"","feedback","","html-keyboard-response","176","207433","0.0-1.0-240.0-0.0","0","0","41522","","null","","","null","26","","","","","","","","","","","","","","","",""
"","time_out","","html-keyboard-response","177","209438","0.0-1.0-242.0-0.0","0","0","41522","","null","","","null","26","","","","","","","","","","","","","","","",""
"","ITI","","html-keyboard-response","178","210442","0.0-1.0-243.0","0","0","41522","","null","","","null","26","","","","","","","","","","","","","","","NaN",""
"","S1","","html-keyboard-response","179","210696","0.0-1.0-245.0","0","0","41522","","null","","","null","27","","","","","","","","","","","","","","","",""
"","ISI","","html-keyboard-response","180","210851","0.0-1.0-246.0","0","0","41522","","null","","","null","27","NaN","","","","","","","","","","","","","","",""
"","S2","","html-keyboard-response","181","211106","0.0-1.0-247.0","0","0","41522","","null","","","null","27","","NaN","","","","","","","","","","","","","",""
"","response","","html-keyboard-response","182","211275","0.0-1.0-248.0-0.0","0","0","41522","","166","","","68","27","","","1","27","training","adjacent","DC","4","3","L.jpg","P.jpg","1","0","0","",""
"","feedback","","html-keyboard-response","183","212279","0.0-1.0-249.0-0.0","0","0","41522","","null","","","null","27","","","","","","","","","","","","","","","",""
"","time_out","","html-keyboard-response","184","214284","0.0-1.0-251.0-0.0","0","0","41522","","null","","","null","27","","","","","","","","","","","","","","","",""
"","ITI","","html-keyboard-response","185","215287","0.0-1.0-252.0","0","0","41522","","null","","","null","27","","","","","","","","","","","","","","","NaN",""
"","S1","","html-keyboard-response","186","215541","0.0-1.0-254.0","0","0","41522","","null","","","null","28","","","","","","","","","","","","","","","",""
"","ISI","","html-keyboard-response","187","215695","0.0-1.0-255.0","0","0","41522","","null","","","null","28","NaN","","","","","","","","","","","","","","",""
"","S2","","html-keyboard-response","188","215949","0.0-1.0-256.0","0","0","41522","","null","","","null","28","","NaN","","","","","","","","","","","","","",""
"","response","","html-keyboard-response","189","216268","0.0-1.0-257.0-0.0","0","0","41522","","315","","","75","28","","","1","28","training","adjacent","BA","2","1","O.jpg","M.jpg","0","0","1","",""
"","feedback","","html-keyboard-response","190","217272","0.0-1.0-258.0-0.0","0","0","41522","","null","","","null","28","","","","","","","","","","","","","","","",""
"","ITI","","html-keyboard-response","191","218277","0.0-1.0-261.0","0","0","41522","","null","","","null","28","","","","","","","","","","","","","","","NaN",""
"","S1","","html-keyboard-response","192","218531","0.0-1.0-263.0","0","0","41522","","null","","","null","29","","","","","","","","","","","","","","","",""
"","ISI","","html-keyboard-response","193","218684","0.0-1.0-264.0","0","0","41522","","null","","","null","29","NaN","","","","","","","","","","","","","","",""
"","S2","","html-keyboard-response","194","218939","0.0-1.0-265.0","0","0","41522","","null","","","null","29","","NaN","","","","","","","","","","","","","",""
"","response","","html-keyboard-response","195","219579","0.0-1.0-266.0-0.0","0","0","41522","","637","","","68","29","","","1","29","training","adjacent","ED","5","4","Q.jpg","L.jpg","1","0","0","",""
"","feedback","","html-keyboard-response","196","220584","0.0-1.0-267.0-0.0","0","0","41522","","null","","","null","29","","","","","","","","","","","","","","","",""
"","time_out","","html-keyboard-response","197","222589","0.0-1.0-269.0-0.0","0","0","41522","","null","","","null","29","","","","","","","","","","","","","","","",""
"","ITI","","html-keyboard-response","198","223594","0.0-1.0-270.0","0","0","41522","","null","","","null","29","","","","","","","","","","","","","","","NaN",""
"","S1","","html-keyboard-response","199","223848","0.0-1.0-272.0","0","0","41522","","null","","","null","30","","","","","","","","","","","","","","","",""
"","ISI","","html-keyboard-response","200","224002","0.0-1.0-273.0","0","0","41522","","null","","","null","30","NaN","","","","","","","","","","","","","","",""
"","S2","","html-keyboard-response","201","224256","0.0-1.0-274.0","0","0","41522","","null","","","null","30","","NaN","","","","","","","","","","","","","",""
"","response","","html-keyboard-response","202","224827","0.0-1.0-275.0-0.0","0","0","41522","","568","","","68","30","","","1","30","training","adjacent","FE","6","5","R.jpg","Q.jpg","1","0","0","",""
"","feedback","","html-keyboard-response","203","225833","0.0-1.0-276.0-0.0","0","0","41522","","null","","","null","30","","","","","","","","","","","","","","","",""
"","time_out","","html-keyboard-response","204","227836","0.0-1.0-278.0-0.0","0","0","41522","","null","","","null","30","","","","","","","","","","","","","","","",""
"","ITI","","html-keyboard-response","205","228840","0.0-1.0-279.0","0","0","41522","","null","","","null","30","","","","","","","","","","","","","","","NaN",""
"","S1","","html-keyboard-response","206","229094","0.0-1.0-281.0","0","0","41522","","null","","","null","31","","","","","","","","","","","","","","","",""
"","ISI","","html-keyboard-response","207","229248","0.0-1.0-282.0","0","0","41522","","null","","","null","31","NaN","","","","","","","","","","","","","","",""
"","S2","","html-keyboard-response","208","229515","0.0-1.0-283.0","0","0","41522","","null","","","null","31","","NaN","","","","","","","","","","","","","",""
"","response","","html-keyboard-response","209","229979","0.0-1.0-284.0-0.0","0","0","41522","","461","","","68","31","","","1","31","training","adjacent","FE","6","5","R.jpg","Q.jpg","1","0","0","",""
"","feedback","","html-keyboard-response","210","230984","0.0-1.0-285.0-0.0","0","0","41522","","null","","","null","31","","","","","","","","","","","","","","","",""
"","time_out","","html-keyboard-response","211","232988","0.0-1.0-287.0-0.0","0","0","41522","","null","","","null","31","","","","","","","","","","","","","","","",""
"","ITI","","html-keyboard-response","212","233992","0.0-1.0-288.0","0","0","41522","","null","","","null","31","","","","","","","","","","","","","","","NaN",""
"","S1","","html-keyboard-response","213","234246","0.0-1.0-290.0","0","0","41522","","null","","","null","32","","","","","","","","","","","","","","","",""
"","ISI","","html-keyboard-response","214","234400","0.0-1.0-291.0","0","0","41522","","null","","","null","32","NaN","","","","","","","","","","","","","","",""
"","S2","","html-keyboard-response","215","234654","0.0-1.0-292.0","0","0","41522","","null","","","null","32","","NaN","","","","","","","","","","","","","",""
"","response","","html-keyboard-response","216","235004","0.0-1.0-293.0-0.0","0","0","41522","","346","","","68","32","","","1","32","training","adjacent","EF","5","6","Q.jpg","R.jpg","1","1","1","",""
"","feedback","","html-keyboard-response","217","236009","0.0-1.0-294.0-0.0","0","0","41522","","null","","","null","32","","","","","","","","","","","","","","","",""
"","ITI","","html-keyboard-response","218","237014","0.0-1.0-297.0","0","0","41522","","null","","","null","32","","","","","","","","","","","","","","","NaN",""
"","S1","","html-keyboard-response","219","237268","0.0-1.0-299.0","0","0","41522","","null","","","null","33","","","","","","","","","","","","","","","",""
"","ISI","","html-keyboard-response","220","237422","0.0-1.0-300.0","0","0","41522","","null","","","null","33","NaN","","","","","","","","","","","","","","",""
"","S2","","html-keyboard-response","221","237676","0.0-1.0-301.0","0","0","41522","","null","","","null","33","","NaN","","","","","","","","","","","","","",""
"","response","","html-keyboard-response","222","238395","0.0-1.0-302.0-0.0","0","0","41522","","715","","","68","33","","","1","33","training","adjacent","GF","7","6","N.jpg","R.jpg","1","0","0","",""
"","feedback","","html-keyboard-response","223","239399","0.0-1.0-303.0-0.0","0","0","41522","","null","","","null","33","","","","","","","","","","","","","","","",""
"","time_out","","html-keyboard-response","224","241404","0.0-1.0-305.0-0.0","0","0","41522","","null","","","null","33","","","","","","","","","","","","","","","",""
"","ITI","","html-keyboard-response","225","242409","0.0-1.0-306.0","0","0","41522","","null","","","null","33","","","","","","","","","","","","","","","NaN",""
"","S1","","html-keyboard-response","226","242664","0.0-1.0-308.0","0","0","41522","","null","","","null","34","","","","","","","","","","","","","","","",""
"","ISI","","html-keyboard-response","227","242817","0.0-1.0-309.0","0","0","41522","","null","","","null","34","NaN","","","","","","","","","","","","","","",""
"","S2","","html-keyboard-response","228","243071","0.0-1.0-310.0","0","0","41522","","null","","","null","34","","NaN","","","","","","","","","","","","","",""
"","response","","html-keyboard-response","229","243692","0.0-1.0-311.0-0.0","0","0","41522","","617","","","75","34","","","1","34","training","adjacent","FE","6","5","R.jpg","Q.jpg","0","0","1","",""
"","feedback","","html-keyboard-response","230","244697","0.0-1.0-312.0-0.0","0","0","41522","","null","","","null","34","","","","","","","","","","","","","","","",""
"","ITI","","html-keyboard-response","231","245702","0.0-1.0-315.0","0","0","41522","","null","","","null","34","","","","","","","","","","","","","","","NaN",""
"","S1","","html-keyboard-response","232","245957","0.0-1.0-317.0","0","0","41522","","null","","","null","35","","","","","","","","","","","","","","","",""
"","ISI","","html-keyboard-response","233","246110","0.0-1.0-318.0","0","0","41522","","null","","","null","35","NaN","","","","","","","","","","","","","","",""
"","S2","","html-keyboard-response","234","246364","0.0-1.0-319.0","0","0","41522","","null","","","null","35","","NaN","","","","","","","","","","","","","",""
"","response","","html-keyboard-response","235","246843","0.0-1.0-320.0-0.0","0","0","41522","","475","","","68","35","","","1","35","training","adjacent","BC","2","3","O.jpg","P.jpg","1","1","1","",""
"","feedback","","html-keyboard-response","236","247848","0.0-1.0-321.0-0.0","0","0","41522","","null","","","null","35","","","","","","","","","","","","","","","",""
"","ITI","","html-keyboard-response","237","248854","0.0-1.0-324.0","0","0","41522","","null","","","null","35","","","","","","","","","","","","","","","NaN",""
"","S1","","html-keyboard-response","238","249109","0.0-1.0-326.0","0","0","41522","","null","","","null","36","","","","","","","","","","","","","","","",""
"","ISI","","html-keyboard-response","239","249262","0.0-1.0-327.0","0","0","41522","","null","","","null","36","NaN","","","","","","","","","","","","","","",""
"","S2","","html-keyboard-response","240","249516","0.0-1.0-328.0","0","0","41522","","null","","","null","36","","NaN","","","","","","","","","","","","","",""
"","response","","html-keyboard-response","241","249836","0.0-1.0-329.0-0.0","0","0","41522","","316","","","68","36","","","1","36","training","adjacent","FG","6","7","R.jpg","N.jpg","1","1","1","",""
"","feedback","","html-keyboard-response","242","250840","0.0-1.0-330.0-0.0","0","0","41522","","null","","","null","36","","","","","","","","","","","","","","","",""
"","ITI","","html-keyboard-response","243","251844","0.0-1.0-333.0","0","0","41522","","null","","","null","36","","","","","","","","","","","","","","","NaN",""
"","S1","","html-keyboard-response","244","252099","0.0-1.0-335.0","0","0","41522","","null","","","null","37","","","","","","","","","","","","","","","",""
"","ISI","","html-keyboard-response","245","252253","0.0-1.0-336.0","0","0","41522","","null","","","null","37","NaN","","","","","","","","","","","","","","",""
"","S2","","html-keyboard-response","246","252508","0.0-1.0-337.0","0","0","41522","","null","","","null","37","","NaN","","","","","","","","","","","","","",""
"","response","","html-keyboard-response","247","252828","0.0-1.0-338.0-0.0","0","0","41522","","316","","","68","37","","","1","37","training","adjacent","FG","6","7","R.jpg","N.jpg","1","1","1","",""
"","feedback","","html-keyboard-response","248","253832","0.0-1.0-339.0-0.0","0","0","41522","","null","","","null","37","","","","","","","","","","","","","","","",""
"","ITI","","html-keyboard-response","249","254836","0.0-1.0-342.0","0","0","41522","","null","","","null","37","","","","","","","","","","","","","","","NaN",""
"","S1","","html-keyboard-response","250","255091","0.0-1.0-344.0","0","0","41522","","null","","","null","38","","","","","","","","","","","","","","","",""
"","ISI","","html-keyboard-response","251","255244","0.0-1.0-345.0","0","0","41522","","null","","","null","38","NaN","","","","","","","","","","","","","","",""
"","S2","","html-keyboard-response","252","255498","0.0-1.0-346.0","0","0","41522","","null","","","null","38","","NaN","","","","","","","","","","","","","",""
"","response","","html-keyboard-response","253","255916","0.0-1.0-347.0-0.0","0","0","41522","","414","","","75","38","","","1","38","training","adjacent","BC","2","3","O.jpg","P.jpg","0","1","0","",""
"","feedback","","html-keyboard-response","254","256920","0.0-1.0-348.0-0.0","0","0","41522","","null","","","null","38","","","","","","","","","","","","","","","",""
"","time_out","","html-keyboard-response","255","258925","0.0-1.0-350.0-0.0","0","0","41522","","null","","","null","38","","","","","","","","","","","","","","","",""
"","ITI","","html-keyboard-response","256","259929","0.0-1.0-351.0","0","0","41522","","null","","","null","38","","","","","","","","","","","","","","","NaN",""
"","S1","","html-keyboard-response","257","260183","0.0-1.0-353.0","0","0","41522","","null","","","null","39","","","","","","","","","","","","","","","",""
"","ISI","","html-keyboard-response","258","260338","0.0-1.0-354.0","0","0","41522","","null","","","null","39","NaN","","","","","","","","","","","","","","",""
"","S2","","html-keyboard-response","259","260593","0.0-1.0-355.0","0","0","41522","","null","","","null","39","","NaN","","","","","","","","","","","","","",""
"","response","","html-keyboard-response","260","261020","0.0-1.0-356.0-0.0","0","0","41522","","423","","","75","39","","","1","39","training","adjacent","CB","3","2","P.jpg","O.jpg","0","0","1","",""
"","feedback","","html-keyboard-response","261","262024","0.0-1.0-357.0-0.0","0","0","41522","","null","","","null","39","","","","","","","","","","","","","","","",""
"","ITI","","html-keyboard-response","262","263028","0.0-1.0-360.0","0","0","41522","","null","","","null","39","","","","","","","","","","","","","","","NaN",""
"","S1","","html-keyboard-response","263","263283","0.0-1.0-362.0","0","0","41522","","null","","","null","40","","","","","","","","","","","","","","","",""
"","ISI","","html-keyboard-response","264","263436","0.0-1.0-363.0","0","0","41522","","null","","","null","40","NaN","","","","","","","","","","","","","","",""
"","S2","","html-keyboard-response","265","263691","0.0-1.0-364.0","0","0","41522","","null","","","null","40","","NaN","","","","","","","","","","","","","",""
"","response","","html-keyboard-response","266","264251","0.0-1.0-365.0-0.0","0","0","41522","","557","","","75","40","","","1","40","training","adjacent","CD","3","4","P.jpg","L.jpg","0","1","0","",""
"","feedback","","html-keyboard-response","267","265255","0.0-1.0-366.0-0.0","0","0","41522","","null","","","null","40","","","","","","","","","","","","","","","",""
"","time_out","","html-keyboard-response","268","267259","0.0-1.0-368.0-0.0","0","0","41522","","null","","","null","40","","","","","","","","","","","","","","","",""
"","ITI","","html-keyboard-response","269","268263","0.0-1.0-369.0","0","0","41522","","null","","","null","40","","","","","","","","","","","","","","","NaN",""
"","S1","","html-keyboard-response","270","268526","0.0-1.0-371.0","0","0","41522","","null","","","null","41","","","","","","","","","","","","","","","",""
"","ISI","","html-keyboard-response","271","268680","0.0-1.0-372.0","0","0","41522","","null","","","null","41","NaN","","","","","","","","","","","","","","",""
"","S2","","html-keyboard-response","272","268935","0.0-1.0-373.0","0","0","41522","","null","","","null","41","","NaN","","","","","","","","","","","","","",""
"","response","","html-keyboard-response","273","269419","0.0-1.0-374.0-0.0","0","0","41522","","481","","","68","41","","","1","41","training","adjacent","CB","3","2","P.jpg","O.jpg","1","0","0","",""
"","feedback","","html-keyboard-response","274","270423","0.0-1.0-375.0-0.0","0","0","41522","","null","","","null","41","","","","","","","","","","","","","","","",""
"","time_out","","html-keyboard-response","275","272427","0.0-1.0-377.0-0.0","0","0","41522","","null","","","null","41","","","","","","","","","","","","","","","",""
"","ITI","","html-keyboard-response","276","273431","0.0-1.0-378.0","0","0","41522","","null","","","null","41","","","","","","","","","","","","","","","NaN",""
"","S1","","html-keyboard-response","277","273685","0.0-1.0-380.0","0","0","41522","","null","","","null","42","","","","","","","","","","","","","","","",""
"","ISI","","html-keyboard-response","278","273839","0.0-1.0-381.0","0","0","41522","","null","","","null","42","NaN","","","","","","","","","","","","","","",""
"","S2","","html-keyboard-response","279","274093","0.0-1.0-382.0","0","0","41522","","null","","","null","42","","NaN","","","","","","","","","","","","","",""
"","response","","html-keyboard-response","280","274427","0.0-1.0-383.0-0.0","0","0","41522","","331","","","75","42","","","1","42","training","adjacent","AB","1","2","M.jpg","O.jpg","0","1","0","",""
"","feedback","","html-keyboard-response","281","275432","0.0-1.0-384.0-0.0","0","0","41522","","null","","","null","42","","","","","","","","","","","","","","","",""
"","time_out","","html-keyboard-response","282","277436","0.0-1.0-386.0-0.0","0","0","41522","","null","","","null","42","","","","","","","","","","","","","","","",""
"","ITI","","html-keyboard-response","283","278440","0.0-1.0-387.0","0","0","41522","","null","","","null","42","","","","","","","","","","","","","","","NaN",""
"","S1","","html-keyboard-response","284","278694","0.0-1.0-389.0","0","0","41522","","null","","","null","43","","","","","","","","","","","","","","","",""
"","ISI","","html-keyboard-response","285","278847","0.0-1.0-390.0","0","0","41522","","null","","","null","43","NaN","","","","","","","","","","","","","","",""
"","S2","","html-keyboard-response","286","279102","0.0-1.0-391.0","0","0","41522","","null","","","null","43","","NaN","","","","","","","","","","","","","",""
"","response","","html-keyboard-response","287","279243","0.0-1.0-392.0-0.0","0","0","41522","","138","","","68","43","","","1","43","training","adjacent","ED","5","4","Q.jpg","L.jpg","1","0","0","",""
"","feedback","","html-keyboard-response","288","280247","0.0-1.0-393.0-0.0","0","0","41522","","null","","","null","43","","","","","","","","","","","","","","","",""
"","time_out","","html-keyboard-response","289","282251","0.0-1.0-395.0-0.0","0","0","41522","","null","","","null","43","","","","","","","","","","","","","","","",""
"","ITI","","html-keyboard-response","290","283255","0.0-1.0-396.0","0","0","41522","","null","","","null","43","","","","","","","","","","","","","","","NaN",""
"","S1","","html-keyboard-response","291","283510","0.0-1.0-398.0","0","0","41522","","null","","","null","44","","","","","","","","","","","","","","","",""
"","ISI","","html-keyboard-response","292","283664","0.0-1.0-399.0","0","0","41522","","null","","","null","44","NaN","","","","","","","","","","","","","","",""
"","S2","","html-keyboard-response","293","283919","0.0-1.0-400.0","0","0","41522","","null","","","null","44","","NaN","","","","","","","","","","","","","",""
"","response","","html-keyboard-response","294","284299","0.0-1.0-401.0-0.0","0","0","41522","","377","","","68","44","","","1","44","training","adjacent","EF","5","6","Q.jpg","R.jpg","1","1","1","",""
"","feedback","","html-keyboard-response","295","285304","0.0-1.0-402.0-0.0","0","0","41522","","null","","","null","44","","","","","","","","","","","","","","","",""
"","ITI","","html-keyboard-response","296","286309","0.0-1.0-405.0","0","0","41522","","null","","","null","44","","","","","","","","","","","","","","","NaN",""
"","S1","","html-keyboard-response","297","286563","0.0-1.0-407.0","0","0","41522","","null","","","null","45","","","","","","","","","","","","","","","",""
"","ISI","","html-keyboard-response","298","286717","0.0-1.0-408.0","0","0","41522","","null","","","null","45","NaN","","","","","","","","","","","","","","",""
"","S2","","html-keyboard-response","299","286971","0.0-1.0-409.0","0","0","41522","","null","","","null","45","","NaN","","","","","","","","","","","","","",""
"","response","","html-keyboard-response","300","287275","0.0-1.0-410.0-0.0","0","0","41522","","300","","","68","45","","","1","45","training","adjacent","BA","2","1","O.jpg","M.jpg","1","0","0","",""
"","feedback","","html-keyboard-response","301","288280","0.0-1.0-411.0-0.0","0","0","41522","","null","","","null","45","","","","","","","","","","","","","","","",""
"","time_out","","html-keyboard-response","302","290283","0.0-1.0-413.0-0.0","0","0","41522","","null","","","null","45","","","","","","","","","","","","","","","",""
"","ITI","","html-keyboard-response","303","291287","0.0-1.0-414.0","0","0","41522","","null","","","null","45","","","","","","","","","","","","","","","NaN",""
"","S1","","html-keyboard-response","304","291541","0.0-1.0-416.0","0","0","41522","","null","","","null","46","","","","","","","","","","","","","","","",""
"","ISI","","html-keyboard-response","305","291694","0.0-1.0-417.0","0","0","41522","","null","","","null","46","NaN","","","","","","","","","","","","","","",""
"","S2","","html-keyboard-response","306","291949","0.0-1.0-418.0","0","0","41522","","null","","","null","46","","NaN","","","","","","","","","","","","","",""
"","response","","html-keyboard-response","307","292555","0.0-1.0-419.0-0.0","0","0","41522","","602","","","75","46","","","1","46","training","adjacent","DE","4","5","L.jpg","Q.jpg","0","1","0","",""
"","feedback","","html-keyboard-response","308","293560","0.0-1.0-420.0-0.0","0","0","41522","","null","","","null","46","","","","","","","","","","","","","","","",""
"","time_out","","html-keyboard-response","309","295564","0.0-1.0-422.0-0.0","0","0","41522","","null","","","null","46","","","","","","","","","","","","","","","",""
"","ITI","","html-keyboard-response","310","296569","0.0-1.0-423.0","0","0","41522","","null","","","null","46","","","","","","","","","","","","","","","NaN",""
"","S1","","html-keyboard-response","311","296823","0.0-1.0-425.0","0","0","41522","","null","","","null","47","","","","","","","","","","","","","","","",""
"","ISI","","html-keyboard-response","312","296977","0.0-1.0-426.0","0","0","41522","","null","","","null","47","NaN","","","","","","","","","","","","","","",""
"","S2","","html-keyboard-response","313","297231","0.0-1.0-427.0","0","0","41522","","null","","","null","47","","NaN","","","","","","","","","","","","","",""
"","response","","html-keyboard-response","314","297675","0.0-1.0-428.0-0.0","0","0","41522","","441","","","75","47","","","1","47","training","adjacent","AB","1","2","M.jpg","O.jpg","0","1","0","",""
"","feedback","","html-keyboard-response","315","298680","0.0-1.0-429.0-0.0","0","0","41522","","null","","","null","47","","","","","","","","","","","","","","","",""
"","time_out","","html-keyboard-response","316","300685","0.0-1.0-431.0-0.0","0","0","41522","","null","","","null","47","","","","","","","","","","","","","","","",""
"","ITI","","html-keyboard-response","317","301688","0.0-1.0-432.0","0","0","41522","","null","","","null","47","","","","","","","","","","","","","","","NaN",""
"","block_over","","html-keyboard-response","318","305596","0.0-1.0-433.0-0.0","0","0","41522","","3903","","","32","47","","","","","","","","","","","","","","","",""
"","S1","","html-keyboard-response","319","305853","0.0-1.0-434.0","0","0","41522","","null","","","null","48","","","","","","","","","","","","","","","",""
"","ISI","","html-keyboard-response","320","306007","0.0-1.0-435.0","0","0","41522","","null","","","null","48","NaN","","","","","","","","","","","","","","",""
"","S2","","html-keyboard-response","321","306260","0.0-1.0-436.0","0","0","41522","","null","","","null","48","","NaN","","","","","","","","","","","","","",""
"","response","","html-keyboard-response","322","306395","0.0-1.0-437.0-0.0","0","0","41522","","132","","","68","48","","","2","48","training","adjacent","CD","3","4","P.jpg","L.jpg","1","1","1","",""
"","feedback","","html-keyboard-response","323","307399","0.0-1.0-438.0-0.0","0","0","41522","","null","","","null","48","","","","","","","","","","","","","","","",""
"","ITI","","html-keyboard-response","324","308404","0.0-1.0-441.0","0","0","41522","","null","","","null","48","","","","","","","","","","","","","","","NaN",""
"","S1","","html-keyboard-response","325","308658","0.0-1.0-443.0","0","0","41522","","null","","","null","49","","","","","","","","","","","","","","","",""
"","ISI","","html-keyboard-response","326","308812","0.0-1.0-444.0","0","0","41522","","null","","","null","49","NaN","","","","","","","","","","","","","","",""
"","S2","","html-keyboard-response","327","309066","0.0-1.0-445.0","0","0","41522","","null","","","null","49","","NaN","","","","","","","","","","","","","",""
"","response","","html-keyboard-response","328","309387","0.0-1.0-446.0-0.0","0","0","41522","","319","","","68","49","","","2","49","training","adjacent","ED","5","4","Q.jpg","L.jpg","1","0","0","",""
"","feedback","","html-keyboard-response","329","310392","0.0-1.0-447.0-0.0","0","0","41522","","null","","","null","49","","","","","","","","","","","","","","","",""
"","time_out","","html-keyboard-response","330","312396","0.0-1.0-449.0-0.0","0","0","41522","","null","","","null","49","","","","","","","","","","","","","","","",""
"","ITI","","html-keyboard-response","331","313400","0.0-1.0-450.0","0","0","41522","","null","","","null","49","","","","","","","","","","","","","","","NaN",""
"","S1","","html-keyboard-response","332","313655","0.0-1.0-452.0","0","0","41522","","null","","","null","50","","","","","","","","","","","","","","","",""
"","ISI","","html-keyboard-response","333","313809","0.0-1.0-453.0","0","0","41522","","null","","","null","50","NaN","","","","","","","","","","","","","","",""
"","S2","","html-keyboard-response","334","314063","0.0-1.0-454.0","0","0","41522","","null","","","null","50","","NaN","","","","","","","","","","","","","",""
"","response","","html-keyboard-response","335","314219","0.0-1.0-455.0-0.0","0","0","41522","","153","","","68","50","","","2","50","training","adjacent","BA","2","1","O.jpg","M.jpg","1","0","0","",""
"","feedback","","html-keyboard-response","336","315224","0.0-1.0-456.0-0.0","0","0","41522","","null","","","null","50","","","","","","","","","","","","","","","",""
"","time_out","","html-keyboard-response","337","317229","0.0-1.0-458.0-0.0","0","0","41522","","null","","","null","50","","","","","","","","","","","","","","","",""
"","ITI","","html-keyboard-response","338","318233","0.0-1.0-459.0","0","0","41522","","null","","","null","50","","","","","","","","","","","","","","","NaN",""
"","S1","","html-keyboard-response","339","318487","0.0-1.0-461.0","0","0","41522","","null","","","null","51","","","","","","","","","","","","","","","",""
"","ISI","","html-keyboard-response","340","318641","0.0-1.0-462.0","0","0","41522","","null","","","null","51","NaN","","","","","","","","","","","","","","",""
"","S2","","html-keyboard-response","341","318895","0.0-1.0-463.0","0","0","41522","","null","","","null","51","","NaN","","","","","","","","","","","","","",""
"","response","","html-keyboard-response","342","319371","0.0-1.0-464.0-0.0","0","0","41522","","473","","","75","51","","","2","51","training","adjacent","FE","6","5","R.jpg","Q.jpg","0","0","1","",""
"","feedback","","html-keyboard-response","343","320376","0.0-1.0-465.0-0.0","0","0","41522","","null","","","null","51","","","","","","","","","","","","","","","",""
"","ITI","","html-keyboard-response","344","321380","0.0-1.0-468.0","0","0","41522","","null","","","null","51","","","","","","","","","","","","","","","NaN",""
"","S1","","html-keyboard-response","345","321634","0.0-1.0-470.0","0","0","41522","","null","","","null","52","","","","","","","","","","","","","","","",""
"","ISI","","html-keyboard-response","346","321788","0.0-1.0-471.0","0","0","41522","","null","","","null","52","NaN","","","","","","","","","","","","","","",""
"","S2","","html-keyboard-response","347","322042","0.0-1.0-472.0","0","0","41522","","null","","","null","52","","NaN","","","","","","","","","","","","","",""
"","response","","html-keyboard-response","348","322412","0.0-1.0-473.0-0.0","0","0","41522","","366","","","75","52","","","2","52","training","adjacent","CD","3","4","P.jpg","L.jpg","0","1","0","",""
"","feedback","","html-keyboard-response","349","323417","0.0-1.0-474.0-0.0","0","0","41522","","null","","","null","52","","","","","","","","","","","","","","","",""
"","time_out","","html-keyboard-response","350","325420","0.0-1.0-476.0-0.0","0","0","41522","","null","","","null","52","","","","","","","","","","","","","","","",""
"","ITI","","html-keyboard-response","351","326425","0.0-1.0-477.0","0","0","41522","","null","","","null","52","","","","","","","","","","","","","","","NaN",""
"","S1","","html-keyboard-response","352","326679","0.0-1.0-479.0","0","0","41522","","null","","","null","53","","","","","","","","","","","","","","","",""
"","ISI","","html-keyboard-response","353","326833","0.0-1.0-480.0","0","0","41522","","null","","","null","53","NaN","","","","","","","","","","","","","","",""
"","S2","","html-keyboard-response","354","327088","0.0-1.0-481.0","0","0","41522","","null","","","null","53","","NaN","","","","","","","","","","","","","",""
"","response","","html-keyboard-response","355","327404","0.0-1.0-482.0-0.0","0","0","41522","","313","","","68","53","","","2","53","training","adjacent","EF","5","6","Q.jpg","R.jpg","1","1","1","",""
"","feedback","","html-keyboard-response","356","328409","0.0-1.0-483.0-0.0","0","0","41522","","null","","","null","53","","","","","","","","","","","","","","","",""
"","ITI","","html-keyboard-response","357","329412","0.0-1.0-486.0","0","0","41522","","null","","","null","53","","","","","","","","","","","","","","","NaN",""
"","S1","","html-keyboard-response","358","329668","0.0-1.0-488.0","0","0","41522","","null","","","null","54","","","","","","","","","","","","","","","",""
"","ISI","","html-keyboard-response","359","329822","0.0-1.0-489.0","0","0","41522","","null","","","null","54","NaN","","","","","","","","","","","","","","",""
"","S2","","html-keyboard-response","360","330076","0.0-1.0-490.0","0","0","41522","","null","","","null","54","","NaN","","","","","","","","","","","","","",""
"","response","","html-keyboard-response","361","330443","0.0-1.0-491.0-0.0","0","0","41522","","364","","","68","54","","","2","54","training","adjacent","DC","4","3","L.jpg","P.jpg","1","0","0","",""
"","feedback","","html-keyboard-response","362","331449","0.0-1.0-492.0-0.0","0","0","41522","","null","","","null","54","","","","","","","","","","","","","","","",""
"","time_out","","html-keyboard-response","363","333453","0.0-1.0-494.0-0.0","0","0","41522","","null","","","null","54","","","","","","","","","","","","","","","",""
"","ITI","","html-keyboard-response","364","334457","0.0-1.0-495.0","0","0","41522","","null","","","null","54","","","","","","","","","","","","","","","NaN",""
"","S1","","html-keyboard-response","365","334711","0.0-1.0-497.0","0","0","41522","","null","","","null","55","","","","","","","","","","","","","","","",""
"","ISI","","html-keyboard-response","366","334864","0.0-1.0-498.0","0","0","41522","","null","","","null","55","NaN","","","","","","","","","","","","","","",""
"","S2","","html-keyboard-response","367","335120","0.0-1.0-499.0","0","0","41522","","null","","","null","55","","NaN","","","","","","","","","","","","","",""
"","response","","html-keyboard-response","368","335484","0.0-1.0-500.0-0.0","0","0","41522","","360","","","68","55","","","2","55","training","adjacent","DC","4","3","L.jpg","P.jpg","1","0","0","",""
"","feedback","","html-keyboard-response","369","336490","0.0-1.0-501.0-0.0","0","0","41522","","null","","","null","55","","","","","","","","","","","","","","","",""
"","time_out","","html-keyboard-response","370","338494","0.0-1.0-503.0-0.0","0","0","41522","","null","","","null","55","","","","","","","","","","","","","","","",""
"","ITI","","html-keyboard-response","371","339498","0.0-1.0-504.0","0","0","41522","","null","","","null","55","","","","","","","","","","","","","","","NaN",""
"","S1","","html-keyboard-response","372","339752","0.0-1.0-506.0","0","0","41522","","null","","","null","56","","","","","","","","","","","","","","","",""
"","ISI","","html-keyboard-response","373","339906","0.0-1.0-507.0","0","0","41522","","null","","","null","56","NaN","","","","","","","","","","","","","","",""
"","S2","","html-keyboard-response","374","340159","0.0-1.0-508.0","0","0","41522","","null","","","null","56","","NaN","","","","","","","","","","","","","",""
"","response","","html-keyboard-response","375","340508","0.0-1.0-509.0-0.0","0","0","41522","","344","","","75","56","","","2","56","training","adjacent","GF","7","6","N.jpg","R.jpg","0","0","1","",""
"","feedback","","html-keyboard-response","376","341512","0.0-1.0-510.0-0.0","0","0","41522","","null","","","null","56","","","","","","","","","","","","","","","",""
"","ITI","","html-keyboard-response","377","342516","0.0-1.0-513.0","0","0","41522","","null","","","null","56","","","","","","","","","","","","","","","NaN",""
"","S1","","html-keyboard-response","378","342770","0.0-1.0-515.0","0","0","41522","","null","","","null","57","","","","","","","","","","","","","","","",""
"","ISI","","html-keyboard-response","379","342924","0.0-1.0-516.0","0","0","41522","","null","","","null","57","NaN","","","","","","","","","","","","","","",""
"","S2","","html-keyboard-response","380","343179","0.0-1.0-517.0","0","0","41522","","null","","","null","57","","NaN","","","","","","","","","","","","","",""
"","response","","html-keyboard-response","381","343435","0.0-1.0-518.0-0.0","0","0","41522","","252","","","68","57","","","2","57","training","adjacent","FG","6","7","R.jpg","N.jpg","1","1","1","",""
"","feedback","","html-keyboard-response","382","344439","0.0-1.0-519.0-0.0","0","0","41522","","null","","","null","57","","","","","","","","","","","","","","","",""
"","ITI","","html-keyboard-response","383","345443","0.0-1.0-522.0","0","0","41522","","null","","","null","57","","","","","","","","","","","","","","","NaN",""
"","S1","","html-keyboard-response","384","345698","0.0-1.0-524.0","0","0","41522","","null","","","null","58","","","","","","","","","","","","","","","",""
"","ISI","","html-keyboard-response","385","345852","0.0-1.0-525.0","0","0","41522","","null","","","null","58","NaN","","","","","","","","","","","","","","",""
"","S2","","html-keyboard-response","386","346106","0.0-1.0-526.0","0","0","41522","","null","","","null","58","","NaN","","","","","","","","","","","","","",""
"","response","","html-keyboard-response","387","346109","0.0-1.0-527.0-0.0","0","0","41522","","0","","","68","58","","","2","58","training","adjacent","FG","6","7","R.jpg","N.jpg","1","1","1","",""
"","feedback","","html-keyboard-response","388","347113","0.0-1.0-528.0-0.0","0","0","41522","","null","","","null","58","","","","","","","","","","","","","","","",""
"","ITI","","html-keyboard-response","389","348119","0.0-1.0-531.0","0","0","41522","","null","","","null","58","","","","","","","","","","","","","","","NaN",""
"","S1","","html-keyboard-response","390","348373","0.0-1.0-533.0","0","0","41522","","null","","","null","59","","","","","","","","","","","","","","","",""
"","ISI","","html-keyboard-response","391","348526","0.0-1.0-534.0","0","0","41522","","null","","","null","59","NaN","","","","","","","","","","","","","","",""
"","S2","","html-keyboard-response","392","348781","0.0-1.0-535.0","0","0","41522","","null","","","null","59","","NaN","","","","","","","","","","","","","",""
"","response","","html-keyboard-response","393","349436","0.0-1.0-536.0-0.0","0","0","41522","","651","","","75","59","","","2","59","training","adjacent","CB","3","2","P.jpg","O.jpg","0","0","1","",""
"","feedback","","html-keyboard-response","394","350441","0.0-1.0-537.0-0.0","0","0","41522","","null","","","null","59","","","","","","","","","","","","","","","",""
"","ITI","","html-keyboard-response","395","351445","0.0-1.0-540.0","0","0","41522","","null","","","null","59","","","","","","","","","","","","","","","NaN",""
"","S1","","html-keyboard-response","396","351699","0.0-1.0-542.0","0","0","41522","","null","","","null","60","","","","","","","","","","","","","","","",""
"","ISI","","html-keyboard-response","397","351853","0.0-1.0-543.0","0","0","41522","","null","","","null","60","NaN","","","","","","","","","","","","","","",""
"","S2","","html-keyboard-response","398","352108","0.0-1.0-544.0","0","0","41522","","null","","","null","60","","NaN","","","","","","","","","","","","","",""
"","response","","html-keyboard-response","399","352460","0.0-1.0-545.0-0.0","0","0","41522","","348","","","75","60","","","2","60","training","adjacent","AB","1","2","M.jpg","O.jpg","0","1","0","",""
"","feedback","","html-keyboard-response","400","353465","0.0-1.0-546.0-0.0","0","0","41522","","null","","","null","60","","","","","","","","","","","","","","","",""
"","time_out","","html-keyboard-response","401","355470","0.0-1.0-548.0-0.0","0","0","41522","","null","","","null","60","","","","","","","","","","","","","","","",""
"","ITI","","html-keyboard-response","402","356473","0.0-1.0-549.0","0","0","41522","","null","","","null","60","","","","","","","","","","","","","","","NaN",""
"","S1","","html-keyboard-response","403","356727","0.0-1.0-551.0","0","0","41522","","null","","","null","61","","","","","","","","","","","","","","","",""
"","ISI","","html-keyboard-response","404","356881","0.0-1.0-552.0","0","0","41522","","null","","","null","61","NaN","","","","","","","","","","","","","","",""
"","S2","","html-keyboard-response","405","357137","0.0-1.0-553.0","0","0","41522","","null","","","null","61","","NaN","","","","","","","","","","","","","",""
"","response","","html-keyboard-response","406","357708","0.0-1.0-554.0-0.0","0","0","41522","","567","","","68","61","","","2","61","training","adjacent","DE","4","5","L.jpg","Q.jpg","1","1","1","",""
"","feedback","","html-keyboard-response","407","358712","0.0-1.0-555.0-0.0","0","0","41522","","null","","","null","61","","","","","","","","","","","","","","","",""
"","ITI","","html-keyboard-response","408","359717","0.0-1.0-558.0","0","0","41522","","null","","","null","61","","","","","","","","","","","","","","","NaN",""
"","S1","","html-keyboard-response","409","359972","0.0-1.0-560.0","0","0","41522","","null","","","null","62","","","","","","","","","","","","","","","",""
"","ISI","","html-keyboard-response","410","360126","0.0-1.0-561.0","0","0","41522","","null","","","null","62","NaN","","","","","","","","","","","","","","",""
"","S2","","html-keyboard-response","411","360380","0.0-1.0-562.0","0","0","41522","","null","","","null","62","","NaN","","","","","","","","","","","","","",""
"","response","","html-keyboard-response","412","360843","0.0-1.0-563.0-0.0","0","0","41522","","459","","","75","62","","","2","62","training","adjacent","GF","7","6","N.jpg","R.jpg","0","0","1","",""
"","feedback","","html-keyboard-response","413","361846","0.0-1.0-564.0-0.0","0","0","41522","","null","","","null","62","","","","","","","","","","","","","","","",""
"","ITI","","html-keyboard-response","414","362851","0.0-1.0-567.0","0","0","41522","","null","","","null","62","","","","","","","","","","","","","","","NaN",""
"","S1","","html-keyboard-response","415","363106","0.0-1.0-569.0","0","0","41522","","null","","","null","63","","","","","","","","","","","","","","","",""
"","ISI","","html-keyboard-response","416","363259","0.0-1.0-570.0","0","0","41522","","null","","","null","63","NaN","","","","","","","","","","","","","","",""
"","S2","","html-keyboard-response","417","363513","0.0-1.0-571.0","0","0","41522","","null","","","null","63","","NaN","","","","","","","","","","","","","",""
"","response","","html-keyboard-response","418","364235","0.0-1.0-572.0-0.0","0","0","41522","","718","","","75","63","","","2","63","training","adjacent","DC","4","3","L.jpg","P.jpg","0","0","1","",""
"","feedback","","html-keyboard-response","419","365239","0.0-1.0-573.0-0.0","0","0","41522","","null","","","null","63","","","","","","","","","","","","","","","",""
"","ITI","","html-keyboard-response","420","366243","0.0-1.0-576.0","0","0","41522","","null","","","null","63","","","","","","","","","","","","","","","NaN",""
"","S1","","html-keyboard-response","421","366497","0.0-1.0-578.0","0","0","41522","","null","","","null","64","","","","","","","","","","","","","","","",""
"","ISI","","html-keyboard-response","422","366650","0.0-1.0-579.0","0","0","41522","","null","","","null","64","NaN","","","","","","","","","","","","","","",""
"","S2","","html-keyboard-response","423","366905","0.0-1.0-580.0","0","0","41522","","null","","","null","64","","NaN","","","","","","","","","","","","","",""
"","response","","html-keyboard-response","424","367355","0.0-1.0-581.0-0.0","0","0","41522","","447","","","75","64","","","2","64","training","adjacent","ED","5","4","Q.jpg","L.jpg","0","0","1","",""
"","feedback","","html-keyboard-response","425","368359","0.0-1.0-582.0-0.0","0","0","41522","","null","","","null","64","","","","","","","","","","","","","","","",""
"","ITI","","html-keyboard-response","426","369363","0.0-1.0-585.0","0","0","41522","","null","","","null","64","","","","","","","","","","","","","","","NaN",""
"","S1","","html-keyboard-response","427","369618","0.0-1.0-587.0","0","0","41522","","null","","","null","65","","","","","","","","","","","","","","","",""
"","ISI","","html-keyboard-response","428","369771","0.0-1.0-588.0","0","0","41522","","null","","","null","65","NaN","","","","","","","","","","","","","","",""
"","S2","","html-keyboard-response","429","370025","0.0-1.0-589.0","0","0","41522","","null","","","null","65","","NaN","","","","","","","","","","","","","",""
"","response","","html-keyboard-response","430","370684","0.0-1.0-590.0-0.0","0","0","41522","","655","","","68","65","","","2","65","training","adjacent","AB","1","2","M.jpg","O.jpg","1","1","1","",""
"","feedback","","html-keyboard-response","431","371689","0.0-1.0-591.0-0.0","0","0","41522","","null","","","null","65","","","","","","","","","","","","","","","",""
"","ITI","","html-keyboard-response","432","372693","0.0-1.0-594.0","0","0","41522","","null","","","null","65","","","","","","","","","","","","","","","NaN",""
"","S1","","html-keyboard-response","433","372947","0.0-1.0-596.0","0","0","41522","","null","","","null","66","","","","","","","","","","","","","","","",""
"","ISI","","html-keyboard-response","434","373101","0.0-1.0-597.0","0","0","41522","","null","","","null","66","NaN","","","","","","","","","","","","","","",""
"","S2","","html-keyboard-response","435","373356","0.0-1.0-598.0","0","0","41522","","null","","","null","66","","NaN","","","","","","","","","","","","","",""
"","response","","html-keyboard-response","436","373851","0.0-1.0-599.0-0.0","0","0","41522","","492","","","75","66","","","2","66","training","adjacent","EF","5","6","Q.jpg","R.jpg","0","1","0","",""
"","feedback","","html-keyboard-response","437","374855","0.0-1.0-600.0-0.0","0","0","41522","","null","","","null","66","","","","","","","","","","","","","","","",""
"","time_out","","html-keyboard-response","438","376859","0.0-1.0-602.0-0.0","0","0","41522","","null","","","null","66","","","","","","","","","","","","","","","",""
"","ITI","","html-keyboard-response","439","377864","0.0-1.0-603.0","0","0","41522","","null","","","null","66","","","","","","","","","","","","","","","NaN",""
"","S1","","html-keyboard-response","440","378117","0.0-1.0-605.0","0","0","41522","","null","","","null","67","","","","","","","","","","","","","","","",""
"","ISI","","html-keyboard-response","441","378271","0.0-1.0-606.0","0","0","41522","","null","","","null","67","NaN","","","","","","","","","","","","","","",""
"","S2","","html-keyboard-response","442","378526","0.0-1.0-607.0","0","0","41522","","null","","","null","67","","NaN","","","","","","","","","","","","","",""
"","response","","html-keyboard-response","443","378715","0.0-1.0-608.0-0.0","0","0","41522","","185","","","68","67","","","2","67","training","adjacent","ED","5","4","Q.jpg","L.jpg","1","0","0","",""
"","feedback","","html-keyboard-response","444","379720","0.0-1.0-609.0-0.0","0","0","41522","","null","","","null","67","","","","","","","","","","","","","","","",""
"","time_out","","html-keyboard-response","445","381724","0.0-1.0-611.0-0.0","0","0","41522","","null","","","null","67","","","","","","","","","","","","","","","",""
"","ITI","","html-keyboard-response","446","382729","0.0-1.0-612.0","0","0","41522","","null","","","null","67","","","","","","","","","","","","","","","NaN",""
"","S1","","html-keyboard-response","447","382983","0.0-1.0-614.0","0","0","41522","","null","","","null","68","","","","","","","","","","","","","","","",""
"","ISI","","html-keyboard-response","448","383136","0.0-1.0-615.0","0","0","41522","","null","","","null","68","NaN","","","","","","","","","","","","","","",""
"","S2","","html-keyboard-response","449","383390","0.0-1.0-616.0","0","0","41522","","null","","","null","68","","NaN","","","","","","","","","","","","","",""
"","response","","html-keyboard-response","450","383995","0.0-1.0-617.0-0.0","0","0","41522","","602","","","68","68","","","2","68","training","adjacent","FE","6","5","R.jpg","Q.jpg","1","0","0","",""
"","feedback","","html-keyboard-response","451","385000","0.0-1.0-618.0-0.0","0","0","41522","","null","","","null","68","","","","","","","","","","","","","","","",""
"","time_out","","html-keyboard-response","452","387004","0.0-1.0-620.0-0.0","0","0","41522","","null","","","null","68","","","","","","","","","","","","","","","",""
"","ITI","","html-keyboard-response","453","388008","0.0-1.0-621.0","0","0","41522","","null","","","null","68","","","","","","","","","","","","","","","NaN",""
"","S1","","html-keyboard-response","454","388262","0.0-1.0-623.0","0","0","41522","","null","","","null","69","","","","","","","","","","","","","","","",""
"","ISI","","html-keyboard-response","455","388416","0.0-1.0-624.0","0","0","41522","","null","","","null","69","NaN","","","","","","","","","","","","","","",""
"","S2","","html-keyboard-response","456","388670","0.0-1.0-625.0","0","0","41522","","null","","","null","69","","NaN","","","","","","","","","","","","","",""
"","response","","html-keyboard-response","457","389034","0.0-1.0-626.0-0.0","0","0","41522","","361","","","75","69","","","2","69","training","adjacent","EF","5","6","Q.jpg","R.jpg","0","1","0","",""
"","feedback","","html-keyboard-response","458","390039","0.0-1.0-627.0-0.0","0","0","41522","","null","","","null","69","","","","","","","","","","","","","","","",""
"","time_out","","html-keyboard-response","459","392043","0.0-1.0-629.0-0.0","0","0","41522","","null","","","null","69","","","","","","","","","","","","","","","",""
"","ITI","","html-keyboard-response","460","393048","0.0-1.0-630.0","0","0","41522","","null","","","null","69","","","","","","","","","","","","","","","NaN",""
"","S1","","html-keyboard-response","461","393303","0.0-1.0-632.0","0","0","41522","","null","","","null","70","","","","","","","","","","","","","","","",""
"","ISI","","html-keyboard-response","462","393456","0.0-1.0-633.0","0","0","41522","","null","","","null","70","NaN","","","","","","","","","","","","","","",""
"","S2","","html-keyboard-response","463","393711","0.0-1.0-634.0","0","0","41522","","null","","","null","70","","NaN","","","","","","","","","","","","","",""
"","response","","html-keyboard-response","464","394284","0.0-1.0-635.0-0.0","0","0","41522","","569","","","75","70","","","2","70","training","adjacent","CB","3","2","P.jpg","O.jpg","0","0","1","",""
"","feedback","","html-keyboard-response","465","395288","0.0-1.0-636.0-0.0","0","0","41522","","null","","","null","70","","","","","","","","","","","","","","","",""
"","ITI","","html-keyboard-response","466","396293","0.0-1.0-639.0","0","0","41522","","null","","","null","70","","","","","","","","","","","","","","","NaN",""
"","S1","","html-keyboard-response","467","396547","0.0-1.0-641.0","0","0","41522","","null","","","null","71","","","","","","","","","","","","","","","",""
"","ISI","","html-keyboard-response","468","396700","0.0-1.0-642.0","0","0","41522","","null","","","null","71","NaN","","","","","","","","","","","","","","",""
"","S2","","html-keyboard-response","469","396955","0.0-1.0-643.0","0","0","41522","","null","","","null","71","","NaN","","","","","","","","","","","","","",""
"","response","","html-keyboard-response","470","397707","0.0-1.0-644.0-0.0","0","0","41522","","748","","","68","71","","","2","71","training","adjacent","DE","4","5","L.jpg","Q.jpg","1","1","1","",""
"","feedback","","html-keyboard-response","471","398712","0.0-1.0-645.0-0.0","0","0","41522","","null","","","null","71","","","","","","","","","","","","","","","",""
"","ITI","","html-keyboard-response","472","399716","0.0-1.0-648.0","0","0","41522","","null","","","null","71","","","","","","","","","","","","","","","NaN",""
"","S1","","html-keyboard-response","473","399970","0.0-1.0-650.0","0","0","41522","","null","","","null","72","","","","","","","","","","","","","","","",""
"","ISI","","html-keyboard-response","474","400124","0.0-1.0-651.0","0","0","41522","","null","","","null","72","NaN","","","","","","","","","","","","","","",""
"","S2","","html-keyboard-response","475","400378","0.0-1.0-652.0","0","0","41522","","null","","","null","72","","NaN","","","","","","","","","","","","","",""
"","response","","html-keyboard-response","476","400860","0.0-1.0-653.0-0.0","0","0","41522","","478","","","68","72","","","2","72","training","adjacent","DE","4","5","L.jpg","Q.jpg","1","1","1","",""
"","feedback","","html-keyboard-response","477","401865","0.0-1.0-654.0-0.0","0","0","41522","","null","","","null","72","","","","","","","","","","","","","","","",""
"","ITI","","html-keyboard-response","478","402869","0.0-1.0-657.0","0","0","41522","","null","","","null","72","","","","","","","","","","","","","","","NaN",""
"","S1","","html-keyboard-response","479","403123","0.0-1.0-659.0","0","0","41522","","null","","","null","73","","","","","","","","","","","","","","","",""
"","ISI","","html-keyboard-response","480","403277","0.0-1.0-660.0","0","0","41522","","null","","","null","73","NaN","","","","","","","","","","","","","","",""
"","S2","","html-keyboard-response","481","403532","0.0-1.0-661.0","0","0","41522","","null","","","null","73","","NaN","","","","","","","","","","","","","",""
"","response","","html-keyboard-response","482","404043","0.0-1.0-662.0-0.0","0","0","41522","","508","","","75","73","","","2","73","training","adjacent","GF","7","6","N.jpg","R.jpg","0","0","1","",""
"","feedback","","html-keyboard-response","483","405047","0.0-1.0-663.0-0.0","0","0","41522","","null","","","null","73","","","","","","","","","","","","","","","",""
"","ITI","","html-keyboard-response","484","406052","0.0-1.0-666.0","0","0","41522","","null","","","null","73","","","","","","","","","","","","","","","NaN",""
"","S1","","html-keyboard-response","485","406307","0.0-1.0-668.0","0","0","41522","","null","","","null","74","","","","","","","","","","","","","","","",""
"","ISI","","html-keyboard-response","486","406460","0.0-1.0-669.0","0","0","41522","","null","","","null","74","NaN","","","","","","","","","","","","","","",""
"","S2","","html-keyboard-response","487","406715","0.0-1.0-670.0","0","0","41522","","null","","","null","74","","NaN","","","","","","","","","","","","","",""
"","response","","html-keyboard-response","488","407116","0.0-1.0-671.0-0.0","0","0","41522","","397","","","75","74","","","2","74","training","adjacent","ED","5","4","Q.jpg","L.jpg","0","0","1","",""
"","feedback","","html-keyboard-response","489","408121","0.0-1.0-672.0-0.0","0","0","41522","","null","","","null","74","","","","","","","","","","","","","","","",""
"","ITI","","html-keyboard-response","490","409125","0.0-1.0-675.0","0","0","41522","","null","","","null","74","","","","","","","","","","","","","","","NaN",""
"","S1","","html-keyboard-response","491","409379","0.0-1.0-677.0","0","0","41522","","null","","","null","75","","","","","","","","","","","","","","","",""
"","ISI","","html-keyboard-response","492","409534","0.0-1.0-678.0","0","0","41522","","null","","","null","75","NaN","","","","","","","","","","","","","","",""
"","S2","","html-keyboard-response","493","409788","0.0-1.0-679.0","0","0","41522","","null","","","null","75","","NaN","","","","","","","","","","","","","",""
"","response","","html-keyboard-response","494","410011","0.0-1.0-680.0-0.0","0","0","41522","","220","","","68","75","","","2","75","training","adjacent","FE","6","5","R.jpg","Q.jpg","1","0","0","",""
"","feedback","","html-keyboard-response","495","411015","0.0-1.0-681.0-0.0","0","0","41522","","null","","","null","75","","","","","","","","","","","","","","","",""
"","time_out","","html-keyboard-response","496","413020","0.0-1.0-683.0-0.0","0","0","41522","","null","","","null","75","","","","","","","","","","","","","","","",""
"","ITI","","html-keyboard-response","497","414024","0.0-1.0-684.0","0","0","41522","","null","","","null","75","","","","","","","","","","","","","","","NaN",""
"","S1","","html-keyboard-response","498","414278","0.0-1.0-686.0","0","0","41522","","null","","","null","76","","","","","","","","","","","","","","","",""
"","ISI","","html-keyboard-response","499","414432","0.0-1.0-687.0","0","0","41522","","null","","","null","76","NaN","","","","","","","","","","","","","","",""
"","S2","","html-keyboard-response","500","414687","0.0-1.0-688.0","0","0","41522","","null","","","null","76","","NaN","","","","","","","","","","","","","",""
"","response","","html-keyboard-response","501","415114","0.0-1.0-689.0-0.0","0","0","41522","","424","","","68","76","","","2","76","training","adjacent","DE","4","5","L.jpg","Q.jpg","1","1","1","",""
"","feedback","","html-keyboard-response","502","416118","0.0-1.0-690.0-0.0","0","0","41522","","null","","","null","76","","","","","","","","","","","","","","","",""
"","ITI","","html-keyboard-response","503","417123","0.0-1.0-693.0","0","0","41522","","null","","","null","76","","","","","","","","","","","","","","","NaN",""
"","S1","","html-keyboard-response","504","417377","0.0-1.0-695.0","0","0","41522","","null","","","null","77","","","","","","","","","","","","","","","",""
"","ISI","","html-keyboard-response","505","417530","0.0-1.0-696.0","0","0","41522","","null","","","null","77","NaN","","","","","","","","","","","","","","",""
"","S2","","html-keyboard-response","506","417784","0.0-1.0-697.0","0","0","41522","","null","","","null","77","","NaN","","","","","","","","","","","","","",""
"","response","","html-keyboard-response","507","417964","0.0-1.0-698.0-0.0","0","0","41522","","176","","","68","77","","","2","77","training","adjacent","FE","6","5","R.jpg","Q.jpg","1","0","0","",""
"","feedback","","html-keyboard-response","508","418968","0.0-1.0-699.0-0.0","0","0","41522","","null","","","null","77","","","","","","","","","","","","","","","",""
"","time_out","","html-keyboard-response","509","420987","0.0-1.0-701.0-0.0","0","0","41522","","null","","","null","77","","","","","","","","","","","","","","","",""
"","ITI","","html-keyboard-response","510","421991","0.0-1.0-702.0","0","0","41522","","null","","","null","77","","","","","","","","","","","","","","","NaN",""
"","S1","","html-keyboard-response","511","422246","0.0-1.0-704.0","0","0","41522","","null","","","null","78","","","","","","","","","","","","","","","",""
"","ISI","","html-keyboard-response","512","422399","0.0-1.0-705.0","0","0","41522","","null","","","null","78","NaN","","","","","","","","","","","","","","",""
"","S2","","html-keyboard-response","513","422654","0.0-1.0-706.0","0","0","41522","","null","","","null","78","","NaN","","","","","","","","","","","","","",""
"","response","","html-keyboard-response","514","422924","0.0-1.0-707.0-0.0","0","0","41522","","266","","","68","78","","","2","78","training","adjacent","AB","1","2","M.jpg","O.jpg","1","1","1","",""
"","feedback","","html-keyboard-response","515","423929","0.0-1.0-708.0-0.0","0","0","41522","","null","","","null","78","","","","","","","","","","","","","","","",""
"","ITI","","html-keyboard-response","516","424943","0.0-1.0-711.0","0","0","41522","","null","","","null","78","","","","","","","","","","","","","","","NaN",""
"","S1","","html-keyboard-response","517","425198","0.0-1.0-713.0","0","0","41522","","null","","","null","79","","","","","","","","","","","","","","","",""
"","ISI","","html-keyboard-response","518","425352","0.0-1.0-714.0","0","0","41522","","null","","","null","79","NaN","","","","","","","","","","","","","","",""
"","S2","","html-keyboard-response","519","425607","0.0-1.0-715.0","0","0","41522","","null","","","null","79","","NaN","","","","","","","","","","","","","",""
"","response","","html-keyboard-response","520","425899","0.0-1.0-716.0-0.0","0","0","41522","","288","","","75","79","","","2","79","training","adjacent","GF","7","6","N.jpg","R.jpg","0","0","1","",""
"","feedback","","html-keyboard-response","521","426903","0.0-1.0-717.0-0.0","0","0","41522","","null","","","null","79","","","","","","","","","","","","","","","",""
"","ITI","","html-keyboard-response","522","427907","0.0-1.0-720.0","0","0","41522","","null","","","null","79","","","","","","","","","","","","","","","NaN",""
"","S1","","html-keyboard-response","523","428163","0.0-1.0-722.0","0","0","41522","","null","","","null","80","","","","","","","","","","","","","","","",""
"","ISI","","html-keyboard-response","524","428317","0.0-1.0-723.0","0","0","41522","","null","","","null","80","NaN","","","","","","","","","","","","","","",""
"","S2","","html-keyboard-response","525","428571","0.0-1.0-724.0","0","0","41522","","null","","","null","80","","NaN","","","","","","","","","","","","","",""
"","response","","html-keyboard-response","526","428940","0.0-1.0-725.0-0.0","0","0","41522","","366","","","75","80","","","2","80","training","adjacent","CB","3","2","P.jpg","O.jpg","0","0","1","",""
"","feedback","","html-keyboard-response","527","429945","0.0-1.0-726.0-0.0","0","0","41522","","null","","","null","80","","","","","","","","","","","","","","","",""
"","ITI","","html-keyboard-response","528","430950","0.0-1.0-729.0","0","0","41522","","null","","","null","80","","","","","","","","","","","","","","","NaN",""
"","S1","","html-keyboard-response","529","431204","0.0-1.0-731.0","0","0","41522","","null","","","null","81","","","","","","","","","","","","","","","",""
"","ISI","","html-keyboard-response","530","431359","0.0-1.0-732.0","0","0","41522","","null","","","null","81","NaN","","","","","","","","","","","","","","",""
"","S2","","html-keyboard-response","531","431613","0.0-1.0-733.0","0","0","41522","","null","","","null","81","","NaN","","","","","","","","","","","","","",""
"","response","","html-keyboard-response","532","431852","0.0-1.0-734.0-0.0","0","0","41522","","234","","","68","81","","","2","81","training","adjacent","FG","6","7","R.jpg","N.jpg","1","1","1","",""
"","feedback","","html-keyboard-response","533","432857","0.0-1.0-735.0-0.0","0","0","41522","","null","","","null","81","","","","","","","","","","","","","","","",""
"","ITI","","html-keyboard-response","534","433864","0.0-1.0-738.0","0","0","41522","","null","","","null","81","","","","","","","","","","","","","","","NaN",""
"","S1","","html-keyboard-response","535","434119","0.0-1.0-740.0","0","0","41522","","null","","","null","82","","","","","","","","","","","","","","","",""
"","ISI","","html-keyboard-response","536","434273","0.0-1.0-741.0","0","0","41522","","null","","","null","82","NaN","","","","","","","","","","","","","","",""
"","S2","","html-keyboard-response","537","434529","0.0-1.0-742.0","0","0","41522","","null","","","null","82","","NaN","","","","","","","","","","","","","",""
"","response","","html-keyboard-response","538","435020","0.0-1.0-743.0-0.0","0","0","41522","","487","","","68","82","","","2","82","training","adjacent","BC","2","3","O.jpg","P.jpg","1","1","1","",""
"","feedback","","html-keyboard-response","539","436025","0.0-1.0-744.0-0.0","0","0","41522","","null","","","null","82","","","","","","","","","","","","","","","",""
"","ITI","","html-keyboard-response","540","437029","0.0-1.0-747.0","0","0","41522","","null","","","null","82","","","","","","","","","","","","","","","NaN",""
"","S1","","html-keyboard-response","541","437284","0.0-1.0-749.0","0","0","41522","","null","","","null","83","","","","","","","","","","","","","","","",""
"","ISI","","html-keyboard-response","542","437438","0.0-1.0-750.0","0","0","41522","","null","","","null","83","NaN","","","","","","","","","","","","","","",""
"","S2","","html-keyboard-response","543","437693","0.0-1.0-751.0","0","0","41522","","null","","","null","83","","NaN","","","","","","","","","","","","","",""
"","response","","html-keyboard-response","544","437835","0.0-1.0-752.0-0.0","0","0","41522","","139","","","68","83","","","2","83","training","adjacent","FG","6","7","R.jpg","N.jpg","1","1","1","",""
"","feedback","","html-keyboard-response","545","438840","0.0-1.0-753.0-0.0","0","0","41522","","null","","","null","83","","","","","","","","","","","","","","","",""
"","ITI","","html-keyboard-response","546","439845","0.0-1.0-756.0","0","0","41522","","null","","","null","83","","","","","","","","","","","","","","","NaN",""
"","S1","","html-keyboard-response","547","440099","0.0-1.0-758.0","0","0","41522","","null","","","null","84","","","","","","","","","","","","","","","",""
"","ISI","","html-keyboard-response","548","440253","0.0-1.0-759.0","0","0","41522","","null","","","null","84","NaN","","","","","","","","","","","","","","",""
"","S2","","html-keyboard-response","549","440507","0.0-1.0-760.0","0","0","41522","","null","","","null","84","","NaN","","","","","","","","","","","","","",""
"","response","","html-keyboard-response","550","440619","0.0-1.0-761.0-0.0","0","0","41522","","109","","","68","84","","","2","84","training","adjacent","BA","2","1","O.jpg","M.jpg","1","0","0","",""
"","feedback","","html-keyboard-response","551","441624","0.0-1.0-762.0-0.0","0","0","41522","","null","","","null","84","","","","","","","","","","","","","","","",""
"","time_out","","html-keyboard-response","552","443628","0.0-1.0-764.0-0.0","0","0","41522","","null","","","null","84","","","","","","","","","","","","","","","",""
"","ITI","","html-keyboard-response","553","444632","0.0-1.0-765.0","0","0","41522","","null","","","null","84","","","","","","","","","","","","","","","NaN",""
"","S1","","html-keyboard-response","554","444885","0.0-1.0-767.0","0","0","41522","","null","","","null","85","","","","","","","","","","","","","","","",""
"","ISI","","html-keyboard-response","555","445038","0.0-1.0-768.0","0","0","41522","","null","","","null","85","NaN","","","","","","","","","","","","","","",""
"","S2","","html-keyboard-response","556","445293","0.0-1.0-769.0","0","0","41522","","null","","","null","85","","NaN","","","","","","","","","","","","","",""
"","response","","html-keyboard-response","557","445436","0.0-1.0-770.0-0.0","0","0","41522","","139","","","68","85","","","2","85","training","adjacent","BA","2","1","O.jpg","M.jpg","1","0","0","",""
"","feedback","","html-keyboard-response","558","446440","0.0-1.0-771.0-0.0","0","0","41522","","null","","","null","85","","","","","","","","","","","","","","","",""
"","time_out","","html-keyboard-response","559","448444","0.0-1.0-773.0-0.0","0","0","41522","","null","","","null","85","","","","","","","","","","","","","","","",""
"","ITI","","html-keyboard-response","560","449448","0.0-1.0-774.0","0","0","41522","","null","","","null","85","","","","","","","","","","","","","","","NaN",""
"","S1","","html-keyboard-response","561","449701","0.0-1.0-776.0","0","0","41522","","null","","","null","86","","","","","","","","","","","","","","","",""
"","ISI","","html-keyboard-response","562","449855","0.0-1.0-777.0","0","0","41522","","null","","","null","86","NaN","","","","","","","","","","","","","","",""
"","S2","","html-keyboard-response","563","450109","0.0-1.0-778.0","0","0","41522","","null","","","null","86","","NaN","","","","","","","","","","","","","",""
"","response","","html-keyboard-response","564","450315","0.0-1.0-779.0-0.0","0","0","41522","","204","","","75","86","","","2","86","training","adjacent","CB","3","2","P.jpg","O.jpg","0","0","1","",""
"","feedback","","html-keyboard-response","565","451321","0.0-1.0-780.0-0.0","0","0","41522","","null","","","null","86","","","","","","","","","","","","","","","",""
"","ITI","","html-keyboard-response","566","452325","0.0-1.0-783.0","0","0","41522","","null","","","null","86","","","","","","","","","","","","","","","NaN",""
"","S1","","html-keyboard-response","567","452579","0.0-1.0-785.0","0","0","41522","","null","","","null","87","","","","","","","","","","","","","","","",""
"","ISI","","html-keyboard-response","568","452733","0.0-1.0-786.0","0","0","41522","","null","","","null","87","NaN","","","","","","","","","","","","","","",""
"","S2","","html-keyboard-response","569","452987","0.0-1.0-787.0","0","0","41522","","null","","","null","87","","NaN","","","","","","","","","","","","","",""
"","response","","html-keyboard-response","570","453148","0.0-1.0-788.0-0.0","0","0","41522","","157","","","68","87","","","2","87","training","adjacent","BC","2","3","O.jpg","P.jpg","1","1","1","",""
"","feedback","","html-keyboard-response","571","454152","0.0-1.0-789.0-0.0","0","0","41522","","null","","","null","87","","","","","","","","","","","","","","","",""
"","ITI","","html-keyboard-response","572","455157","0.0-1.0-792.0","0","0","41522","","null","","","null","87","","","","","","","","","","","","","","","NaN",""
"","S1","","html-keyboard-response","573","455411","0.0-1.0-794.0","0","0","41522","","null","","","null","88","","","","","","","","","","","","","","","",""
"","ISI","","html-keyboard-response","574","455565","0.0-1.0-795.0","0","0","41522","","null","","","null","88","NaN","","","","","","","","","","","","","","",""
"","S2","","html-keyboard-response","575","455821","0.0-1.0-796.0","0","0","41522","","null","","","null","88","","NaN","","","","","","","","","","","","","",""
"","response","","html-keyboard-response","576","456172","0.0-1.0-797.0-0.0","0","0","41522","","347","","","68","88","","","2","88","training","adjacent","CD","3","4","P.jpg","L.jpg","1","1","1","",""
"","feedback","","html-keyboard-response","577","457177","0.0-1.0-798.0-0.0","0","0","41522","","null","","","null","88","","","","","","","","","","","","","","","",""
"","ITI","","html-keyboard-response","578","458180","0.0-1.0-801.0","0","0","41522","","null","","","null","88","","","","","","","","","","","","","","","NaN",""
"","S1","","html-keyboard-response","579","458436","0.0-1.0-803.0","0","0","41522","","null","","","null","89","","","","","","","","","","","","","","","",""
"","ISI","","html-keyboard-response","580","458590","0.0-1.0-804.0","0","0","41522","","null","","","null","89","NaN","","","","","","","","","","","","","","",""
"","S2","","html-keyboard-response","581","458844","0.0-1.0-805.0","0","0","41522","","null","","","null","89","","NaN","","","","","","","","","","","","","",""
"","response","","html-keyboard-response","582","459164","0.0-1.0-806.0-0.0","0","0","41522","","316","","","75","89","","","2","89","training","adjacent","EF","5","6","Q.jpg","R.jpg","0","1","0","",""
