"success","ttype","start_time","trial_type","trial_index","time_elapsed","internal_node_id","warning","missed_checkup","PID","view_history","rt","responses","repeat_instructions","key_press","index","keypress_isi","keypress_S2","block","trial_num","phase","group_type","pair_type","S1_stim","S2_stim","S1_img","S2_img","S1_chosen","S1_higher","accuracy","keypress_iti","total_bonus_tally"
"true","full_screen","d03032023hr1941","fullscreen","0","11438","0.0-0.0","0","0","73803","","","","","","","","","","","","","","","","","","","","","",""
"","instructions","","instructions","1","72382","0.0-1.0-0.0-0.0","0","0","73803","[{""page_index"":0,""viewing_time"":17464},{""page_index"":1,""viewing_time"":16987},{""page_index"":2,""viewing_time"":14304},{""page_index"":1,""viewing_time"":8196},{""page_index"":2,""viewing_time"":2165},{""page_index"":3,""viewing_time"":1821}]","60939","","","","","","","","","","","","","","","","","","","",""
"","comprehension_check","","survey-multi-choice","2","105657","0.0-1.0-0.0-1.0","0","0","73803","","33264","{""Q0"":""True"",""Q1"":""K"",""Q2"":""Only when the screen 'MAKE A CHOICE' is shown"",""Q3"":""Green mark"",""Q4"":""either D or K""}","1","","","","","","","","","","","","","","","","","",""
"","missed_instruction_checkup","","html-keyboard-response","3","109109","0.0-1.0-0.0-2.0-0.0","0","1","73803","","3444","","","32","","","","","","","","","","","","","","","","",""
"","instructions","","instructions","4","133888","0.0-1.0-0.1-0.1","0","0","73803","[{""page_index"":0,""viewing_time"":2277},{""page_index"":1,""viewing_time"":18941},{""page_index"":2,""viewing_time"":2826},{""page_index"":3,""viewing_time"":728}]","24774","","","","","","","","","","","","","","","","","","","",""
"","comprehension_check","","survey-multi-choice","5","155669","0.0-1.0-0.1-1.1","0","0","73803","","21764","{""Q0"":""True"",""Q1"":""K"",""Q2"":""Once the second image appears and while the screen 'MAKE A CHOICE' is shown"",""Q3"":""Green mark"",""Q4"":""either D or K""}","0","","","","","","","","","","","","","","","","","",""
"","start_exp","","html-keyboard-response","6","158172","0.0-1.0-1.0","0","0","73803","","2497","","","32","","","","","","","","","","","","","","","","",""
"","S1","","html-keyboard-response","7","158430","0.0-1.0-2.0","0","0","73803","","null","","","null","0","","","","","","","","","","","","","","","",""
"","ISI","","html-keyboard-response","8","158942","0.0-1.0-3.0","0","0","73803","","null","","","null","0","NaN","","","","","","","","","","","","","","",""
"","S2","","html-keyboard-response","9","159206","0.0-1.0-4.0","0","0","73803","","null","","","null","0","","NaN","","","","","","","","","","","","","",""
"","response","","html-keyboard-response","10","160007","0.0-1.0-5.0-0.0","0","0","73803","","796","","","75","0","","","1","0","training","adjacent","EF","5","6","M.jpg","O.jpg","1","1","1","",""
"","feedback","","html-keyboard-response","11","161013","0.0-1.0-6.0-0.0","0","0","73803","","null","","","null","0","","","","","","","","","","","","","","","",""
"","ITI","","html-keyboard-response","12","162022","0.0-1.0-9.0","0","0","73803","","null","","","null","0","","","","","","","","","","","","","","","NaN",""
"","S1","","html-keyboard-response","13","162286","0.0-1.0-11.0","0","0","73803","","null","","","null","1","","","","","","","","","","","","","","","",""
"","ISI","","html-keyboard-response","14","162798","0.0-1.0-12.0","0","0","73803","","null","","","null","1","NaN","","","","","","","","","","","","","","",""
"","S2","","html-keyboard-response","15","163062","0.0-1.0-13.0","0","0","73803","","null","","","null","1","","NaN","","","","","","","","","","","","","",""
"","response","","html-keyboard-response","16","163558","0.0-1.0-14.0-0.0","0","0","73803","","491","","","68","1","","","1","1","training","adjacent","BC","2","3","R.jpg","P.jpg","0","1","0","",""
"","feedback","","html-keyboard-response","17","164565","0.0-1.0-15.0-0.0","0","0","73803","","null","","","null","1","","","","","","","","","","","","","","","",""
"","time_out","","html-keyboard-response","18","166573","0.0-1.0-17.0-0.0","0","0","73803","","null","","","null","1","","","","","","","","","","","","","","","",""
"","ITI","","html-keyboard-response","19","167581","0.0-1.0-18.0","0","0","73803","","861","","","32","1","","","","","","","","","","","","","","","space",""
"","S1","","html-keyboard-response","20","167846","0.0-1.0-20.0","0","0","73803","","null","","","null","2","","","","","","","","","","","","","","","",""
"","ISI","","html-keyboard-response","21","168358","0.0-1.0-21.0","0","0","73803","","null","","","null","2","NaN","","","","","","","","","","","","","","",""
"","S2","","html-keyboard-response","22","168622","0.0-1.0-22.0","0","0","73803","","null","","","null","2","","NaN","","","","","","","","","","","","","",""
"","response","","html-keyboard-response","23","169028","0.0-1.0-23.0-0.0","0","0","73803","","400","","","75","2","","","1","2","training","adjacent","FG","6","7","O.jpg","Q.jpg","1","1","1","",""
"","feedback","","html-keyboard-response","24","170038","0.0-1.0-24.0-0.0","0","0","73803","","null","","","null","2","","","","","","","","","","","","","","","",""
"","ITI","","html-keyboard-response","25","171046","0.0-1.0-27.0","0","0","73803","","null","","","null","2","","","","","","","","","","","","","","","NaN",""
"","S1","","html-keyboard-response","26","171302","0.0-1.0-29.0","0","0","73803","","null","","","null","3","","","","","","","","","","","","","","","",""
"","ISI","","html-keyboard-response","27","171813","0.0-1.0-30.0","0","0","73803","","null","","","null","3","NaN","","","","","","","","","","","","","","",""
"","S2","","html-keyboard-response","28","172069","0.0-1.0-31.0","0","0","73803","","null","","","null","3","","NaN","","","","","","","","","","","","","",""
"","response","","html-keyboard-response","29","172448","0.0-1.0-32.0-0.0","0","0","73803","","373","","","75","3","","","1","3","training","adjacent","EF","5","6","M.jpg","O.jpg","1","1","1","",""
"","feedback","","html-keyboard-response","30","173461","0.0-1.0-33.0-0.0","0","0","73803","","null","","","null","3","","","","","","","","","","","","","","","",""
"","ITI","","html-keyboard-response","31","174470","0.0-1.0-36.0","0","0","73803","","null","","","null","3","","","","","","","","","","","","","","","NaN",""
"","S1","","html-keyboard-response","32","174734","0.0-1.0-38.0","0","0","73803","","null","","","null","4","","","","","","","","","","","","","","","",""
"","ISI","","html-keyboard-response","33","175245","0.0-1.0-39.0","0","0","73803","","null","","","null","4","NaN","","","","","","","","","","","","","","",""
"","S2","","html-keyboard-response","34","175502","0.0-1.0-40.0","0","0","73803","","null","","","null","4","","NaN","","","","","","","","","","","","","",""
"","response","","html-keyboard-response","35","175821","0.0-1.0-41.0-0.0","0","0","73803","","313","","","75","4","","","1","4","training","adjacent","EF","5","6","M.jpg","O.jpg","1","1","1","",""
"","feedback","","html-keyboard-response","36","176830","0.0-1.0-42.0-0.0","0","0","73803","","null","","","null","4","","","","","","","","","","","","","","","",""
"","ITI","","html-keyboard-response","37","177838","0.0-1.0-45.0","0","0","73803","","null","","","null","4","","","","","","","","","","","","","","","NaN",""
"","S1","","html-keyboard-response","38","178093","0.0-1.0-47.0","0","0","73803","","null","","","null","5","","","","","","","","","","","","","","","",""
"","ISI","","html-keyboard-response","39","178606","0.0-1.0-48.0","0","0","73803","","null","","","null","5","NaN","","","","","","","","","","","","","","",""
"","S2","","html-keyboard-response","40","178870","0.0-1.0-49.0","0","0","73803","","null","","","null","5","","NaN","","","","","","","","","","","","","",""
"","response","","html-keyboard-response","41","179257","0.0-1.0-50.0-0.0","0","0","73803","","382","","","75","5","","","1","5","training","adjacent","DE","4","5","N.jpg","M.jpg","1","1","1","",""
"","feedback","","html-keyboard-response","42","180270","0.0-1.0-51.0-0.0","0","0","73803","","null","","","null","5","","","","","","","","","","","","","","","",""
"","ITI","","html-keyboard-response","43","181278","0.0-1.0-54.0","0","0","73803","","null","","","null","5","","","","","","","","","","","","","","","NaN",""
"","S1","","html-keyboard-response","44","181541","0.0-1.0-56.0","0","0","73803","","null","","","null","6","","","","","","","","","","","","","","","",""
"","ISI","","html-keyboard-response","45","182053","0.0-1.0-57.0","0","0","73803","","null","","","null","6","NaN","","","","","","","","","","","","","","",""
"","S2","","html-keyboard-response","46","182318","0.0-1.0-58.0","0","0","73803","","null","","","null","6","","NaN","","","","","","","","","","","","","",""
"","response","","html-keyboard-response","47","182603","0.0-1.0-59.0-0.0","0","0","73803","","280","","","75","6","","","1","6","training","adjacent","ED","5","4","M.jpg","N.jpg","1","0","0","",""
"","feedback","","html-keyboard-response","48","183613","0.0-1.0-60.0-0.0","0","0","73803","","null","","","null","6","","","","","","","","","","","","","","","",""
"","time_out","","html-keyboard-response","49","185621","0.0-1.0-62.0-0.0","0","0","73803","","null","","","null","6","","","","","","","","","","","","","","","",""
"","ITI","","html-keyboard-response","50","186630","0.0-1.0-63.0","0","0","73803","","null","","","null","6","","","","","","","","","","","","","","","NaN",""
"","S1","","html-keyboard-response","51","186893","0.0-1.0-65.0","0","0","73803","","null","","","null","7","","","","","","","","","","","","","","","",""
"","ISI","","html-keyboard-response","52","187406","0.0-1.0-66.0","0","0","73803","","null","","","null","7","NaN","","","","","","","","","","","","","","",""
"","S2","","html-keyboard-response","53","187670","0.0-1.0-67.0","0","0","73803","","null","","","null","7","","NaN","","","","","","","","","","","","","",""
"","response","","html-keyboard-response","54","188137","0.0-1.0-68.0-0.0","0","0","73803","","461","","","75","7","","","1","7","training","adjacent","BA","2","1","R.jpg","L.jpg","1","0","0","",""
"","feedback","","html-keyboard-response","55","189150","0.0-1.0-69.0-0.0","0","0","73803","","null","","","null","7","","","","","","","","","","","","","","","",""
"","time_out","","html-keyboard-response","56","191157","0.0-1.0-71.0-0.0","0","0","73803","","null","","","null","7","","","","","","","","","","","","","","","",""
"","ITI","","html-keyboard-response","57","192165","0.0-1.0-72.0","0","0","73803","","null","","","null","7","","","","","","","","","","","","","","","NaN",""
"","S1","","html-keyboard-response","58","192421","0.0-1.0-74.0","0","0","73803","","null","","","null","8","","","","","","","","","","","","","","","",""
"","ISI","","html-keyboard-response","59","192934","0.0-1.0-75.0","0","0","73803","","null","","","null","8","NaN","","","","","","","","","","","","","","",""
"","S2","","html-keyboard-response","60","193198","0.0-1.0-76.0","0","0","73803","","null","","","null","8","","NaN","","","","","","","","","","","","","",""
"","response","","html-keyboard-response","61","193434","0.0-1.0-77.0-0.0","0","0","73803","","231","","","68","8","","","1","8","training","adjacent","ED","5","4","M.jpg","N.jpg","0","0","1","",""
"","feedback","","html-keyboard-response","62","194445","0.0-1.0-78.0-0.0","0","0","73803","","null","","","null","8","","","","","","","","","","","","","","","",""
"","ITI","","html-keyboard-response","63","195454","0.0-1.0-81.0","0","0","73803","","null","","","null","8","","","","","","","","","","","","","","","NaN",""
"","S1","","html-keyboard-response","64","195717","0.0-1.0-83.0","0","0","73803","","null","","","null","9","","","","","","","","","","","","","","","",""
"","ISI","","html-keyboard-response","65","196229","0.0-1.0-84.0","0","0","73803","","null","","","null","9","NaN","","","","","","","","","","","","","","",""
"","S2","","html-keyboard-response","66","196494","0.0-1.0-85.0","0","0","73803","","null","","","null","9","","NaN","","","","","","","","","","","","","",""
"","response","","html-keyboard-response","67","196802","0.0-1.0-86.0-0.0","0","0","73803","","303","","","75","9","","","1","9","training","adjacent","DC","4","3","N.jpg","P.jpg","1","0","0","",""
"","feedback","","html-keyboard-response","68","197813","0.0-1.0-87.0-0.0","0","0","73803","","null","","","null","9","","","","","","","","","","","","","","","",""
"","time_out","","html-keyboard-response","69","199822","0.0-1.0-89.0-0.0","0","0","73803","","null","","","null","9","","","","","","","","","","","","","","","",""
"","ITI","","html-keyboard-response","70","200829","0.0-1.0-90.0","0","0","73803","","null","","","null","9","","","","","","","","","","","","","","","NaN",""
"","S1","","html-keyboard-response","71","201086","0.0-1.0-92.0","0","0","73803","","null","","","null","10","","","","","","","","","","","","","","","",""
"","ISI","","html-keyboard-response","72","201598","0.0-1.0-93.0","0","0","73803","","null","","","null","10","NaN","","","","","","","","","","","","","","",""
"","S2","","html-keyboard-response","73","201862","0.0-1.0-94.0","0","0","73803","","null","","","null","10","","NaN","","","","","","","","","","","","","",""
"","response","","html-keyboard-response","74","202376","0.0-1.0-95.0-0.0","0","0","73803","","508","","","75","10","","","1","10","training","adjacent","AB","1","2","L.jpg","R.jpg","1","1","1","",""
"","feedback","","html-keyboard-response","75","203390","0.0-1.0-96.0-0.0","0","0","73803","","null","","","null","10","","","","","","","","","","","","","","","",""
"","ITI","","html-keyboard-response","76","204398","0.0-1.0-99.0","0","0","73803","","null","","","null","10","","","","","","","","","","","","","","","NaN",""
"","S1","","html-keyboard-response","77","204662","0.0-1.0-101.0","0","0","73803","","null","","","null","11","","","","","","","","","","","","","","","",""
"","ISI","","html-keyboard-response","78","205173","0.0-1.0-102.0","0","0","73803","","null","","","null","11","NaN","","","","","","","","","","","","","","",""
"","S2","","html-keyboard-response","79","205438","0.0-1.0-103.0","0","0","73803","","null","","","null","11","","NaN","","","","","","","","","","","","","",""
"","response","","html-keyboard-response","80","206007","0.0-1.0-104.0-0.0","0","0","73803","","564","","","68","11","","","1","11","training","adjacent","GF","7","6","Q.jpg","O.jpg","0","0","1","",""
"","feedback","","html-keyboard-response","81","207013","0.0-1.0-105.0-0.0","0","0","73803","","null","","","null","11","","","","","","","","","","","","","","","",""
"","ITI","","html-keyboard-response","82","208021","0.0-1.0-108.0","0","0","73803","","null","","","null","11","","","","","","","","","","","","","","","NaN",""
"","S1","","html-keyboard-response","83","208277","0.0-1.0-110.0","0","0","73803","","null","","","null","12","","","","","","","","","","","","","","","",""
"","ISI","","html-keyboard-response","84","208789","0.0-1.0-111.0","0","0","73803","","null","","","null","12","NaN","","","","","","","","","","","","","","",""
"","S2","","html-keyboard-response","85","209045","0.0-1.0-112.0","0","0","73803","","null","","","null","12","","NaN","","","","","","","","","","","","","",""
"","response","","html-keyboard-response","86","209676","0.0-1.0-113.0-0.0","0","0","73803","","626","","","75","12","","","1","12","training","adjacent","ED","5","4","M.jpg","N.jpg","1","0","0","",""
"","feedback","","html-keyboard-response","87","210686","0.0-1.0-114.0-0.0","0","0","73803","","null","","","null","12","","","","","","","","","","","","","","","",""
"","time_out","","html-keyboard-response","88","212693","0.0-1.0-116.0-0.0","0","0","73803","","null","","","null","12","","","","","","","","","","","","","","","",""
"","ITI","","html-keyboard-response","89","213701","0.0-1.0-117.0","0","0","73803","","null","","","null","12","","","","","","","","","","","","","","","NaN",""
"","S1","","html-keyboard-response","90","213957","0.0-1.0-119.0","0","0","73803","","null","","","null","13","","","","","","","","","","","","","","","",""
"","ISI","","html-keyboard-response","91","214469","0.0-1.0-120.0","0","0","73803","","null","","","null","13","NaN","","","","","","","","","","","","","","",""
"","S2","","html-keyboard-response","92","214724","0.0-1.0-121.0","0","0","73803","","null","","","null","13","","NaN","","","","","","","","","","","","","",""
"","response","","html-keyboard-response","93","215300","0.0-1.0-122.0-0.0","0","0","73803","","571","","","68","13","","","1","13","training","adjacent","FG","6","7","O.jpg","Q.jpg","0","1","0","",""
"","feedback","","html-keyboard-response","94","216309","0.0-1.0-123.0-0.0","0","0","73803","","null","","","null","13","","","","","","","","","","","","","","","",""
"","time_out","","html-keyboard-response","95","218317","0.0-1.0-125.0-0.0","0","0","73803","","null","","","null","13","","","","","","","","","","","","","","","",""
"","ITI","","html-keyboard-response","96","219325","0.0-1.0-126.0","0","0","73803","","null","","","null","13","","","","","","","","","","","","","","","NaN",""
"","S1","","html-keyboard-response","97","219581","0.0-1.0-128.0","0","0","73803","","null","","","null","14","","","","","","","","","","","","","","","",""
"","ISI","","html-keyboard-response","98","220093","0.0-1.0-129.0","0","0","73803","","null","","","null","14","NaN","","","","","","","","","","","","","","",""
"","S2","","html-keyboard-response","99","220349","0.0-1.0-130.0","0","0","73803","","null","","","null","14","","NaN","","","","","","","","","","","","","",""
"","response","","html-keyboard-response","100","220420","0.0-1.0-131.0-0.0","0","0","73803","","66","","","75","14","","","1","14","training","adjacent","GF","7","6","Q.jpg","O.jpg","1","0","0","",""
"","feedback","","html-keyboard-response","101","221429","0.0-1.0-132.0-0.0","0","0","73803","","null","","","null","14","","","","","","","","","","","","","","","",""
"","time_out","","html-keyboard-response","102","223437","0.0-1.0-134.0-0.0","0","0","73803","","null","","","null","14","","","","","","","","","","","","","","","",""
"","ITI","","html-keyboard-response","103","224445","0.0-1.0-135.0","0","0","73803","","null","","","null","14","","","","","","","","","","","","","","","NaN",""
"","S1","","html-keyboard-response","104","224701","0.0-1.0-137.0","0","0","73803","","null","","","null","15","","","","","","","","","","","","","","","",""
"","ISI","","html-keyboard-response","105","225213","0.0-1.0-138.0","0","0","73803","","null","","","null","15","NaN","","","","","","","","","","","","","","",""
"","S2","","html-keyboard-response","106","225469","0.0-1.0-139.0","0","0","73803","","null","","","null","15","","NaN","","","","","","","","","","","","","",""
"","response","","html-keyboard-response","107","225857","0.0-1.0-140.0-0.0","0","0","73803","","382","","","75","15","","","1","15","training","adjacent","AB","1","2","L.jpg","R.jpg","1","1","1","",""
"","feedback","","html-keyboard-response","108","226869","0.0-1.0-141.0-0.0","0","0","73803","","null","","","null","15","","","","","","","","","","","","","","","",""
"","ITI","","html-keyboard-response","109","227877","0.0-1.0-144.0","0","0","73803","","null","","","null","15","","","","","","","","","","","","","","","NaN",""
"","S1","","html-keyboard-response","110","228133","0.0-1.0-146.0","0","0","73803","","null","","","null","16","","","","","","","","","","","","","","","",""
"","ISI","","html-keyboard-response","111","228645","0.0-1.0-147.0","0","0","73803","","null","","","null","16","NaN","","","","","","","","","","","","","","",""
"","S2","","html-keyboard-response","112","228901","0.0-1.0-148.0","0","0","73803","","null","","","null","16","","NaN","","","","","","","","","","","","","",""
"","response","","html-keyboard-response","113","229164","0.0-1.0-149.0-0.0","0","0","73803","","258","","","75","16","","","1","16","training","adjacent","DC","4","3","N.jpg","P.jpg","1","0","0","",""
"","feedback","","html-keyboard-response","114","230173","0.0-1.0-150.0-0.0","0","0","73803","","null","","","null","16","","","","","","","","","","","","","","","",""
"","time_out","","html-keyboard-response","115","232181","0.0-1.0-152.0-0.0","0","0","73803","","null","","","null","16","","","","","","","","","","","","","","","",""
"","ITI","","html-keyboard-response","116","233189","0.0-1.0-153.0","0","0","73803","","null","","","null","16","","","","","","","","","","","","","","","NaN",""
"","S1","","html-keyboard-response","117","233445","0.0-1.0-155.0","0","0","73803","","null","","","null","17","","","","","","","","","","","","","","","",""
"","ISI","","html-keyboard-response","118","233957","0.0-1.0-156.0","0","0","73803","","null","","","null","17","NaN","","","","","","","","","","","","","","",""
"","S2","","html-keyboard-response","119","234213","0.0-1.0-157.0","0","0","73803","","null","","","null","17","","NaN","","","","","","","","","","","","","",""
"","response","","html-keyboard-response","120","234455","0.0-1.0-158.0-0.0","0","0","73803","","237","","","75","17","","","1","17","training","adjacent","GF","7","6","Q.jpg","O.jpg","1","0","0","",""
"","feedback","","html-keyboard-response","121","235461","0.0-1.0-159.0-0.0","0","0","73803","","null","","","null","17","","","","","","","","","","","","","","","",""
"","time_out","","html-keyboard-response","122","237469","0.0-1.0-161.0-0.0","0","0","73803","","null","","","null","17","","","","","","","","","","","","","","","",""
"","ITI","","html-keyboard-response","123","238477","0.0-1.0-162.0","0","0","73803","","null","","","null","17","","","","","","","","","","","","","","","NaN",""
"","S1","","html-keyboard-response","124","238733","0.0-1.0-164.0","0","0","73803","","null","","","null","18","","","","","","","","","","","","","","","",""
"","ISI","","html-keyboard-response","125","239245","0.0-1.0-165.0","0","0","73803","","null","","","null","18","NaN","","","","","","","","","","","","","","",""
"","S2","","html-keyboard-response","126","239501","0.0-1.0-166.0","0","0","73803","","null","","","null","18","","NaN","","","","","","","","","","","","","",""
"","response","","html-keyboard-response","127","239750","0.0-1.0-167.0-0.0","0","0","73803","","245","","","68","18","","","1","18","training","adjacent","CB","3","2","P.jpg","R.jpg","0","0","1","",""
"","feedback","","html-keyboard-response","128","240757","0.0-1.0-168.0-0.0","0","0","73803","","null","","","null","18","","","","","","","","","","","","","","","",""
"","ITI","","html-keyboard-response","129","241765","0.0-1.0-171.0","0","0","73803","","375","","","74","18","","","","","","","","","","","","","","","j",""
"","S1","","html-keyboard-response","130","242021","0.0-1.0-173.0","0","0","73803","","null","","","null","19","","","","","","","","","","","","","","","",""
"","ISI","","html-keyboard-response","131","242532","0.0-1.0-174.0","0","0","73803","","null","","","null","19","NaN","","","","","","","","","","","","","","",""
"","S2","","html-keyboard-response","132","242789","0.0-1.0-175.0","0","0","73803","","null","","","null","19","","NaN","","","","","","","","","","","","","",""
"","response","","html-keyboard-response","133","242795","0.0-1.0-176.0-0.0","0","0","73803","","1","","","75","19","","","1","19","training","adjacent","FE","6","5","O.jpg","M.jpg","1","0","0","",""
"","feedback","","html-keyboard-response","134","243805","0.0-1.0-177.0-0.0","0","0","73803","","null","","","null","19","","","","","","","","","","","","","","","",""
"","time_out","","html-keyboard-response","135","245813","0.0-1.0-179.0-0.0","0","0","73803","","null","","","null","19","","","","","","","","","","","","","","","",""
"","ITI","","html-keyboard-response","136","246821","0.0-1.0-180.0","0","0","73803","","null","","","null","19","","","","","","","","","","","","","","","NaN",""
"","S1","","html-keyboard-response","137","247077","0.0-1.0-182.0","0","0","73803","","null","","","null","20","","","","","","","","","","","","","","","",""
"","ISI","","html-keyboard-response","138","247589","0.0-1.0-183.0","0","0","73803","","null","","","null","20","NaN","","","","","","","","","","","","","","",""
"","S2","","html-keyboard-response","139","247845","0.0-1.0-184.0","0","0","73803","","null","","","null","20","","NaN","","","","","","","","","","","","","",""
"","response","","html-keyboard-response","140","248093","0.0-1.0-185.0-0.0","0","0","73803","","243","","","75","20","","","1","20","training","adjacent","AB","1","2","L.jpg","R.jpg","1","1","1","",""
"","feedback","","html-keyboard-response","141","249101","0.0-1.0-186.0-0.0","0","0","73803","","null","","","null","20","","","","","","","","","","","","","","","",""
"","ITI","","html-keyboard-response","142","250109","0.0-1.0-189.0","0","0","73803","","null","","","null","20","","","","","","","","","","","","","","","NaN",""
"","S1","","html-keyboard-response","143","250365","0.0-1.0-191.0","0","0","73803","","null","","","null","21","","","","","","","","","","","","","","","",""
"","ISI","","html-keyboard-response","144","250877","0.0-1.0-192.0","0","0","73803","","null","","","null","21","NaN","","","","","","","","","","","","","","",""
"","S2","","html-keyboard-response","145","251133","0.0-1.0-193.0","0","0","73803","","null","","","null","21","","NaN","","","","","","","","","","","","","",""
"","response","","html-keyboard-response","146","251436","0.0-1.0-194.0-0.0","0","0","73803","","298","","","68","21","","","1","21","training","adjacent","CB","3","2","P.jpg","R.jpg","0","0","1","",""
"","feedback","","html-keyboard-response","147","252445","0.0-1.0-195.0-0.0","0","0","73803","","null","","","null","21","","","","","","","","","","","","","","","",""
"","ITI","","html-keyboard-response","148","253453","0.0-1.0-198.0","0","0","73803","","null","","","null","21","","","","","","","","","","","","","","","NaN",""
"","S1","","html-keyboard-response","149","253709","0.0-1.0-200.0","0","0","73803","","null","","","null","22","","","","","","","","","","","","","","","",""
"","ISI","","html-keyboard-response","150","254221","0.0-1.0-201.0","0","0","73803","","null","","","null","22","NaN","","","","","","","","","","","","","","",""
"","S2","","html-keyboard-response","151","254477","0.0-1.0-202.0","0","0","73803","","null","","","null","22","","NaN","","","","","","","","","","","","","",""
"","response","","html-keyboard-response","152","255010","0.0-1.0-203.0-0.0","0","0","73803","","527","","","68","22","","","1","22","training","adjacent","BA","2","1","R.jpg","L.jpg","0","0","1","",""
"","feedback","","html-keyboard-response","153","256021","0.0-1.0-204.0-0.0","0","0","73803","","null","","","null","22","","","","","","","","","","","","","","","",""
"","ITI","","html-keyboard-response","154","257029","0.0-1.0-207.0","0","0","73803","","null","","","null","22","","","","","","","","","","","","","","","NaN",""
"","S1","","html-keyboard-response","155","257285","0.0-1.0-209.0","0","0","73803","","null","","","null","23","","","","","","","","","","","","","","","",""
"","ISI","","html-keyboard-response","156","257798","0.0-1.0-210.0","0","0","73803","","null","","","null","23","NaN","","","","","","","","","","","","","","",""
"","S2","","html-keyboard-response","157","258053","0.0-1.0-211.0","0","0","73803","","null","","","null","23","","NaN","","","","","","","","","","","","","",""
"","response","","html-keyboard-response","158","258700","0.0-1.0-212.0-0.0","0","0","73803","","642","","","75","23","","","1","23","training","adjacent","BA","2","1","R.jpg","L.jpg","1","0","0","",""
"","feedback","","html-keyboard-response","159","259709","0.0-1.0-213.0-0.0","0","0","73803","","null","","","null","23","","","","","","","","","","","","","","","",""
"","time_out","","html-keyboard-response","160","261717","0.0-1.0-215.0-0.0","0","0","73803","","null","","","null","23","","","","","","","","","","","","","","","",""
"","ITI","","html-keyboard-response","161","262725","0.0-1.0-216.0","0","0","73803","","null","","","null","23","","","","","","","","","","","","","","","NaN",""
"","S1","","html-keyboard-response","162","262982","0.0-1.0-218.0","0","0","73803","","null","","","null","24","","","","","","","","","","","","","","","",""
"","ISI","","html-keyboard-response","163","263493","0.0-1.0-219.0","0","0","73803","","null","","","null","24","NaN","","","","","","","","","","","","","","",""
"","S2","","html-keyboard-response","164","263749","0.0-1.0-220.0","0","0","73803","","null","","","null","24","","NaN","","","","","","","","","","","","","",""
"","response","","html-keyboard-response","165","264435","0.0-1.0-221.0-0.0","0","0","73803","","682","","","75","24","","","1","24","training","adjacent","FE","6","5","O.jpg","M.jpg","1","0","0","",""
"","feedback","","html-keyboard-response","166","265445","0.0-1.0-222.0-0.0","0","0","73803","","null","","","null","24","","","","","","","","","","","","","","","",""
"","time_out","","html-keyboard-response","167","267453","0.0-1.0-224.0-0.0","0","0","73803","","null","","","null","24","","","","","","","","","","","","","","","",""
"","ITI","","html-keyboard-response","168","268461","0.0-1.0-225.0","0","0","73803","","null","","","null","24","","","","","","","","","","","","","","","NaN",""
"","S1","","html-keyboard-response","169","268717","0.0-1.0-227.0","0","0","73803","","null","","","null","25","","","","","","","","","","","","","","","",""
"","ISI","","html-keyboard-response","170","269229","0.0-1.0-228.0","0","0","73803","","null","","","null","25","NaN","","","","","","","","","","","","","","",""
"","S2","","html-keyboard-response","171","269485","0.0-1.0-229.0","0","0","73803","","null","","","null","25","","NaN","","","","","","","","","","","","","",""
"","response","","html-keyboard-response","172","269935","0.0-1.0-230.0-0.0","0","0","73803","","445","","","68","25","","","1","25","training","adjacent","BC","2","3","R.jpg","P.jpg","0","1","0","",""
"","feedback","","html-keyboard-response","173","270941","0.0-1.0-231.0-0.0","0","0","73803","","null","","","null","25","","","","","","","","","","","","","","","",""
"","time_out","","html-keyboard-response","174","272949","0.0-1.0-233.0-0.0","0","0","73803","","null","","","null","25","","","","","","","","","","","","","","","",""
"","ITI","","html-keyboard-response","175","273957","0.0-1.0-234.0","0","0","73803","","null","","","null","25","","","","","","","","","","","","","","","NaN",""
"","S1","","html-keyboard-response","176","274213","0.0-1.0-236.0","0","0","73803","","null","","","null","26","","","","","","","","","","","","","","","",""
"","ISI","","html-keyboard-response","177","274725","0.0-1.0-237.0","0","0","73803","","null","","","null","26","NaN","","","","","","","","","","","","","","",""
"","S2","","html-keyboard-response","178","274981","0.0-1.0-238.0","0","0","73803","","null","","","null","26","","NaN","","","","","","","","","","","","","",""
"","response","","html-keyboard-response","179","275336","0.0-1.0-239.0-0.0","0","0","73803","","351","","","75","26","","","1","26","training","adjacent","CB","3","2","P.jpg","R.jpg","1","0","0","",""
"","feedback","","html-keyboard-response","180","276349","0.0-1.0-240.0-0.0","0","0","73803","","null","","","null","26","","","","","","","","","","","","","","","",""
"","time_out","","html-keyboard-response","181","278357","0.0-1.0-242.0-0.0","0","0","73803","","null","","","null","26","","","","","","","","","","","","","","","",""
"","ITI","","html-keyboard-response","182","279366","0.0-1.0-243.0","0","0","73803","","null","","","null","26","","","","","","","","","","","","","","","NaN",""
"","S1","","html-keyboard-response","183","279622","0.0-1.0-245.0","0","0","73803","","null","","","null","27","","","","","","","","","","","","","","","",""
"","ISI","","html-keyboard-response","184","280133","0.0-1.0-246.0","0","0","73803","","null","","","null","27","NaN","","","","","","","","","","","","","","",""
"","S2","","html-keyboard-response","185","280389","0.0-1.0-247.0","0","0","73803","","null","","","null","27","","NaN","","","","","","","","","","","","","",""
"","response","","html-keyboard-response","186","280949","0.0-1.0-248.0-0.0","0","0","73803","","555","","","75","27","","","1","27","training","adjacent","CD","3","4","P.jpg","N.jpg","1","1","1","",""
"","feedback","","html-keyboard-response","187","281957","0.0-1.0-249.0-0.0","0","0","73803","","null","","","null","27","","","","","","","","","","","","","","","",""
"","ITI","","html-keyboard-response","188","282965","0.0-1.0-252.0","0","0","73803","","null","","","null","27","","","","","","","","","","","","","","","NaN",""
"","S1","","html-keyboard-response","189","283221","0.0-1.0-254.0","0","0","73803","","null","","","null","28","","","","","","","","","","","","","","","",""
"","ISI","","html-keyboard-response","190","283733","0.0-1.0-255.0","0","0","73803","","null","","","null","28","NaN","","","","","","","","","","","","","","",""
"","S2","","html-keyboard-response","191","283989","0.0-1.0-256.0","0","0","73803","","null","","","null","28","","NaN","","","","","","","","","","","","","",""
"","response","","html-keyboard-response","192","284336","0.0-1.0-257.0-0.0","0","0","73803","","342","","","68","28","","","1","28","training","adjacent","GF","7","6","Q.jpg","O.jpg","0","0","1","",""
"","feedback","","html-keyboard-response","193","285349","0.0-1.0-258.0-0.0","0","0","73803","","null","","","null","28","","","","","","","","","","","","","","","",""
"","ITI","","html-keyboard-response","194","286357","0.0-1.0-261.0","0","0","73803","","null","","","null","28","","","","","","","","","","","","","","","NaN",""
"","S1","","html-keyboard-response","195","286613","0.0-1.0-263.0","0","0","73803","","null","","","null","29","","","","","","","","","","","","","","","",""
"","ISI","","html-keyboard-response","196","287125","0.0-1.0-264.0","0","0","73803","","null","","","null","29","NaN","","","","","","","","","","","","","","",""
"","S2","","html-keyboard-response","197","287381","0.0-1.0-265.0","0","0","73803","","null","","","null","29","","NaN","","","","","","","","","","","","","",""
"","response","","html-keyboard-response","198","287986","0.0-1.0-266.0-0.0","0","0","73803","","600","","","75","29","","","1","29","training","adjacent","DC","4","3","N.jpg","P.jpg","1","0","0","",""
"","feedback","","html-keyboard-response","199","288997","0.0-1.0-267.0-0.0","0","0","73803","","null","","","null","29","","","","","","","","","","","","","","","",""
"","time_out","","html-keyboard-response","200","291005","0.0-1.0-269.0-0.0","0","0","73803","","null","","","null","29","","","","","","","","","","","","","","","",""
"","ITI","","html-keyboard-response","201","292013","0.0-1.0-270.0","0","0","73803","","null","","","null","29","","","","","","","","","","","","","","","NaN",""
"","S1","","html-keyboard-response","202","292269","0.0-1.0-272.0","0","0","73803","","null","","","null","30","","","","","","","","","","","","","","","",""
"","ISI","","html-keyboard-response","203","292781","0.0-1.0-273.0","0","0","73803","","null","","","null","30","NaN","","","","","","","","","","","","","","",""
"","S2","","html-keyboard-response","204","293037","0.0-1.0-274.0","0","0","73803","","null","","","null","30","","NaN","","","","","","","","","","","","","",""
"","response","","html-keyboard-response","205","293575","0.0-1.0-275.0-0.0","0","0","73803","","531","","","75","30","","","1","30","training","adjacent","DE","4","5","N.jpg","M.jpg","1","1","1","",""
"","feedback","","html-keyboard-response","206","294581","0.0-1.0-276.0-0.0","0","0","73803","","null","","","null","30","","","","","","","","","","","","","","","",""
"","ITI","","html-keyboard-response","207","295589","0.0-1.0-279.0","0","0","73803","","null","","","null","30","","","","","","","","","","","","","","","NaN",""
"","S1","","html-keyboard-response","208","295845","0.0-1.0-281.0","0","0","73803","","null","","","null","31","","","","","","","","","","","","","","","",""
"","ISI","","html-keyboard-response","209","296357","0.0-1.0-282.0","0","0","73803","","null","","","null","31","NaN","","","","","","","","","","","","","","",""
"","S2","","html-keyboard-response","210","296613","0.0-1.0-283.0","0","0","73803","","null","","","null","31","","NaN","","","","","","","","","","","","","",""
"","response","","html-keyboard-response","211","297103","0.0-1.0-284.0-0.0","0","0","73803","","485","","","68","31","","","1","31","training","adjacent","ED","5","4","M.jpg","N.jpg","0","0","1","",""
"","feedback","","html-keyboard-response","212","298112","0.0-1.0-285.0-0.0","0","0","73803","","null","","","null","31","","","","","","","","","","","","","","","",""
"","ITI","","html-keyboard-response","213","299117","0.0-1.0-288.0","0","0","73803","","null","","","null","31","","","","","","","","","","","","","","","NaN",""
"","S1","","html-keyboard-response","214","299373","0.0-1.0-290.0","0","0","73803","","null","","","null","32","","","","","","","","","","","","","","","",""
"","ISI","","html-keyboard-response","215","299885","0.0-1.0-291.0","0","0","73803","","null","","","null","32","NaN","","","","","","","","","","","","","","",""
"","S2","","html-keyboard-response","216","300141","0.0-1.0-292.0","0","0","73803","","null","","","null","32","","NaN","","","","","","","","","","","","","",""
"","response","","html-keyboard-response","217","300488","0.0-1.0-293.0-0.0","0","0","73803","","341","","","75","32","","","1","32","training","adjacent","BC","2","3","R.jpg","P.jpg","1","1","1","",""
"","feedback","","html-keyboard-response","218","301493","0.0-1.0-294.0-0.0","0","0","73803","","null","","","null","32","","","","","","","","","","","","","","","",""
"","ITI","","html-keyboard-response","219","302501","0.0-1.0-297.0","0","0","73803","","null","","","null","32","","","","","","","","","","","","","","","NaN",""
"","S1","","html-keyboard-response","220","302757","0.0-1.0-299.0","0","0","73803","","null","","","null","33","","","","","","","","","","","","","","","",""
"","ISI","","html-keyboard-response","221","303269","0.0-1.0-300.0","0","0","73803","","null","","","null","33","NaN","","","","","","","","","","","","","","",""
"","S2","","html-keyboard-response","222","303533","0.0-1.0-301.0","0","0","73803","","null","","","null","33","","NaN","","","","","","","","","","","","","",""
"","response","","html-keyboard-response","223","303642","0.0-1.0-302.0-0.0","0","0","73803","","105","","","68","33","","","1","33","training","adjacent","FE","6","5","O.jpg","M.jpg","0","0","1","",""
"","feedback","","html-keyboard-response","224","304653","0.0-1.0-303.0-0.0","0","0","73803","","null","","","null","33","","","","","","","","","","","","","","","",""
"","ITI","","html-keyboard-response","225","305661","0.0-1.0-306.0","0","0","73803","","null","","","null","33","","","","","","","","","","","","","","","NaN",""
"","S1","","html-keyboard-response","226","305917","0.0-1.0-308.0","0","0","73803","","null","","","null","34","","","","","","","","","","","","","","","",""
"","ISI","","html-keyboard-response","227","306429","0.0-1.0-309.0","0","0","73803","","null","","","null","34","NaN","","","","","","","","","","","","","","",""
"","S2","","html-keyboard-response","228","306685","0.0-1.0-310.0","0","0","73803","","null","","","null","34","","NaN","","","","","","","","","","","","","",""
"","response","","html-keyboard-response","229","307172","0.0-1.0-311.0-0.0","0","0","73803","","483","","","68","34","","","1","34","training","adjacent","CB","3","2","P.jpg","R.jpg","0","0","1","",""
"","feedback","","html-keyboard-response","230","308181","0.0-1.0-312.0-0.0","0","0","73803","","null","","","null","34","","","","","","","","","","","","","","","",""
"","ITI","","html-keyboard-response","231","309189","0.0-1.0-315.0","0","0","73803","","null","","","null","34","","","","","","","","","","","","","","","NaN",""
"","S1","","html-keyboard-response","232","309445","0.0-1.0-317.0","0","0","73803","","null","","","null","35","","","","","","","","","","","","","","","",""
"","ISI","","html-keyboard-response","233","309957","0.0-1.0-318.0","0","0","73803","","null","","","null","35","NaN","","","","","","","","","","","","","","",""
"","S2","","html-keyboard-response","234","310213","0.0-1.0-319.0","0","0","73803","","null","","","null","35","","NaN","","","","","","","","","","","","","",""
"","response","","html-keyboard-response","235","310303","0.0-1.0-320.0-0.0","0","0","73803","","85","","","75","35","","","1","35","training","adjacent","FE","6","5","O.jpg","M.jpg","1","0","0","",""
"","feedback","","html-keyboard-response","236","311309","0.0-1.0-321.0-0.0","0","0","73803","","null","","","null","35","","","","","","","","","","","","","","","",""
"","time_out","","html-keyboard-response","237","313317","0.0-1.0-323.0-0.0","0","0","73803","","null","","","null","35","","","","","","","","","","","","","","","",""
"","ITI","","html-keyboard-response","238","314325","0.0-1.0-324.0","0","0","73803","","null","","","null","35","","","","","","","","","","","","","","","NaN",""
"","S1","","html-keyboard-response","239","314581","0.0-1.0-326.0","0","0","73803","","null","","","null","36","","","","","","","","","","","","","","","",""
"","ISI","","html-keyboard-response","240","315093","0.0-1.0-327.0","0","0","73803","","null","","","null","36","NaN","","","","","","","","","","","","","","",""
"","S2","","html-keyboard-response","241","315349","0.0-1.0-328.0","0","0","73803","","null","","","null","36","","NaN","","","","","","","","","","","","","",""
"","response","","html-keyboard-response","242","315712","0.0-1.0-329.0-0.0","0","0","73803","","358","","","68","36","","","1","36","training","adjacent","FG","6","7","O.jpg","Q.jpg","0","1","0","",""
"","feedback","","html-keyboard-response","243","316725","0.0-1.0-330.0-0.0","0","0","73803","","null","","","null","36","","","","","","","","","","","","","","","",""
"","time_out","","html-keyboard-response","244","318733","0.0-1.0-332.0-0.0","0","0","73803","","null","","","null","36","","","","","","","","","","","","","","","",""
"","ITI","","html-keyboard-response","245","319741","0.0-1.0-333.0","0","0","73803","","null","","","null","36","","","","","","","","","","","","","","","NaN",""
"","S1","","html-keyboard-response","246","319997","0.0-1.0-335.0","0","0","73803","","null","","","null","37","","","","","","","","","","","","","","","",""
"","ISI","","html-keyboard-response","247","320509","0.0-1.0-336.0","0","0","73803","","null","","","null","37","NaN","","","","","","","","","","","","","","",""
"","S2","","html-keyboard-response","248","320765","0.0-1.0-337.0","0","0","73803","","null","","","null","37","","NaN","","","","","","","","","","","","","",""
"","response","","html-keyboard-response","249","321188","0.0-1.0-338.0-0.0","0","0","73803","","418","","","75","37","","","1","37","training","adjacent","CD","3","4","P.jpg","N.jpg","1","1","1","",""
"","feedback","","html-keyboard-response","250","322197","0.0-1.0-339.0-0.0","0","0","73803","","null","","","null","37","","","","","","","","","","","","","","","",""
"","ITI","","html-keyboard-response","251","323205","0.0-1.0-342.0","0","0","73803","","null","","","null","37","","","","","","","","","","","","","","","NaN",""
"","S1","","html-keyboard-response","252","323461","0.0-1.0-344.0","0","0","73803","","null","","","null","38","","","","","","","","","","","","","","","",""
"","ISI","","html-keyboard-response","253","323973","0.0-1.0-345.0","0","0","73803","","null","","","null","38","NaN","","","","","","","","","","","","","","",""
"","S2","","html-keyboard-response","254","324229","0.0-1.0-346.0","0","0","73803","","null","","","null","38","","NaN","","","","","","","","","","","","","",""
"","response","","html-keyboard-response","255","324242","0.0-1.0-347.0-0.0","0","0","73803","","9","","","75","38","","","1","38","training","adjacent","EF","5","6","M.jpg","O.jpg","1","1","1","",""
"","feedback","","html-keyboard-response","256","325253","0.0-1.0-348.0-0.0","0","0","73803","","null","","","null","38","","","","","","","","","","","","","","","",""
"","ITI","","html-keyboard-response","257","326261","0.0-1.0-351.0","0","0","73803","","null","","","null","38","","","","","","","","","","","","","","","NaN",""
"","S1","","html-keyboard-response","258","326517","0.0-1.0-353.0","0","0","73803","","null","","","null","39","","","","","","","","","","","","","","","",""
"","ISI","","html-keyboard-response","259","327029","0.0-1.0-354.0","0","0","73803","","null","","","null","39","NaN","","","","","","","","","","","","","","",""
"","S2","","html-keyboard-response","260","327285","0.0-1.0-355.0","0","0","73803","","null","","","null","39","","NaN","","","","","","","","","","","","","",""
"","response","","html-keyboard-response","261","327437","0.0-1.0-356.0-0.0","0","0","73803","","147","","","75","39","","","1","39","training","adjacent","FG","6","7","O.jpg","Q.jpg","1","1","1","",""
"","feedback","","html-keyboard-response","262","328445","0.0-1.0-357.0-0.0","0","0","73803","","null","","","null","39","","","","","","","","","","","","","","","",""
"","ITI","","html-keyboard-response","263","329453","0.0-1.0-360.0","0","0","73803","","null","","","null","39","","","","","","","","","","","","","","","NaN",""
"","S1","","html-keyboard-response","264","329709","0.0-1.0-362.0","0","0","73803","","null","","","null","40","","","","","","","","","","","","","","","",""
"","ISI","","html-keyboard-response","265","330221","0.0-1.0-363.0","0","0","73803","","null","","","null","40","NaN","","","","","","","","","","","","","","",""
"","S2","","html-keyboard-response","266","330477","0.0-1.0-364.0","0","0","73803","","null","","","null","40","","NaN","","","","","","","","","","","","","",""
"","response","","html-keyboard-response","267","330717","0.0-1.0-365.0-0.0","0","0","73803","","235","","","75","40","","","1","40","training","adjacent","BC","2","3","R.jpg","P.jpg","1","1","1","",""
"","feedback","","html-keyboard-response","268","331725","0.0-1.0-366.0-0.0","0","0","73803","","null","","","null","40","","","","","","","","","","","","","","","",""
"","ITI","","html-keyboard-response","269","332733","0.0-1.0-369.0","0","0","73803","","null","","","null","40","","","","","","","","","","","","","","","NaN",""
"","S1","","html-keyboard-response","270","332989","0.0-1.0-371.0","0","0","73803","","null","","","null","41","","","","","","","","","","","","","","","",""
"","ISI","","html-keyboard-response","271","333501","0.0-1.0-372.0","0","0","73803","","null","","","null","41","NaN","","","","","","","","","","","","","","",""
"","S2","","html-keyboard-response","272","333757","0.0-1.0-373.0","0","0","73803","","null","","","null","41","","NaN","","","","","","","","","","","","","",""
"","response","","html-keyboard-response","273","333984","0.0-1.0-374.0-0.0","0","0","73803","","221","","","68","41","","","1","41","training","adjacent","DE","4","5","N.jpg","M.jpg","0","1","0","",""
"","feedback","","html-keyboard-response","274","334997","0.0-1.0-375.0-0.0","0","0","73803","","null","","","null","41","","","","","","","","","","","","","","","",""
"","time_out","","html-keyboard-response","275","337005","0.0-1.0-377.0-0.0","0","0","73803","","null","","","null","41","","","","","","","","","","","","","","","",""
"","ITI","","html-keyboard-response","276","338013","0.0-1.0-378.0","0","0","73803","","null","","","null","41","","","","","","","","","","","","","","","NaN",""
"","S1","","html-keyboard-response","277","338269","0.0-1.0-380.0","0","0","73803","","null","","","null","42","","","","","","","","","","","","","","","",""
"","ISI","","html-keyboard-response","278","338781","0.0-1.0-381.0","0","0","73803","","null","","","null","42","NaN","","","","","","","","","","","","","","",""
"","S2","","html-keyboard-response","279","339037","0.0-1.0-382.0","0","0","73803","","null","","","null","42","","NaN","","","","","","","","","","","","","",""
"","response","","html-keyboard-response","280","339093","0.0-1.0-383.0-0.0","0","0","73803","","50","","","68","42","","","1","42","training","adjacent","DE","4","5","N.jpg","M.jpg","0","1","0","",""
"","feedback","","html-keyboard-response","281","340101","0.0-1.0-384.0-0.0","0","0","73803","","null","","","null","42","","","","","","","","","","","","","","","",""
"","time_out","","html-keyboard-response","282","342109","0.0-1.0-386.0-0.0","0","0","73803","","null","","","null","42","","","","","","","","","","","","","","","",""
"","ITI","","html-keyboard-response","283","343117","0.0-1.0-387.0","0","0","73803","","null","","","null","42","","","","","","","","","","","","","","","NaN",""
"","S1","","html-keyboard-response","284","343373","0.0-1.0-389.0","0","0","73803","","null","","","null","43","","","","","","","","","","","","","","","",""
"","ISI","","html-keyboard-response","285","343885","0.0-1.0-390.0","0","0","73803","","null","","","null","43","NaN","","","","","","","","","","","","","","",""
"","S2","","html-keyboard-response","286","344141","0.0-1.0-391.0","0","0","73803","","null","","","null","43","","NaN","","","","","","","","","","","","","",""
"","response","","html-keyboard-response","287","344182","0.0-1.0-392.0-0.0","0","0","73803","","36","","","75","43","","","1","43","training","adjacent","CD","3","4","P.jpg","N.jpg","1","1","1","",""
"","feedback","","html-keyboard-response","288","345189","0.0-1.0-393.0-0.0","0","0","73803","","null","","","null","43","","","","","","","","","","","","","","","",""
"","ITI","","html-keyboard-response","289","346197","0.0-1.0-396.0","0","0","73803","","null","","","null","43","","","","","","","","","","","","","","","NaN",""
"","S1","","html-keyboard-response","290","346453","0.0-1.0-398.0","0","0","73803","","null","","","null","44","","","","","","","","","","","","","","","",""
"","ISI","","html-keyboard-response","291","346965","0.0-1.0-399.0","0","0","73803","","null","","","null","44","NaN","","","","","","","","","","","","","","",""
"","S2","","html-keyboard-response","292","347194","0.0-1.0-400.0","0","0","73803","","223","","","75","44","","k","1","44","training","adjacent","AB","1","2","L.jpg","R.jpg","1","1","1","",""
"","feedback","","html-keyboard-response","293","348205","0.0-1.0-402.0-0.0","0","0","73803","","null","","","null","44","","","","","","","","","","","","","","","",""
"","ITI","","html-keyboard-response","294","349213","0.0-1.0-405.0","0","0","73803","","null","","","null","44","","","","","","","","","","","","","","","NaN",""
"","S1","","html-keyboard-response","295","349469","0.0-1.0-407.0","0","0","73803","","null","","","null","45","","","","","","","","","","","","","","","",""
"","ISI","","html-keyboard-response","296","349981","0.0-1.0-408.0","0","0","73803","","null","","","null","45","NaN","","","","","","","","","","","","","","",""
"","S2","","html-keyboard-response","297","350160","0.0-1.0-409.0","0","0","73803","","174","","","75","45","","k","1","45","training","adjacent","BA","2","1","R.jpg","L.jpg","1","0","0","",""
"","feedback","","html-keyboard-response","298","351173","0.0-1.0-411.0-0.0","0","0","73803","","null","","","null","45","","","","","","","","","","","","","","","",""
"","time_out","","html-keyboard-response","299","353182","0.0-1.0-413.0-0.0","0","0","73803","","null","","","null","45","","","","","","","","","","","","","","","",""
"","ITI","","html-keyboard-response","300","354189","0.0-1.0-414.0","0","0","73803","","null","","","null","45","","","","","","","","","","","","","","","NaN",""
"","S1","","html-keyboard-response","301","354445","0.0-1.0-416.0","0","0","73803","","null","","","null","46","","","","","","","","","","","","","","","",""
"","ISI","","html-keyboard-response","302","354957","0.0-1.0-417.0","0","0","73803","","null","","","null","46","NaN","","","","","","","","","","","","","","",""
"","S2","","html-keyboard-response","303","354982","0.0-1.0-418.0","0","0","73803","","20","","","68","46","","d","1","46","training","adjacent","DC","4","3","N.jpg","P.jpg","0","0","1","",""
"","feedback","","html-keyboard-response","304","355989","0.0-1.0-420.0-0.0","0","0","73803","","null","","","null","46","","","","","","","","","","","","","","","",""
"","ITI","","html-keyboard-response","305","356997","0.0-1.0-423.0","0","0","73803","","null","","","null","46","","","","","","","","","","","","","","","NaN",""
"","S1","","html-keyboard-response","306","357253","0.0-1.0-425.0","0","0","73803","","null","","","null","47","","","","","","","","","","","","","","","",""
"","ISI","","html-keyboard-response","307","357765","0.0-1.0-426.0","0","0","73803","","null","","","null","47","NaN","","","","","","","","","","","","","","",""
"","S2","","html-keyboard-response","308","358015","0.0-1.0-427.0","0","0","73803","","245","","","75","47","","k","1","47","training","adjacent","CD","3","4","P.jpg","N.jpg","1","1","1","",""
"","feedback","","html-keyboard-response","309","359021","0.0-1.0-429.0-0.0","0","0","73803","","null","","","null","47","","","","","","","","","","","","","","","",""
"","ITI","","html-keyboard-response","310","360029","0.0-1.0-432.0","0","0","73803","","null","","","null","47","","","","","","","","","","","","","","","NaN",""
"","block_over","","html-keyboard-response","311","366292","0.0-1.0-433.0-0.0","0","0","73803","","6257","","","32","47","","","","","","","","","","","","","","","",""
"","S1","","html-keyboard-response","312","366549","0.0-1.0-434.0","0","0","73803","","null","","","null","48","","","","","","","","","","","","","","","",""
"","ISI","","html-keyboard-response","313","367061","0.0-1.0-435.0","0","0","73803","","null","","","null","48","NaN","","","","","","","","","","","","","","",""
"","S2","","html-keyboard-response","314","367317","0.0-1.0-436.0","0","0","73803","","null","","","null","48","","NaN","","","","","","","","","","","","","",""
"","response","","html-keyboard-response","315","367620","0.0-1.0-437.0-0.0","0","0","73803","","298","","","75","48","","","2","48","training","adjacent","FE","6","5","O.jpg","M.jpg","1","0","0","",""
"","feedback","","html-keyboard-response","316","368629","0.0-1.0-438.0-0.0","0","0","73803","","null","","","null","48","","","","","","","","","","","","","","","",""
"","time_out","","html-keyboard-response","317","370637","0.0-1.0-440.0-0.0","0","0","73803","","null","","","null","48","","","","","","","","","","","","","","","",""
"","ITI","","html-keyboard-response","318","371645","0.0-1.0-441.0","0","0","73803","","null","","","null","48","","","","","","","","","","","","","","","NaN",""
"","S1","","html-keyboard-response","319","371901","0.0-1.0-443.0","0","0","73803","","null","","","null","49","","","","","","","","","","","","","","","",""
"","ISI","","html-keyboard-response","320","372413","0.0-1.0-444.0","0","0","73803","","null","","","null","49","NaN","","","","","","","","","","","","","","",""
"","S2","","html-keyboard-response","321","372669","0.0-1.0-445.0","0","0","73803","","null","","","null","49","","NaN","","","","","","","","","","","","","",""
"","response","","html-keyboard-response","322","372788","0.0-1.0-446.0-0.0","0","0","73803","","114","","","68","49","","","2","49","training","adjacent","FE","6","5","O.jpg","M.jpg","0","0","1","",""
"","feedback","","html-keyboard-response","323","373797","0.0-1.0-447.0-0.0","0","0","73803","","null","","","null","49","","","","","","","","","","","","","","","",""
"","ITI","","html-keyboard-response","324","374805","0.0-1.0-450.0","0","0","73803","","null","","","null","49","","","","","","","","","","","","","","","NaN",""
"","S1","","html-keyboard-response","325","375061","0.0-1.0-452.0","0","0","73803","","null","","","null","50","","","","","","","","","","","","","","","",""
"","ISI","","html-keyboard-response","326","375573","0.0-1.0-453.0","0","0","73803","","null","","","null","50","NaN","","","","","","","","","","","","","","",""
"","S2","","html-keyboard-response","327","375829","0.0-1.0-454.0","0","0","73803","","null","","","null","50","","NaN","","","","","","","","","","","","","",""
"","response","","html-keyboard-response","328","376214","0.0-1.0-455.0-0.0","0","0","73803","","380","","","75","50","","","2","50","training","adjacent","BA","2","1","R.jpg","L.jpg","1","0","0","",""
"","feedback","","html-keyboard-response","329","377221","0.0-1.0-456.0-0.0","0","0","73803","","null","","","null","50","","","","","","","","","","","","","","","",""
"","time_out","","html-keyboard-response","330","379229","0.0-1.0-458.0-0.0","0","0","73803","","null","","","null","50","","","","","","","","","","","","","","","",""
"","ITI","","html-keyboard-response","331","380237","0.0-1.0-459.0","0","0","73803","","null","","","null","50","","","","","","","","","","","","","","","NaN",""
"","S1","","html-keyboard-response","332","380493","0.0-1.0-461.0","0","0","73803","","null","","","null","51","","","","","","","","","","","","","","","",""
"","ISI","","html-keyboard-response","333","381005","0.0-1.0-462.0","0","0","73803","","null","","","null","51","NaN","","","","","","","","","","","","","","",""
"","S2","","html-keyboard-response","334","381261","0.0-1.0-463.0","0","0","73803","","null","","","null","51","","NaN","","","","","","","","","","","","","",""
"","response","","html-keyboard-response","335","381802","0.0-1.0-464.0-0.0","0","0","73803","","535","","","68","51","","","2","51","training","adjacent","BA","2","1","R.jpg","L.jpg","0","0","1","",""
"","feedback","","html-keyboard-response","336","382813","0.0-1.0-465.0-0.0","0","0","73803","","null","","","null","51","","","","","","","","","","","","","","","",""
"","ITI","","html-keyboard-response","337","383821","0.0-1.0-468.0","0","0","73803","","null","","","null","51","","","","","","","","","","","","","","","NaN",""
"","S1","","html-keyboard-response","338","384077","0.0-1.0-470.0","0","0","73803","","null","","","null","52","","","","","","","","","","","","","","","",""
"","ISI","","html-keyboard-response","339","384589","0.0-1.0-471.0","0","0","73803","","null","","","null","52","NaN","","","","","","","","","","","","","","",""
"","S2","","html-keyboard-response","340","384845","0.0-1.0-472.0","0","0","73803","","null","","","null","52","","NaN","","","","","","","","","","","","","",""
"","response","","html-keyboard-response","341","384946","0.0-1.0-473.0-0.0","0","0","73803","","97","","","75","52","","","2","52","training","adjacent","FG","6","7","O.jpg","Q.jpg","1","1","1","",""
"","feedback","","html-keyboard-response","342","385957","0.0-1.0-474.0-0.0","0","0","73803","","null","","","null","52","","","","","","","","","","","","","","","",""
"","ITI","","html-keyboard-response","343","386965","0.0-1.0-477.0","0","0","73803","","null","","","null","52","","","","","","","","","","","","","","","NaN",""
"","S1","","html-keyboard-response","344","387221","0.0-1.0-479.0","0","0","73803","","null","","","null","53","","","","","","","","","","","","","","","",""
"","ISI","","html-keyboard-response","345","387732","0.0-1.0-480.0","0","0","73803","","null","","","null","53","NaN","","","","","","","","","","","","","","",""
"","S2","","html-keyboard-response","346","387989","0.0-1.0-481.0","0","0","73803","","null","","","null","53","","NaN","","","","","","","","","","","","","",""
"","response","","html-keyboard-response","347","388558","0.0-1.0-482.0-0.0","0","0","73803","","565","","","75","53","","","2","53","training","adjacent","CD","3","4","P.jpg","N.jpg","1","1","1","",""
"","feedback","","html-keyboard-response","348","389565","0.0-1.0-483.0-0.0","0","0","73803","","null","","","null","53","","","","","","","","","","","","","","","",""
"","ITI","","html-keyboard-response","349","390573","0.0-1.0-486.0","0","0","73803","","null","","","null","53","","","","","","","","","","","","","","","NaN",""
"","S1","","html-keyboard-response","350","390829","0.0-1.0-488.0","0","0","73803","","null","","","null","54","","","","","","","","","","","","","","","",""
"","ISI","","html-keyboard-response","351","391341","0.0-1.0-489.0","0","0","73803","","null","","","null","54","NaN","","","","","","","","","","","","","","",""
"","S2","","html-keyboard-response","352","391597","0.0-1.0-490.0","0","0","73803","","null","","","null","54","","NaN","","","","","","","","","","","","","",""
"","response","","html-keyboard-response","353","391686","0.0-1.0-491.0-0.0","0","0","73803","","84","","","68","54","","","2","54","training","adjacent","DC","4","3","N.jpg","P.jpg","0","0","1","",""
"","feedback","","html-keyboard-response","354","392693","0.0-1.0-492.0-0.0","0","0","73803","","null","","","null","54","","","","","","","","","","","","","","","",""
"","ITI","","html-keyboard-response","355","393701","0.0-1.0-495.0","0","0","73803","","null","","","null","54","","","","","","","","","","","","","","","NaN",""
"","S1","","html-keyboard-response","356","393957","0.0-1.0-497.0","0","0","73803","","null","","","null","55","","","","","","","","","","","","","","","",""
"","ISI","","html-keyboard-response","357","394469","0.0-1.0-498.0","0","0","73803","","null","","","null","55","NaN","","","","","","","","","","","","","","",""
"","S2","","html-keyboard-response","358","394725","0.0-1.0-499.0","0","0","73803","","null","","","null","55","","NaN","","","","","","","","","","","","","",""
"","response","","html-keyboard-response","359","395110","0.0-1.0-500.0-0.0","0","0","73803","","380","","","75","55","","","2","55","training","adjacent","EF","5","6","M.jpg","O.jpg","1","1","1","",""
"","feedback","","html-keyboard-response","360","396118","0.0-1.0-501.0-0.0","0","0","73803","","null","","","null","55","","","","","","","","","","","","","","","",""
"","ITI","","html-keyboard-response","361","397125","0.0-1.0-504.0","0","0","73803","","null","","","null","55","","","","","","","","","","","","","","","NaN",""
"","S1","","html-keyboard-response","362","397381","0.0-1.0-506.0","0","0","73803","","null","","","null","56","","","","","","","","","","","","","","","",""
"","ISI","","html-keyboard-response","363","397894","0.0-1.0-507.0","0","0","73803","","null","","","null","56","NaN","","","","","","","","","","","","","","",""
"","S2","","html-keyboard-response","364","398149","0.0-1.0-508.0","0","0","73803","","null","","","null","56","","NaN","","","","","","","","","","","","","",""
"","response","","html-keyboard-response","365","398552","0.0-1.0-509.0-0.0","0","0","73803","","398","","","68","56","","","2","56","training","adjacent","DC","4","3","N.jpg","P.jpg","0","0","1","",""
"","feedback","","html-keyboard-response","366","399565","0.0-1.0-510.0-0.0","0","0","73803","","null","","","null","56","","","","","","","","","","","","","","","",""
"","ITI","","html-keyboard-response","367","400573","0.0-1.0-513.0","0","0","73803","","null","","","null","56","","","","","","","","","","","","","","","NaN",""
"","S1","","html-keyboard-response","368","400829","0.0-1.0-515.0","0","0","73803","","null","","","null","57","","","","","","","","","","","","","","","",""
"","ISI","","html-keyboard-response","369","401341","0.0-1.0-516.0","0","0","73803","","null","","","null","57","NaN","","","","","","","","","","","","","","",""
"","S2","","html-keyboard-response","370","401597","0.0-1.0-517.0","0","0","73803","","null","","","null","57","","NaN","","","","","","","","","","","","","",""
"","response","","html-keyboard-response","371","402251","0.0-1.0-518.0-0.0","0","0","73803","","650","","","75","57","","","2","57","training","adjacent","CD","3","4","P.jpg","N.jpg","1","1","1","",""
"","feedback","","html-keyboard-response","372","403261","0.0-1.0-519.0-0.0","0","0","73803","","null","","","null","57","","","","","","","","","","","","","","","",""
"","ITI","","html-keyboard-response","373","404269","0.0-1.0-522.0","0","0","73803","","null","","","null","57","","","","","","","","","","","","","","","NaN",""
"","S1","","html-keyboard-response","374","404525","0.0-1.0-524.0","0","0","73803","","null","","","null","58","","","","","","","","","","","","","","","",""
"","ISI","","html-keyboard-response","375","405037","0.0-1.0-525.0","0","0","73803","","null","","","null","58","NaN","","","","","","","","","","","","","","",""
"","S2","","html-keyboard-response","376","405293","0.0-1.0-526.0","0","0","73803","","null","","","null","58","","NaN","","","","","","","","","","","","","",""
"","response","","html-keyboard-response","377","405654","0.0-1.0-527.0-0.0","0","0","73803","","356","","","68","58","","","2","58","training","adjacent","AB","1","2","L.jpg","R.jpg","0","1","0","",""
"","feedback","","html-keyboard-response","378","406661","0.0-1.0-528.0-0.0","0","0","73803","","null","","","null","58","","","","","","","","","","","","","","","",""
"","time_out","","html-keyboard-response","379","408669","0.0-1.0-530.0-0.0","0","0","73803","","null","","","null","58","","","","","","","","","","","","","","","",""
"","ITI","","html-keyboard-response","380","409677","0.0-1.0-531.0","0","0","73803","","null","","","null","58","","","","","","","","","","","","","","","NaN",""
"","S1","","html-keyboard-response","381","409933","0.0-1.0-533.0","0","0","73803","","null","","","null","59","","","","","","","","","","","","","","","",""
"","ISI","","html-keyboard-response","382","410445","0.0-1.0-534.0","0","0","73803","","null","","","null","59","NaN","","","","","","","","","","","","","","",""
"","S2","","html-keyboard-response","383","410701","0.0-1.0-535.0","0","0","73803","","null","","","null","59","","NaN","","","","","","","","","","","","","",""
"","response","","html-keyboard-response","384","411150","0.0-1.0-536.0-0.0","0","0","73803","","443","","","68","59","","","2","59","training","adjacent","CD","3","4","P.jpg","N.jpg","0","1","0","",""
"","feedback","","html-keyboard-response","385","412157","0.0-1.0-537.0-0.0","0","0","73803","","null","","","null","59","","","","","","","","","","","","","","","",""
"","time_out","","html-keyboard-response","386","414165","0.0-1.0-539.0-0.0","0","0","73803","","null","","","null","59","","","","","","","","","","","","","","","",""
"","ITI","","html-keyboard-response","387","415173","0.0-1.0-540.0","0","0","73803","","null","","","null","59","","","","","","","","","","","","","","","NaN",""
"","S1","","html-keyboard-response","388","415429","0.0-1.0-542.0","0","0","73803","","null","","","null","60","","","","","","","","","","","","","","","",""
"","ISI","","html-keyboard-response","389","415941","0.0-1.0-543.0","0","0","73803","","null","","","null","60","NaN","","","","","","","","","","","","","","",""
"","S2","","html-keyboard-response","390","416197","0.0-1.0-544.0","0","0","73803","","null","","","null","60","","NaN","","","","","","","","","","","","","",""
"","response","","html-keyboard-response","391","416563","0.0-1.0-545.0-0.0","0","0","73803","","361","","","68","60","","","2","60","training","adjacent","DC","4","3","N.jpg","P.jpg","0","0","1","",""
"","feedback","","html-keyboard-response","392","417573","0.0-1.0-546.0-0.0","0","0","73803","","null","","","null","60","","","","","","","","","","","","","","","",""
"","ITI","","html-keyboard-response","393","418581","0.0-1.0-549.0","0","0","73803","","null","","","null","60","","","","","","","","","","","","","","","NaN",""
"","S1","","html-keyboard-response","394","418837","0.0-1.0-551.0","0","0","73803","","null","","","null","61","","","","","","","","","","","","","","","",""
"","ISI","","html-keyboard-response","395","419349","0.0-1.0-552.0","0","0","73803","","null","","","null","61","NaN","","","","","","","","","","","","","","",""
"","S2","","html-keyboard-response","396","419605","0.0-1.0-553.0","0","0","73803","","null","","","null","61","","NaN","","","","","","","","","","","","","",""
"","response","","html-keyboard-response","397","419918","0.0-1.0-554.0-0.0","0","0","73803","","308","","","75","61","","","2","61","training","adjacent","CB","3","2","P.jpg","R.jpg","1","0","0","",""
"","feedback","","html-keyboard-response","398","420925","0.0-1.0-555.0-0.0","0","0","73803","","null","","","null","61","","","","","","","","","","","","","","","",""
"","time_out","","html-keyboard-response","399","422933","0.0-1.0-557.0-0.0","0","0","73803","","null","","","null","61","","","","","","","","","","","","","","","",""
"","ITI","","html-keyboard-response","400","423941","0.0-1.0-558.0","0","0","73803","","null","","","null","61","","","","","","","","","","","","","","","NaN",""
"","S1","","html-keyboard-response","401","424197","0.0-1.0-560.0","0","0","73803","","null","","","null","62","","","","","","","","","","","","","","","",""
"","ISI","","html-keyboard-response","402","424709","0.0-1.0-561.0","0","0","73803","","null","","","null","62","NaN","","","","","","","","","","","","","","",""
"","S2","","html-keyboard-response","403","424965","0.0-1.0-562.0","0","0","73803","","null","","","null","62","","NaN","","","","","","","","","","","","","",""
"","response","","html-keyboard-response","404","425416","0.0-1.0-563.0-0.0","0","0","73803","","446","","","75","62","","","2","62","training","adjacent","EF","5","6","M.jpg","O.jpg","1","1","1","",""
"","feedback","","html-keyboard-response","405","426429","0.0-1.0-564.0-0.0","0","0","73803","","null","","","null","62","","","","","","","","","","","","","","","",""
"","ITI","","html-keyboard-response","406","427437","0.0-1.0-567.0","0","0","73803","","null","","","null","62","","","","","","","","","","","","","","","NaN",""
"","S1","","html-keyboard-response","407","427693","0.0-1.0-569.0","0","0","73803","","null","","","null","63","","","","","","","","","","","","","","","",""
"","ISI","","html-keyboard-response","408","428205","0.0-1.0-570.0","0","0","73803","","null","","","null","63","NaN","","","","","","","","","","","","","","",""
"","S2","","html-keyboard-response","409","428461","0.0-1.0-571.0","0","0","73803","","null","","","null","63","","NaN","","","","","","","","","","","","","",""
"","response","","html-keyboard-response","410","428538","0.0-1.0-572.0-0.0","0","0","73803","","72","","","68","63","","","2","63","training","adjacent","FE","6","5","O.jpg","M.jpg","0","0","1","",""
"","feedback","","html-keyboard-response","411","429549","0.0-1.0-573.0-0.0","0","0","73803","","null","","","null","63","","","","","","","","","","","","","","","",""
"","ITI","","html-keyboard-response","412","430558","0.0-1.0-576.0","0","0","73803","","null","","","null","63","","","","","","","","","","","","","","","NaN",""
"","S1","","html-keyboard-response","413","430821","0.0-1.0-578.0","0","0","73803","","null","","","null","64","","","","","","","","","","","","","","","",""
"","ISI","","html-keyboard-response","414","431333","0.0-1.0-579.0","0","0","73803","","null","","","null","64","NaN","","","","","","","","","","","","","","",""
"","S2","","html-keyboard-response","415","431589","0.0-1.0-580.0","0","0","73803","","null","","","null","64","","NaN","","","","","","","","","","","","","",""
"","response","","html-keyboard-response","416","432255","0.0-1.0-581.0-0.0","0","0","73803","","661","","","68","64","","","2","64","training","adjacent","CD","3","4","P.jpg","N.jpg","0","1","0","",""
"","feedback","","html-keyboard-response","417","433261","0.0-1.0-582.0-0.0","0","0","73803","","null","","","null","64","","","","","","","","","","","","","","","",""
"","time_out","","html-keyboard-response","418","435269","0.0-1.0-584.0-0.0","0","0","73803","","null","","","null","64","","","","","","","","","","","","","","","",""
"","ITI","","html-keyboard-response","419","436278","0.0-1.0-585.0","0","0","73803","","null","","","null","64","","","","","","","","","","","","","","","NaN",""
"","S1","","html-keyboard-response","420","436533","0.0-1.0-587.0","0","0","73803","","null","","","null","65","","","","","","","","","","","","","","","",""
"","ISI","","html-keyboard-response","421","437045","0.0-1.0-588.0","0","0","73803","","null","","","null","65","NaN","","","","","","","","","","","","","","",""
"","S2","","html-keyboard-response","422","437301","0.0-1.0-589.0","0","0","73803","","null","","","null","65","","NaN","","","","","","","","","","","","","",""
"","response","","html-keyboard-response","423","437448","0.0-1.0-590.0-0.0","0","0","73803","","141","","","75","65","","","2","65","training","adjacent","DE","4","5","N.jpg","M.jpg","1","1","1","",""
"","feedback","","html-keyboard-response","424","438461","0.0-1.0-591.0-0.0","0","0","73803","","null","","","null","65","","","","","","","","","","","","","","","",""
"","ITI","","html-keyboard-response","425","439469","0.0-1.0-594.0","0","0","73803","","null","","","null","65","","","","","","","","","","","","","","","NaN",""
"","S1","","html-keyboard-response","426","439725","0.0-1.0-596.0","0","0","73803","","null","","","null","66","","","","","","","","","","","","","","","",""
"","ISI","","html-keyboard-response","427","440237","0.0-1.0-597.0","0","0","73803","","null","","","null","66","NaN","","","","","","","","","","","","","","",""
"","S2","","html-keyboard-response","428","440493","0.0-1.0-598.0","0","0","73803","","null","","","null","66","","NaN","","","","","","","","","","","","","",""
"","response","","html-keyboard-response","429","440557","0.0-1.0-599.0-0.0","0","0","73803","","58","","","68","66","","","2","66","training","adjacent","BC","2","3","R.jpg","P.jpg","0","1","0","",""
"","feedback","","html-keyboard-response","430","441565","0.0-1.0-600.0-0.0","0","0","73803","","null","","","null","66","","","","","","","","","","","","","","","",""
"","time_out","","html-keyboard-response","431","443573","0.0-1.0-602.0-0.0","0","0","73803","","null","","","null","66","","","","","","","","","","","","","","","",""
"","ITI","","html-keyboard-response","432","444582","0.0-1.0-603.0","0","0","73803","","null","","","null","66","","","","","","","","","","","","","","","NaN",""
"","S1","","html-keyboard-response","433","444837","0.0-1.0-605.0","0","0","73803","","null","","","null","67","","","","","","","","","","","","","","","",""
"","ISI","","html-keyboard-response","434","445349","0.0-1.0-606.0","0","0","73803","","null","","","null","67","NaN","","","","","","","","","","","","","","",""
"","S2","","html-keyboard-response","435","445605","0.0-1.0-607.0","0","0","73803","","null","","","null","67","","NaN","","","","","","","","","","","","","",""
"","response","","html-keyboard-response","436","445922","0.0-1.0-608.0-0.0","0","0","73803","","312","","","68","67","","","2","67","training","adjacent","FG","6","7","O.jpg","Q.jpg","0","1","0","",""
"","feedback","","html-keyboard-response","437","446933","0.0-1.0-609.0-0.0","0","0","73803","","null","","","null","67","","","","","","","","","","","","","","","",""
"","time_out","","html-keyboard-response","438","448941","0.0-1.0-611.0-0.0","0","0","73803","","null","","","null","67","","","","","","","","","","","","","","","",""
"","ITI","","html-keyboard-response","439","449949","0.0-1.0-612.0","0","0","73803","","null","","","null","67","","","","","","","","","","","","","","","NaN",""
"","S1","","html-keyboard-response","440","450205","0.0-1.0-614.0","0","0","73803","","null","","","null","68","","","","","","","","","","","","","","","",""
"","ISI","","html-keyboard-response","441","450717","0.0-1.0-615.0","0","0","73803","","null","","","null","68","NaN","","","","","","","","","","","","","","",""
"","S2","","html-keyboard-response","442","450981","0.0-1.0-616.0","0","0","73803","","null","","","null","68","","NaN","","","","","","","","","","","","","",""
"","response","","html-keyboard-response","443","451492","0.0-1.0-617.0-0.0","0","0","73803","","505","","","68","68","","","2","68","training","adjacent","BA","2","1","R.jpg","L.jpg","0","0","1","",""
"","feedback","","html-keyboard-response","444","452501","0.0-1.0-618.0-0.0","0","0","73803","","null","","","null","68","","","","","","","","","","","","","","","",""
"","ITI","","html-keyboard-response","445","453509","0.0-1.0-621.0","0","0","73803","","null","","","null","68","","","","","","","","","","","","","","","NaN",""
"","S1","","html-keyboard-response","446","453765","0.0-1.0-623.0","0","0","73803","","null","","","null","69","","","","","","","","","","","","","","","",""
"","ISI","","html-keyboard-response","447","454277","0.0-1.0-624.0","0","0","73803","","null","","","null","69","NaN","","","","","","","","","","","","","","",""
"","S2","","html-keyboard-response","448","454533","0.0-1.0-625.0","0","0","73803","","null","","","null","69","","NaN","","","","","","","","","","","","","",""
"","response","","html-keyboard-response","449","454926","0.0-1.0-626.0-0.0","0","0","73803","","387","","","75","69","","","2","69","training","adjacent","GF","7","6","Q.jpg","O.jpg","1","0","0","",""
"","feedback","","html-keyboard-response","450","455933","0.0-1.0-627.0-0.0","0","0","73803","","null","","","null","69","","","","","","","","","","","","","","","",""
"","time_out","","html-keyboard-response","451","457941","0.0-1.0-629.0-0.0","0","0","73803","","null","","","null","69","","","","","","","","","","","","","","","",""
"","ITI","","html-keyboard-response","452","458949","0.0-1.0-630.0","0","0","73803","","null","","","null","69","","","","","","","","","","","","","","","NaN",""
"","S1","","html-keyboard-response","453","459205","0.0-1.0-632.0","0","0","73803","","null","","","null","70","","","","","","","","","","","","","","","",""
"","ISI","","html-keyboard-response","454","459717","0.0-1.0-633.0","0","0","73803","","null","","","null","70","NaN","","","","","","","","","","","","","","",""
"","S2","","html-keyboard-response","455","459973","0.0-1.0-634.0","0","0","73803","","null","","","null","70","","NaN","","","","","","","","","","","","","",""
"","response","","html-keyboard-response","456","460207","0.0-1.0-635.0-0.0","0","0","73803","","230","","","75","70","","","2","70","training","adjacent","FG","6","7","O.jpg","Q.jpg","1","1","1","",""
"","feedback","","html-keyboard-response","457","461213","0.0-1.0-636.0-0.0","0","0","73803","","null","","","null","70","","","","","","","","","","","","","","","",""
"","ITI","","html-keyboard-response","458","462221","0.0-1.0-639.0","0","0","73803","","null","","","null","70","","","","","","","","","","","","","","","NaN",""
"","S1","","html-keyboard-response","459","462477","0.0-1.0-641.0","0","0","73803","","null","","","null","71","","","","","","","","","","","","","","","",""
"","ISI","","html-keyboard-response","460","462989","0.0-1.0-642.0","0","0","73803","","null","","","null","71","NaN","","","","","","","","","","","","","","",""
"","S2","","html-keyboard-response","461","463253","0.0-1.0-643.0","0","0","73803","","null","","","null","71","","NaN","","","","","","","","","","","","","",""
"","response","","html-keyboard-response","462","463350","0.0-1.0-644.0-0.0","0","0","73803","","91","","","68","71","","","2","71","training","adjacent","GF","7","6","Q.jpg","O.jpg","0","0","1","",""
"","feedback","","html-keyboard-response","463","464357","0.0-1.0-645.0-0.0","0","0","73803","","null","","","null","71","","","","","","","","","","","","","","","",""
"","ITI","","html-keyboard-response","464","465365","0.0-1.0-648.0","0","0","73803","","null","","","null","71","","","","","","","","","","","","","","","NaN",""
"","S1","","html-keyboard-response","465","465621","0.0-1.0-650.0","0","0","73803","","null","","","null","72","","","","","","","","","","","","","","","",""
"","ISI","","html-keyboard-response","466","466133","0.0-1.0-651.0","0","0","73803","","null","","","null","72","NaN","","","","","","","","","","","","","","",""
"","S2","","html-keyboard-response","467","466389","0.0-1.0-652.0","0","0","73803","","null","","","null","72","","NaN","","","","","","","","","","","","","",""
"","response","","html-keyboard-response","468","466504","0.0-1.0-653.0-0.0","0","0","73803","","109","","","75","72","","","2","72","training","adjacent","DC","4","3","N.jpg","P.jpg","1","0","0","",""
"","feedback","","html-keyboard-response","469","467517","0.0-1.0-654.0-0.0","0","0","73803","","null","","","null","72","","","","","","","","","","","","","","","",""
"","time_out","","html-keyboard-response","470","469525","0.0-1.0-656.0-0.0","0","0","73803","","null","","","null","72","","","","","","","","","","","","","","","",""
"","ITI","","html-keyboard-response","471","470533","0.0-1.0-657.0","0","0","73803","","null","","","null","72","","","","","","","","","","","","","","","NaN",""
"","S1","","html-keyboard-response","472","470789","0.0-1.0-659.0","0","0","73803","","null","","","null","73","","","","","","","","","","","","","","","",""
"","ISI","","html-keyboard-response","473","471301","0.0-1.0-660.0","0","0","73803","","null","","","null","73","NaN","","","","","","","","","","","","","","",""
"","S2","","html-keyboard-response","474","471557","0.0-1.0-661.0","0","0","73803","","null","","","null","73","","NaN","","","","","","","","","","","","","",""
"","response","","html-keyboard-response","475","471958","0.0-1.0-662.0-0.0","0","0","73803","","396","","","68","73","","","2","73","training","adjacent","BA","2","1","R.jpg","L.jpg","0","0","1","",""
"","feedback","","html-keyboard-response","476","472965","0.0-1.0-663.0-0.0","0","0","73803","","null","","","null","73","","","","","","","","","","","","","","","",""
"","ITI","","html-keyboard-response","477","473973","0.0-1.0-666.0","0","0","73803","","null","","","null","73","","","","","","","","","","","","","","","NaN",""
"","S1","","html-keyboard-response","478","474229","0.0-1.0-668.0","0","0","73803","","null","","","null","74","","","","","","","","","","","","","","","",""
"","ISI","","html-keyboard-response","479","474741","0.0-1.0-669.0","0","0","73803","","null","","","null","74","NaN","","","","","","","","","","","","","","",""
"","S2","","html-keyboard-response","480","474997","0.0-1.0-670.0","0","0","73803","","null","","","null","74","","NaN","","","","","","","","","","","","","",""
"","response","","html-keyboard-response","481","475286","0.0-1.0-671.0-0.0","0","0","73803","","283","","","75","74","","","2","74","training","adjacent","AB","1","2","L.jpg","R.jpg","1","1","1","",""
"","feedback","","html-keyboard-response","482","476293","0.0-1.0-672.0-0.0","0","0","73803","","null","","","null","74","","","","","","","","","","","","","","","",""
"","ITI","","html-keyboard-response","483","477301","0.0-1.0-675.0","0","0","73803","","null","","","null","74","","","","","","","","","","","","","","","NaN",""
"","S1","","html-keyboard-response","484","477557","0.0-1.0-677.0","0","0","73803","","null","","","null","75","","","","","","","","","","","","","","","",""
"","ISI","","html-keyboard-response","485","478069","0.0-1.0-678.0","0","0","73803","","null","","","null","75","NaN","","","","","","","","","","","","","","",""
"","S2","","html-keyboard-response","486","478325","0.0-1.0-679.0","0","0","73803","","null","","","null","75","","NaN","","","","","","","","","","","","","",""
"","response","","html-keyboard-response","487","478815","0.0-1.0-680.0-0.0","0","0","73803","","485","","","68","75","","","2","75","training","adjacent","ED","5","4","M.jpg","N.jpg","0","0","1","",""
"","feedback","","html-keyboard-response","488","479821","0.0-1.0-681.0-0.0","0","0","73803","","null","","","null","75","","","","","","","","","","","","","","","",""
"","ITI","","html-keyboard-response","489","480829","0.0-1.0-684.0","0","0","73803","","null","","","null","75","","","","","","","","","","","","","","","NaN",""
"","S1","","html-keyboard-response","490","481085","0.0-1.0-686.0","0","0","73803","","null","","","null","76","","","","","","","","","","","","","","","",""
"","ISI","","html-keyboard-response","491","481597","0.0-1.0-687.0","0","0","73803","","null","","","null","76","NaN","","","","","","","","","","","","","","",""
"","S2","","html-keyboard-response","492","481854","0.0-1.0-688.0","0","0","73803","","null","","","null","76","","NaN","","","","","","","","","","","","","",""
"","response","","html-keyboard-response","493","482100","0.0-1.0-689.0-0.0","0","0","73803","","241","","","75","76","","","2","76","training","adjacent","FG","6","7","O.jpg","Q.jpg","1","1","1","",""
"","feedback","","html-keyboard-response","494","483109","0.0-1.0-690.0-0.0","0","0","73803","","null","","","null","76","","","","","","","","","","","","","","","",""
"","ITI","","html-keyboard-response","495","484117","0.0-1.0-693.0","0","0","73803","","null","","","null","76","","","","","","","","","","","","","","","NaN",""
"","S1","","html-keyboard-response","496","484373","0.0-1.0-695.0","0","0","73803","","null","","","null","77","","","","","","","","","","","","","","","",""
"","ISI","","html-keyboard-response","497","484885","0.0-1.0-696.0","0","0","73803","","null","","","null","77","NaN","","","","","","","","","","","","","","",""
"","S2","","html-keyboard-response","498","485141","0.0-1.0-697.0","0","0","73803","","null","","","null","77","","NaN","","","","","","","","","","","","","",""
"","response","","html-keyboard-response","499","485386","0.0-1.0-698.0-0.0","0","0","73803","","240","","","75","77","","","2","77","training","adjacent","AB","1","2","L.jpg","R.jpg","1","1","1","",""
"","feedback","","html-keyboard-response","500","486397","0.0-1.0-699.0-0.0","0","0","73803","","null","","","null","77","","","","","","","","","","","","","","","",""
"","ITI","","html-keyboard-response","501","487405","0.0-1.0-702.0","0","0","73803","","null","","","null","77","","","","","","","","","","","","","","","NaN",""
"","S1","","html-keyboard-response","502","487661","0.0-1.0-704.0","0","0","73803","","null","","","null","78","","","","","","","","","","","","","","","",""
"","ISI","","html-keyboard-response","503","488173","0.0-1.0-705.0","0","0","73803","","null","","","null","78","NaN","","","","","","","","","","","","","","",""
"","S2","","html-keyboard-response","504","488429","0.0-1.0-706.0","0","0","73803","","null","","","null","78","","NaN","","","","","","","","","","","","","",""
"","response","","html-keyboard-response","505","488572","0.0-1.0-707.0-0.0","0","0","73803","","137","","","68","78","","","2","78","training","adjacent","CB","3","2","P.jpg","R.jpg","0","0","1","",""
"","feedback","","html-keyboard-response","506","489581","0.0-1.0-708.0-0.0","0","0","73803","","null","","","null","78","","","","","","","","","","","","","","","",""
"","ITI","","html-keyboard-response","507","490589","0.0-1.0-711.0","0","0","73803","","null","","","null","78","","","","","","","","","","","","","","","NaN",""
"","S1","","html-keyboard-response","508","490845","0.0-1.0-713.0","0","0","73803","","null","","","null","79","","","","","","","","","","","","","","","",""
"","ISI","","html-keyboard-response","509","491357","0.0-1.0-714.0","0","0","73803","","null","","","null","79","NaN","","","","","","","","","","","","","","",""
"","S2","","html-keyboard-response","510","491613","0.0-1.0-715.0","0","0","73803","","null","","","null","79","","NaN","","","","","","","","","","","","","",""
"","response","","html-keyboard-response","511","492085","0.0-1.0-716.0-0.0","0","0","73803","","467","","","75","79","","","2","79","training","adjacent","ED","5","4","M.jpg","N.jpg","1","0","0","",""
"","feedback","","html-keyboard-response","512","493093","0.0-1.0-717.0-0.0","0","0","73803","","null","","","null","79","","","","","","","","","","","","","","","",""
"","time_out","","html-keyboard-response","513","495102","0.0-1.0-719.0-0.0","0","0","73803","","null","","","null","79","","","","","","","","","","","","","","","",""
"","ITI","","html-keyboard-response","514","496110","0.0-1.0-720.0","0","0","73803","","null","","","null","79","","","","","","","","","","","","","","","NaN",""
"","S1","","html-keyboard-response","515","496365","0.0-1.0-722.0","0","0","73803","","null","","","null","80","","","","","","","","","","","","","","","",""
"","ISI","","html-keyboard-response","516","496877","0.0-1.0-723.0","0","0","73803","","null","","","null","80","NaN","","","","","","","","","","","","","","",""
"","S2","","html-keyboard-response","517","497133","0.0-1.0-724.0","0","0","73803","","null","","","null","80","","NaN","","","","","","","","","","","","","",""
"","response","","html-keyboard-response","518","497643","0.0-1.0-725.0-0.0","0","0","73803","","504","","","68","80","","","2","80","training","adjacent","BC","2","3","R.jpg","P.jpg","0","1","0","",""
"","feedback","","html-keyboard-response","519","498653","0.0-1.0-726.0-0.0","0","0","73803","","null","","","null","80","","","","","","","","","","","","","","","",""
"","time_out","","html-keyboard-response","520","500661","0.0-1.0-728.0-0.0","0","0","73803","","null","","","null","80","","","","","","","","","","","","","","","",""
"","ITI","","html-keyboard-response","521","501669","0.0-1.0-729.0","0","0","73803","","null","","","null","80","","","","","","","","","","","","","","","NaN",""
"","S1","","html-keyboard-response","522","501925","0.0-1.0-731.0","0","0","73803","","null","","","null","81","","","","","","","","","","","","","","","",""
"","ISI","","html-keyboard-response","523","502437","0.0-1.0-732.0","0","0","73803","","null","","","null","81","NaN","","","","","","","","","","","","","","",""
"","S2","","html-keyboard-response","524","502638","0.0-1.0-733.0","0","0","73803","","195","","","75","81","","k","2","81","training","adjacent","EF","5","6","M.jpg","O.jpg","1","1","1","",""
"","feedback","","html-keyboard-response","525","503645","0.0-1.0-735.0-0.0","0","0","73803","","null","","","null","81","","","","","","","","","","","","","","","",""
"","ITI","","html-keyboard-response","526","504654","0.0-1.0-738.0","0","0","73803","","null","","","null","81","","","","","","","","","","","","","","","NaN",""
"","S1","","html-keyboard-response","527","504909","0.0-1.0-740.0","0","0","73803","","null","","","null","82","","","","","","","","","","","","","","","",""
"","ISI","","html-keyboard-response","528","505421","0.0-1.0-741.0","0","0","73803","","null","","","null","82","NaN","","","","","","","","","","","","","","",""
"","S2","","html-keyboard-response","529","505670","0.0-1.0-742.0","0","0","73803","","242","","","75","82","","k","2","82","training","adjacent","CB","3","2","P.jpg","R.jpg","1","0","0","",""
"","feedback","","html-keyboard-response","530","506677","0.0-1.0-744.0-0.0","0","0","73803","","null","","","null","82","","","","","","","","","","","","","","","",""
"","time_out","","html-keyboard-response","531","508686","0.0-1.0-746.0-0.0","0","0","73803","","null","","","null","82","","","","","","","","","","","","","","","",""
"","ITI","","html-keyboard-response","532","509693","0.0-1.0-747.0","0","0","73803","","null","","","null","82","","","","","","","","","","","","","","","NaN",""
"","S1","","html-keyboard-response","533","509949","0.0-1.0-749.0","0","0","73803","","null","","","null","83","","","","","","","","","","","","","","","",""
"","ISI","","html-keyboard-response","534","510461","0.0-1.0-750.0","0","0","73803","","null","","","null","83","NaN","","","","","","","","","","","","","","",""
"","S2","","html-keyboard-response","535","510717","0.0-1.0-751.0","0","0","73803","","null","","","null","83","","NaN","","","","","","","","","","","","","",""
"","response","","html-keyboard-response","536","511122","0.0-1.0-752.0-0.0","0","0","73803","","399","","","75","83","","","2","83","training","adjacent","EF","5","6","M.jpg","O.jpg","1","1","1","",""
"","feedback","","html-keyboard-response","537","512133","0.0-1.0-753.0-0.0","0","0","73803","","null","","","null","83","","","","","","","","","","","","","","","",""
"","ITI","","html-keyboard-response","538","513141","0.0-1.0-756.0","0","0","73803","","null","","","null","83","","","","","","","","","","","","","","","NaN",""
"","S1","","html-keyboard-response","539","513397","0.0-1.0-758.0","0","0","73803","","null","","","null","84","","","","","","","","","","","","","","","",""
"","ISI","","html-keyboard-response","540","513909","0.0-1.0-759.0","0","0","73803","","null","","","null","84","NaN","","","","","","","","","","","","","","",""
"","S2","","html-keyboard-response","541","514165","0.0-1.0-760.0","0","0","73803","","null","","","null","84","","NaN","","","","","","","","","","","","","",""
"","response","","html-keyboard-response","542","514638","0.0-1.0-761.0-0.0","0","0","73803","","467","","","68","84","","","2","84","training","adjacent","ED","5","4","M.jpg","N.jpg","0","0","1","",""
"","feedback","","html-keyboard-response","543","515645","0.0-1.0-762.0-0.0","0","0","73803","","null","","","null","84","","","","","","","","","","","","","","","",""
"","ITI","","html-keyboard-response","544","516653","0.0-1.0-765.0","0","0","73803","","null","","","null","84","","","","","","","","","","","","","","","NaN",""
"","S1","","html-keyboard-response","545","516909","0.0-1.0-767.0","0","0","73803","","null","","","null","85","","","","","","","","","","","","","","","",""
"","ISI","","html-keyboard-response","546","517421","0.0-1.0-768.0","0","0","73803","","null","","","null","85","NaN","","","","","","","","","","","","","","",""
"","S2","","html-keyboard-response","547","517677","0.0-1.0-769.0","0","0","73803","","null","","","null","85","","NaN","","","","","","","","","","","","","",""
"","response","","html-keyboard-response","548","517980","0.0-1.0-770.0-0.0","0","0","73803","","297","","","68","85","","","2","85","training","adjacent","ED","5","4","M.jpg","N.jpg","0","0","1","",""
"","feedback","","html-keyboard-response","549","518989","0.0-1.0-771.0-0.0","0","0","73803","","null","","","null","85","","","","","","","","","","","","","","","",""
"","ITI","","html-keyboard-response","550","519997","0.0-1.0-774.0","0","0","73803","","null","","","null","85","","","","","","","","","","","","","","","NaN",""
"","S1","","html-keyboard-response","551","520254","0.0-1.0-776.0","0","0","73803","","null","","","null","86","","","","","","","","","","","","","","","",""
"","ISI","","html-keyboard-response","552","520766","0.0-1.0-777.0","0","0","73803","","null","","","null","86","NaN","","","","","","","","","","","","","","",""
"","S2","","html-keyboard-response","553","521022","0.0-1.0-778.0","0","0","73803","","null","","","null","86","","NaN","","","","","","","","","","","","","",""
"","response","","html-keyboard-response","554","521315","0.0-1.0-779.0-0.0","0","0","73803","","288","","","75","86","","","2","86","training","adjacent","AB","1","2","L.jpg","R.jpg","1","1","1","",""
"","feedback","","html-keyboard-response","555","522325","0.0-1.0-780.0-0.0","0","0","73803","","null","","","null","86","","","","","","","","","","","","","","","",""
"","ITI","","html-keyboard-response","556","523333","0.0-1.0-783.0","0","0","73803","","null","","","null","86","","","","","","","","","","","","","","","NaN",""
"","S1","","html-keyboard-response","557","523589","0.0-1.0-785.0","0","0","73803","","null","","","null","87","","","","","","","","","","","","","","","",""
"","ISI","","html-keyboard-response","558","524101","0.0-1.0-786.0","0","0","73803","","null","","","null","87","NaN","","","","","","","","","","","","","","",""
"","S2","","html-keyboard-response","559","524357","0.0-1.0-787.0","0","0","73803","","null","","","null","87","","NaN","","","","","","","","","","","","","",""
"","response","","html-keyboard-response","560","524521","0.0-1.0-788.0-0.0","0","0","73803","","159","","","68","87","","","2","87","training","adjacent","GF","7","6","Q.jpg","O.jpg","0","0","1","",""
"","feedback","","html-keyboard-response","561","525533","0.0-1.0-789.0-0.0","0","0","73803","","null","","","null","87","","","","","","","","","","","","","","","",""
"","ITI","","html-keyboard-response","562","526541","0.0-1.0-792.0","0","0","73803","","null","","","null","87","","","","","","","","","","","","","","","NaN",""
"","S1","","html-keyboard-response","563","526797","0.0-1.0-794.0","0","0","73803","","null","","","null","88","","","","","","","","","","","","","","","",""
"","ISI","","html-keyboard-response","564","527309","0.0-1.0-795.0","0","0","73803","","null","","","null","88","NaN","","","","","","","","","","","","","","",""
"","S2","","html-keyboard-response","565","527565","0.0-1.0-796.0","0","0","73803","","null","","","null","88","","NaN","","","","","","","","","","","","","",""
"","response","","html-keyboard-response","566","527778","0.0-1.0-797.0-0.0","0","0","73803","","207","","","68","88","","","2","88","training","adjacent","GF","7","6","Q.jpg","O.jpg","0","0","1","",""
"","feedback","","html-keyboard-response","567","528789","0.0-1.0-798.0-0.0","0","0","73803","","null","","","null","88","","","","","","","","","","","","","","","",""
"","ITI","","html-keyboard-response","568","529797","0.0-1.0-801.0","0","0","73803","","null","","","null","88","","","","","","","","","","","","","","","NaN",""
"","S1","","html-keyboard-response","569","530053","0.0-1.0-803.0","0","0","73803","","null","","","null","89","","","","","","","","","","","","","","","",""
"","ISI","","html-keyboard-response","570","530565","0.0-1.0-804.0","0","0","73803","","null","","","null","89","NaN","","","","","","","","","","","","","","",""
"","S2","","html-keyboard-response","571","530829","0.0-1.0-805.0","0","0","73803","","null","","","null","89","","NaN","","","","","","","","","","","","","",""
"","response","","html-keyboard-response","572","531333","0.0-1.0-806.0-0.0","0","0","73803","","498","","","75","89","","","2","89","training","adjacent","BC","2","3","R.jpg","P.jpg","1","1","1","",""
"","feedback","","html-keyboard-response","573","532341","0.0-1.0-807.0-0.0","0","0","73803","","null","","","null","89","","","","","","","","","","","","","","","",""
"","ITI","","html-keyboard-response","574","533349","0.0-1.0-810.0","0","0","73803","","null","","","null","89","","","","","","","","","","","","","","","NaN",""
"","S1","","html-keyboard-response","575","533605","0.0-1.0-812.0","0","0","73803","","null","","","null","90","","","","","","","","","","","","","","","",""
"","ISI","","html-keyboard-response","576","534117","0.0-1.0-813.0","0","0","73803","","null","","","null","90","NaN","","","","","","","","","","","","","","",""
"","S2","","html-keyboard-response","577","534373","0.0-1.0-814.0","0","0","73803","","null","","","null","90","","NaN","","","","","","","","","","","","","",""
"","response","","html-keyboard-response","578","534462","0.0-1.0-815.0-0.0","0","0","73803","","83","","","68","90","","","2","90","training","adjacent","DE","4","5","N.jpg","M.jpg","0","1","0","",""
"","feedback","","html-keyboard-response","579","535469","0.0-1.0-816.0-0.0","0","0","73803","","null","","","null","90","","","","","","","","","","","","","","","",""
"","time_out","","html-keyboard-response","580","537477","0.0-1.0-818.0-0.0","0","0","73803","","null","","","null","90","","","","","","","","","","","","","","","",""
