"success","ttype","start_time","trial_type","trial_index","time_elapsed","internal_node_id","warning","missed_checkup","PID","view_history","rt","responses","repeat_instructions","key_press","index","keypress_isi","keypress_S2","block","trial_num","phase","group_type","pair_type","S1_stim","S2_stim","S1_img","S2_img","S1_chosen","S1_higher","accuracy","keypress_iti","total_bonus_tally"
"true","full_screen","d04132023hr1818","fullscreen","0","9724","0.0-0.0","0","0","76158","","","","","","","","","","","","","","","","","","","","","",""
"","instructions","","instructions","1","21883","0.0-1.0-0.0-0.0","0","0","76158","[{""page_index"":0,""viewing_time"":4128},{""page_index"":1,""viewing_time"":3809},{""page_index"":2,""viewing_time"":2415},{""page_index"":3,""viewing_time"":1806}]","12158","","","","","","","","","","","","","","","","","","","",""
"","comprehension_check","","survey-multi-choice","2","47836","0.0-1.0-0.0-1.0","0","0","76158","","25949","{""Q0"":""True"",""Q1"":""K"",""Q2"":""Once the second image appears and while the screen 'MAKE A CHOICE' is shown"",""Q3"":""Green mark"",""Q4"":""either D or K""}","1","","","","","","","","","","","","","","","","","",""
"","missed_instruction_checkup","","html-keyboard-response","3","49394","0.0-1.0-0.0-2.0-0.0","0","1","76158","","1556","","","32","","","","","","","","","","","","","","","","",""
"","instructions","","instructions","4","55342","0.0-1.0-0.1-0.1","0","0","76158","[{""page_index"":0,""viewing_time"":1740},{""page_index"":1,""viewing_time"":2503},{""page_index"":2,""viewing_time"":882},{""page_index"":3,""viewing_time"":821}]","5946","","","","","","","","","","","","","","","","","","","",""
"","comprehension_check","","survey-multi-choice","5","67237","0.0-1.0-0.1-1.1","0","0","76158","","11892","{""Q0"":""True"",""Q1"":""D"",""Q2"":""Once the second image appears and while the screen 'MAKE A CHOICE' is shown"",""Q3"":""Green mark"",""Q4"":""either D or K""}","0","","","","","","","","","","","","","","","","","",""
"","start_exp","","html-keyboard-response","6","68125","0.0-1.0-1.0","0","0","76158","","886","","","32","","","","","","","","","","","","","","","","",""
"","S1","","html-keyboard-response","7","68378","0.0-1.0-2.0","0","0","76158","","null","","","null","0","","","","","","","","","","","","","","","",""
"","ISI","","html-keyboard-response","8","69380","0.0-1.0-3.0","0","0","76158","","null","","","null","0","NaN","","","","","","","","","","","","","","",""
"","S2","","html-keyboard-response","9","69640","0.0-1.0-4.0","0","0","76158","","null","","","null","0","","NaN","","","","","","","","","","","","","",""
"","response","","html-keyboard-response","10","71125","0.0-1.0-5.0-0.0","0","0","76158","","1483","","","68","0","","","1","0","training","adjacent","AB","1","2","L.jpg","M.jpg","1","1","1","",""
"","feedback","","html-keyboard-response","11","72128","0.0-1.0-6.0-0.0","0","0","76158","","null","","","null","0","","","","","","","","","","","","","","","",""
"","ITI","","html-keyboard-response","12","73131","0.0-1.0-9.0","0","0","76158","","null","","","null","0","","","","","","","","","","","","","","","NaN",""
"","S1","","html-keyboard-response","13","73383","0.0-1.0-11.0","0","0","76158","","null","","","null","1","","","","","","","","","","","","","","","",""
"","ISI","","html-keyboard-response","14","74385","0.0-1.0-12.0","0","0","76158","","null","","","null","1","NaN","","","","","","","","","","","","","","",""
"","S2","","html-keyboard-response","15","74639","0.0-1.0-13.0","0","0","76158","","null","","","null","1","","NaN","","","","","","","","","","","","","",""
"","response","","html-keyboard-response","16","74751","0.0-1.0-14.0-0.0","0","0","76158","","111","","","68","1","","","1","1","training","adjacent","AB","1","2","L.jpg","M.jpg","1","1","1","",""
"","feedback","","html-keyboard-response","17","75752","0.0-1.0-15.0-0.0","0","0","76158","","null","","","null","1","","","","","","","","","","","","","","","",""
"","ITI","","html-keyboard-response","18","76754","0.0-1.0-18.0","0","0","76158","","null","","","null","1","","","","","","","","","","","","","","","NaN",""
"","S1","","html-keyboard-response","19","77007","0.0-1.0-20.0","0","0","76158","","null","","","null","2","","","","","","","","","","","","","","","",""
"","ISI","","html-keyboard-response","20","78009","0.0-1.0-21.0","0","0","76158","","null","","","null","2","NaN","","","","","","","","","","","","","","",""
"","S2","","html-keyboard-response","21","78262","0.0-1.0-22.0","0","0","76158","","null","","","null","2","","NaN","","","","","","","","","","","","","",""
"","response","","html-keyboard-response","22","78489","0.0-1.0-23.0-0.0","0","0","76158","","225","","","75","2","","","1","2","training","adjacent","ED","5","4","P.jpg","R.jpg","0","0","1","",""
"","feedback","","html-keyboard-response","23","79492","0.0-1.0-24.0-0.0","0","0","76158","","null","","","null","2","","","","","","","","","","","","","","","",""
"","ITI","","html-keyboard-response","24","80494","0.0-1.0-27.0","0","0","76158","","null","","","null","2","","","","","","","","","","","","","","","NaN",""
"","S1","","html-keyboard-response","25","80747","0.0-1.0-29.0","0","0","76158","","null","","","null","3","","","","","","","","","","","","","","","",""
"","ISI","","html-keyboard-response","26","81749","0.0-1.0-30.0","0","0","76158","","null","","","null","3","NaN","","","","","","","","","","","","","","",""
"","S2","","html-keyboard-response","27","82001","0.0-1.0-31.0","0","0","76158","","null","","","null","3","","NaN","","","","","","","","","","","","","",""
"","response","","html-keyboard-response","28","82275","0.0-1.0-32.0-0.0","0","0","76158","","273","","","68","3","","","1","3","training","adjacent","DC","4","3","R.jpg","O.jpg","1","0","0","",""
"","feedback","","html-keyboard-response","29","83278","0.0-1.0-33.0-0.0","0","0","76158","","null","","","null","3","","","","","","","","","","","","","","","",""
"","time_out","","html-keyboard-response","30","85280","0.0-1.0-35.0-0.0","0","0","76158","","null","","","null","3","","","","","","","","","","","","","","","",""
"","ITI","","html-keyboard-response","31","86283","0.0-1.0-36.0","0","0","76158","","null","","","null","3","","","","","","","","","","","","","","","NaN",""
"","S1","","html-keyboard-response","32","86535","0.0-1.0-38.0","0","0","76158","","null","","","null","4","","","","","","","","","","","","","","","",""
"","ISI","","html-keyboard-response","33","87537","0.0-1.0-39.0","0","0","76158","","null","","","null","4","NaN","","","","","","","","","","","","","","",""
"","S2","","html-keyboard-response","34","87790","0.0-1.0-40.0","0","0","76158","","null","","","null","4","","NaN","","","","","","","","","","","","","",""
"","response","","html-keyboard-response","35","88496","0.0-1.0-41.0-0.0","0","0","76158","","705","","","68","4","","","1","4","training","adjacent","GF","7","6","N.jpg","Q.jpg","1","0","0","",""
"","feedback","","html-keyboard-response","36","89498","0.0-1.0-42.0-0.0","0","0","76158","","null","","","null","4","","","","","","","","","","","","","","","",""
"","time_out","","html-keyboard-response","37","91502","0.0-1.0-44.0-0.0","0","0","76158","","null","","","null","4","","","","","","","","","","","","","","","",""
"","ITI","","html-keyboard-response","38","92506","0.0-1.0-45.0","0","0","76158","","null","","","null","4","","","","","","","","","","","","","","","NaN",""
"","S1","","html-keyboard-response","39","92760","0.0-1.0-47.0","0","0","76158","","null","","","null","5","","","","","","","","","","","","","","","",""
"","ISI","","html-keyboard-response","40","93763","0.0-1.0-48.0","0","0","76158","","null","","","null","5","NaN","","","","","","","","","","","","","","",""
"","S2","","html-keyboard-response","41","94015","0.0-1.0-49.0","0","0","76158","","null","","","null","5","","NaN","","","","","","","","","","","","","",""
"","response","","html-keyboard-response","42","94355","0.0-1.0-50.0-0.0","0","0","76158","","339","","","68","5","","","1","5","training","adjacent","FG","6","7","Q.jpg","N.jpg","1","1","1","",""
"","feedback","","html-keyboard-response","43","95359","0.0-1.0-51.0-0.0","0","0","76158","","null","","","null","5","","","","","","","","","","","","","","","",""
"","ITI","","html-keyboard-response","44","96363","0.0-1.0-54.0","0","0","76158","","null","","","null","5","","","","","","","","","","","","","","","NaN",""
"","S1","","html-keyboard-response","45","96615","0.0-1.0-56.0","0","0","76158","","null","","","null","6","","","","","","","","","","","","","","","",""
"","ISI","","html-keyboard-response","46","97618","0.0-1.0-57.0","0","0","76158","","null","","","null","6","NaN","","","","","","","","","","","","","","",""
"","S2","","html-keyboard-response","47","97871","0.0-1.0-58.0","0","0","76158","","null","","","null","6","","NaN","","","","","","","","","","","","","",""
"","response","","html-keyboard-response","48","98471","0.0-1.0-59.0-0.0","0","0","76158","","599","","","68","6","","","1","6","training","adjacent","FE","6","5","Q.jpg","P.jpg","1","0","0","",""
"","feedback","","html-keyboard-response","49","99474","0.0-1.0-60.0-0.0","0","0","76158","","null","","","null","6","","","","","","","","","","","","","","","",""
"","time_out","","html-keyboard-response","50","101477","0.0-1.0-62.0-0.0","0","0","76158","","null","","","null","6","","","","","","","","","","","","","","","",""
"","ITI","","html-keyboard-response","51","102480","0.0-1.0-63.0","0","0","76158","","null","","","null","6","","","","","","","","","","","","","","","NaN",""
"","S1","","html-keyboard-response","52","102732","0.0-1.0-65.0","0","0","76158","","null","","","null","7","","","","","","","","","","","","","","","",""
"","ISI","","html-keyboard-response","53","103734","0.0-1.0-66.0","0","0","76158","","null","","","null","7","NaN","","","","","","","","","","","","","","",""
"","S2","","html-keyboard-response","54","103986","0.0-1.0-67.0","0","0","76158","","null","","","null","7","","NaN","","","","","","","","","","","","","",""
"","response","","html-keyboard-response","55","104470","0.0-1.0-68.0-0.0","0","0","76158","","483","","","68","7","","","1","7","training","adjacent","BC","2","3","M.jpg","O.jpg","1","1","1","",""
"","feedback","","html-keyboard-response","56","105473","0.0-1.0-69.0-0.0","0","0","76158","","null","","","null","7","","","","","","","","","","","","","","","",""
"","ITI","","html-keyboard-response","57","106475","0.0-1.0-72.0","0","0","76158","","null","","","null","7","","","","","","","","","","","","","","","NaN",""
"","S1","","html-keyboard-response","58","106728","0.0-1.0-74.0","0","0","76158","","null","","","null","8","","","","","","","","","","","","","","","",""
"","ISI","","html-keyboard-response","59","107730","0.0-1.0-75.0","0","0","76158","","null","","","null","8","NaN","","","","","","","","","","","","","","",""
"","S2","","html-keyboard-response","60","107983","0.0-1.0-76.0","0","0","76158","","null","","","null","8","","NaN","","","","","","","","","","","","","",""
"","response","","html-keyboard-response","61","108378","0.0-1.0-77.0-0.0","0","0","76158","","394","","","75","8","","","1","8","training","adjacent","BA","2","1","M.jpg","L.jpg","0","0","1","",""
"","feedback","","html-keyboard-response","62","109380","0.0-1.0-78.0-0.0","0","0","76158","","null","","","null","8","","","","","","","","","","","","","","","",""
"","ITI","","html-keyboard-response","63","110382","0.0-1.0-81.0","0","0","76158","","null","","","null","8","","","","","","","","","","","","","","","NaN",""
"","S1","","html-keyboard-response","64","110634","0.0-1.0-83.0","0","0","76158","","null","","","null","9","","","","","","","","","","","","","","","",""
"","ISI","","html-keyboard-response","65","111637","0.0-1.0-84.0","0","0","76158","","null","","","null","9","NaN","","","","","","","","","","","","","","",""
"","S2","","html-keyboard-response","66","111889","0.0-1.0-85.0","0","0","76158","","null","","","null","9","","NaN","","","","","","","","","","","","","",""
"","response","","html-keyboard-response","67","112299","0.0-1.0-86.0-0.0","0","0","76158","","409","","","68","9","","","1","9","training","adjacent","EF","5","6","P.jpg","Q.jpg","1","1","1","",""
"","feedback","","html-keyboard-response","68","113302","0.0-1.0-87.0-0.0","0","0","76158","","null","","","null","9","","","","","","","","","","","","","","","",""
"","ITI","","html-keyboard-response","69","114305","0.0-1.0-90.0","0","0","76158","","null","","","null","9","","","","","","","","","","","","","","","NaN",""
"","S1","","html-keyboard-response","70","114558","0.0-1.0-92.0","0","0","76158","","null","","","null","10","","","","","","","","","","","","","","","",""
"","ISI","","html-keyboard-response","71","115566","0.0-1.0-93.0","0","0","76158","","null","","","null","10","NaN","","","","","","","","","","","","","","",""
"","S2","","html-keyboard-response","72","115819","0.0-1.0-94.0","0","0","76158","","null","","","null","10","","NaN","","","","","","","","","","","","","",""
"","response","","html-keyboard-response","73","115896","0.0-1.0-95.0-0.0","0","0","76158","","76","","","75","10","","","1","10","training","adjacent","CB","3","2","O.jpg","M.jpg","0","0","1","",""
"","feedback","","html-keyboard-response","74","116899","0.0-1.0-96.0-0.0","0","0","76158","","null","","","null","10","","","","","","","","","","","","","","","",""
"","ITI","","html-keyboard-response","75","117902","0.0-1.0-99.0","0","0","76158","","null","","","null","10","","","","","","","","","","","","","","","NaN",""
"","S1","","html-keyboard-response","76","118155","0.0-1.0-101.0","0","0","76158","","null","","","null","11","","","","","","","","","","","","","","","",""
"","ISI","","html-keyboard-response","77","119157","0.0-1.0-102.0","0","0","76158","","null","","","null","11","NaN","","","","","","","","","","","","","","",""
"","S2","","html-keyboard-response","78","119410","0.0-1.0-103.0","0","0","76158","","null","","","null","11","","NaN","","","","","","","","","","","","","",""
"","response","","html-keyboard-response","79","119749","0.0-1.0-104.0-0.0","0","0","76158","","338","","","75","11","","","1","11","training","adjacent","BA","2","1","M.jpg","L.jpg","0","0","1","",""
"","feedback","","html-keyboard-response","80","120751","0.0-1.0-105.0-0.0","0","0","76158","","null","","","null","11","","","","","","","","","","","","","","","",""
"","ITI","","html-keyboard-response","81","121754","0.0-1.0-108.0","0","0","76158","","null","","","null","11","","","","","","","","","","","","","","","NaN",""
"","S1","","html-keyboard-response","82","122007","0.0-1.0-110.0","0","0","76158","","null","","","null","12","","","","","","","","","","","","","","","",""
"","ISI","","html-keyboard-response","83","123010","0.0-1.0-111.0","0","0","76158","","null","","","null","12","NaN","","","","","","","","","","","","","","",""
"","S2","","html-keyboard-response","84","123211","0.0-1.0-112.0","0","0","76158","","198","","","75","12","","k","1","12","training","adjacent","CB","3","2","O.jpg","M.jpg","0","0","1","",""
"","feedback","","html-keyboard-response","85","124215","0.0-1.0-114.0-0.0","0","0","76158","","null","","","null","12","","","","","","","","","","","","","","","",""
"","ITI","","html-keyboard-response","86","125216","0.0-1.0-117.0","0","0","76158","","null","","","null","12","","","","","","","","","","","","","","","NaN",""
"","S1","","html-keyboard-response","87","125468","0.0-1.0-119.0","0","0","76158","","null","","","null","13","","","","","","","","","","","","","","","",""
"","ISI","","html-keyboard-response","88","126470","0.0-1.0-120.0","0","0","76158","","null","","","null","13","NaN","","","","","","","","","","","","","","",""
"","S2","","html-keyboard-response","89","126731","0.0-1.0-121.0","0","0","76158","","null","","","null","13","","NaN","","","","","","","","","","","","","",""
"","response","","html-keyboard-response","90","127014","0.0-1.0-122.0-0.0","0","0","76158","","281","","","68","13","","","1","13","training","adjacent","DC","4","3","R.jpg","O.jpg","1","0","0","",""
"","feedback","","html-keyboard-response","91","128018","0.0-1.0-123.0-0.0","0","0","76158","","null","","","null","13","","","","","","","","","","","","","","","",""
"","time_out","","html-keyboard-response","92","130021","0.0-1.0-125.0-0.0","0","0","76158","","null","","","null","13","","","","","","","","","","","","","","","",""
"","ITI","","html-keyboard-response","93","131024","0.0-1.0-126.0","0","0","76158","","null","","","null","13","","","","","","","","","","","","","","","NaN",""
"","S1","","html-keyboard-response","94","131276","0.0-1.0-128.0","0","0","76158","","null","","","null","14","","","","","","","","","","","","","","","",""
"","ISI","","html-keyboard-response","95","132278","0.0-1.0-129.0","0","0","76158","","null","","","null","14","NaN","","","","","","","","","","","","","","",""
"","S2","","html-keyboard-response","96","132530","0.0-1.0-130.0","0","0","76158","","null","","","null","14","","NaN","","","","","","","","","","","","","",""
"","response","","html-keyboard-response","97","132629","0.0-1.0-131.0-0.0","0","0","76158","","98","","","68","14","","","1","14","training","adjacent","AB","1","2","L.jpg","M.jpg","1","1","1","",""
"","feedback","","html-keyboard-response","98","133631","0.0-1.0-132.0-0.0","0","0","76158","","null","","","null","14","","","","","","","","","","","","","","","",""
"","ITI","","html-keyboard-response","99","134634","0.0-1.0-135.0","0","0","76158","","null","","","null","14","","","","","","","","","","","","","","","NaN",""
"","S1","","html-keyboard-response","100","134885","0.0-1.0-137.0","0","0","76158","","null","","","null","15","","","","","","","","","","","","","","","",""
"","ISI","","html-keyboard-response","101","135888","0.0-1.0-138.0","0","0","76158","","null","","","null","15","NaN","","","","","","","","","","","","","","",""
"","S2","","html-keyboard-response","102","136149","0.0-1.0-139.0","0","0","76158","","null","","","null","15","","NaN","","","","","","","","","","","","","",""
"","response","","html-keyboard-response","103","136564","0.0-1.0-140.0-0.0","0","0","76158","","413","","","68","15","","","1","15","training","adjacent","BC","2","3","M.jpg","O.jpg","1","1","1","",""
"","feedback","","html-keyboard-response","104","137566","0.0-1.0-141.0-0.0","0","0","76158","","null","","","null","15","","","","","","","","","","","","","","","",""
"","ITI","","html-keyboard-response","105","138569","0.0-1.0-144.0","0","0","76158","","null","","","null","15","","","","","","","","","","","","","","","NaN",""
"","S1","","html-keyboard-response","106","138822","0.0-1.0-146.0","0","0","76158","","null","","","null","16","","","","","","","","","","","","","","","",""
"","ISI","","html-keyboard-response","107","139824","0.0-1.0-147.0","0","0","76158","","null","","","null","16","NaN","","","","","","","","","","","","","","",""
"","S2","","html-keyboard-response","108","140077","0.0-1.0-148.0","0","0","76158","","null","","","null","16","","NaN","","","","","","","","","","","","","",""
"","response","","html-keyboard-response","109","140484","0.0-1.0-149.0-0.0","0","0","76158","","406","","","75","16","","","1","16","training","adjacent","CB","3","2","O.jpg","M.jpg","0","0","1","",""
"","feedback","","html-keyboard-response","110","141488","0.0-1.0-150.0-0.0","0","0","76158","","null","","","null","16","","","","","","","","","","","","","","","",""
"","ITI","","html-keyboard-response","111","142490","0.0-1.0-153.0","0","0","76158","","null","","","null","16","","","","","","","","","","","","","","","NaN",""
"","S1","","html-keyboard-response","112","142743","0.0-1.0-155.0","0","0","76158","","null","","","null","17","","","","","","","","","","","","","","","",""
"","ISI","","html-keyboard-response","113","143746","0.0-1.0-156.0","0","0","76158","","null","","","null","17","NaN","","","","","","","","","","","","","","",""
"","S2","","html-keyboard-response","114","144002","0.0-1.0-157.0","0","0","76158","","null","","","null","17","","NaN","","","","","","","","","","","","","",""
"","response","","html-keyboard-response","115","144398","0.0-1.0-158.0-0.0","0","0","76158","","393","","","68","17","","","1","17","training","adjacent","DC","4","3","R.jpg","O.jpg","1","0","0","",""
"","feedback","","html-keyboard-response","116","145402","0.0-1.0-159.0-0.0","0","0","76158","","null","","","null","17","","","","","","","","","","","","","","","",""
"","time_out","","html-keyboard-response","117","147404","0.0-1.0-161.0-0.0","0","0","76158","","null","","","null","17","","","","","","","","","","","","","","","",""
"","ITI","","html-keyboard-response","118","148406","0.0-1.0-162.0","0","0","76158","","null","","","null","17","","","","","","","","","","","","","","","NaN",""
"","S1","","html-keyboard-response","119","148658","0.0-1.0-164.0","0","0","76158","","null","","","null","18","","","","","","","","","","","","","","","",""
"","ISI","","html-keyboard-response","120","149661","0.0-1.0-165.0","0","0","76158","","null","","","null","18","NaN","","","","","","","","","","","","","","",""
"","S2","","html-keyboard-response","121","149914","0.0-1.0-166.0","0","0","76158","","null","","","null","18","","NaN","","","","","","","","","","","","","",""
"","response","","html-keyboard-response","122","150693","0.0-1.0-167.0-0.0","0","0","76158","","778","","","75","18","","","1","18","training","adjacent","EF","5","6","P.jpg","Q.jpg","0","1","0","",""
"","feedback","","html-keyboard-response","123","151710","0.0-1.0-168.0-0.0","0","0","76158","","null","","","null","18","","","","","","","","","","","","","","","",""
"","time_out","","html-keyboard-response","124","153712","0.0-1.0-170.0-0.0","0","0","76158","","null","","","null","18","","","","","","","","","","","","","","","",""
"","ITI","","html-keyboard-response","125","154716","0.0-1.0-171.0","0","0","76158","","null","","","null","18","","","","","","","","","","","","","","","NaN",""
"","S1","","html-keyboard-response","126","154969","0.0-1.0-173.0","0","0","76158","","null","","","null","19","","","","","","","","","","","","","","","",""
"","ISI","","html-keyboard-response","127","155971","0.0-1.0-174.0","0","0","76158","","null","","","null","19","NaN","","","","","","","","","","","","","","",""
"","S2","","html-keyboard-response","128","156224","0.0-1.0-175.0","0","0","76158","","null","","","null","19","","NaN","","","","","","","","","","","","","",""
"","response","","html-keyboard-response","129","156812","0.0-1.0-176.0-0.0","0","0","76158","","587","","","75","19","","","1","19","training","adjacent","ED","5","4","P.jpg","R.jpg","0","0","1","",""
"","feedback","","html-keyboard-response","130","157815","0.0-1.0-177.0-0.0","0","0","76158","","null","","","null","19","","","","","","","","","","","","","","","",""
"","ITI","","html-keyboard-response","131","158818","0.0-1.0-180.0","0","0","76158","","null","","","null","19","","","","","","","","","","","","","","","NaN",""
"","S1","","html-keyboard-response","132","159070","0.0-1.0-182.0","0","0","76158","","null","","","null","20","","","","","","","","","","","","","","","",""
"","ISI","","html-keyboard-response","133","160073","0.0-1.0-183.0","0","0","76158","","null","","","null","20","NaN","","","","","","","","","","","","","","",""
"","S2","","html-keyboard-response","134","160326","0.0-1.0-184.0","0","0","76158","","null","","","null","20","","NaN","","","","","","","","","","","","","",""
"","response","","html-keyboard-response","135","160767","0.0-1.0-185.0-0.0","0","0","76158","","440","","","68","20","","","1","20","training","adjacent","FG","6","7","Q.jpg","N.jpg","1","1","1","",""
"","feedback","","html-keyboard-response","136","161770","0.0-1.0-186.0-0.0","0","0","76158","","null","","","null","20","","","","","","","","","","","","","","","",""
"","ITI","","html-keyboard-response","137","162772","0.0-1.0-189.0","0","0","76158","","null","","","null","20","","","","","","","","","","","","","","","NaN",""
"","S1","","html-keyboard-response","138","163024","0.0-1.0-191.0","0","0","76158","","null","","","null","21","","","","","","","","","","","","","","","",""
"","ISI","","html-keyboard-response","139","164027","0.0-1.0-192.0","0","0","76158","","null","","","null","21","NaN","","","","","","","","","","","","","","",""
"","S2","","html-keyboard-response","140","164280","0.0-1.0-193.0","0","0","76158","","null","","","null","21","","NaN","","","","","","","","","","","","","",""
"","response","","html-keyboard-response","141","164639","0.0-1.0-194.0-0.0","0","0","76158","","358","","","68","21","","","1","21","training","adjacent","DC","4","3","R.jpg","O.jpg","1","0","0","",""
"","feedback","","html-keyboard-response","142","165641","0.0-1.0-195.0-0.0","0","0","76158","","null","","","null","21","","","","","","","","","","","","","","","",""
"","time_out","","html-keyboard-response","143","167643","0.0-1.0-197.0-0.0","0","0","76158","","null","","","null","21","","","","","","","","","","","","","","","",""
"","ITI","","html-keyboard-response","144","168658","0.0-1.0-198.0","0","0","76158","","null","","","null","21","","","","","","","","","","","","","","","NaN",""
"","S1","","html-keyboard-response","145","168910","0.0-1.0-200.0","0","0","76158","","null","","","null","22","","","","","","","","","","","","","","","",""
"","ISI","","html-keyboard-response","146","169912","0.0-1.0-201.0","0","0","76158","","null","","","null","22","NaN","","","","","","","","","","","","","","",""
"","S2","","html-keyboard-response","147","170165","0.0-1.0-202.0","0","0","76158","","null","","","null","22","","NaN","","","","","","","","","","","","","",""
"","response","","html-keyboard-response","148","170881","0.0-1.0-203.0-0.0","0","0","76158","","714","","","75","22","","","1","22","training","adjacent","DE","4","5","R.jpg","P.jpg","0","1","0","",""
"","feedback","","html-keyboard-response","149","171883","0.0-1.0-204.0-0.0","0","0","76158","","null","","","null","22","","","","","","","","","","","","","","","",""
"","time_out","","html-keyboard-response","150","173884","0.0-1.0-206.0-0.0","0","0","76158","","null","","","null","22","","","","","","","","","","","","","","","",""
"","ITI","","html-keyboard-response","151","174887","0.0-1.0-207.0","0","0","76158","","null","","","null","22","","","","","","","","","","","","","","","NaN",""
"","S1","","html-keyboard-response","152","175140","0.0-1.0-209.0","0","0","76158","","null","","","null","23","","","","","","","","","","","","","","","",""
"","ISI","","html-keyboard-response","153","176143","0.0-1.0-210.0","0","0","76158","","null","","","null","23","NaN","","","","","","","","","","","","","","",""
"","S2","","html-keyboard-response","154","176396","0.0-1.0-211.0","0","0","76158","","null","","","null","23","","NaN","","","","","","","","","","","","","",""
"","response","","html-keyboard-response","155","176916","0.0-1.0-212.0-0.0","0","0","76158","","519","","","75","23","","","1","23","training","adjacent","ED","5","4","P.jpg","R.jpg","0","0","1","",""
"","feedback","","html-keyboard-response","156","177918","0.0-1.0-213.0-0.0","0","0","76158","","null","","","null","23","","","","","","","","","","","","","","","",""
"","ITI","","html-keyboard-response","157","178921","0.0-1.0-216.0","0","0","76158","","null","","","null","23","","","","","","","","","","","","","","","NaN",""
"","S1","","html-keyboard-response","158","179185","0.0-1.0-218.0","0","0","76158","","null","","","null","24","","","","","","","","","","","","","","","",""
"","ISI","","html-keyboard-response","159","180187","0.0-1.0-219.0","0","0","76158","","null","","","null","24","NaN","","","","","","","","","","","","","","",""
"","S2","","html-keyboard-response","160","180440","0.0-1.0-220.0","0","0","76158","","null","","","null","24","","NaN","","","","","","","","","","","","","",""
"","response","","html-keyboard-response","161","181022","0.0-1.0-221.0-0.0","0","0","76158","","581","","","68","24","","","1","24","training","adjacent","BC","2","3","M.jpg","O.jpg","1","1","1","",""
"","feedback","","html-keyboard-response","162","182026","0.0-1.0-222.0-0.0","0","0","76158","","null","","","null","24","","","","","","","","","","","","","","","",""
"","ITI","","html-keyboard-response","163","183030","0.0-1.0-225.0","0","0","76158","","null","","","null","24","","","","","","","","","","","","","","","NaN",""
"","S1","","html-keyboard-response","164","183282","0.0-1.0-227.0","0","0","76158","","null","","","null","25","","","","","","","","","","","","","","","",""
"","ISI","","html-keyboard-response","165","184284","0.0-1.0-228.0","0","0","76158","","null","","","null","25","NaN","","","","","","","","","","","","","","",""
"","S2","","html-keyboard-response","166","184537","0.0-1.0-229.0","0","0","76158","","null","","","null","25","","NaN","","","","","","","","","","","","","",""
"","response","","html-keyboard-response","167","185004","0.0-1.0-230.0-0.0","0","0","76158","","465","","","68","25","","","1","25","training","adjacent","DE","4","5","R.jpg","P.jpg","1","1","1","",""
"","feedback","","html-keyboard-response","168","186006","0.0-1.0-231.0-0.0","0","0","76158","","null","","","null","25","","","","","","","","","","","","","","","",""
"","ITI","","html-keyboard-response","169","187008","0.0-1.0-234.0","0","0","76158","","null","","","null","25","","","","","","","","","","","","","","","NaN",""
"","S1","","html-keyboard-response","170","187260","0.0-1.0-236.0","0","0","76158","","null","","","null","26","","","","","","","","","","","","","","","",""
"","ISI","","html-keyboard-response","171","188263","0.0-1.0-237.0","0","0","76158","","null","","","null","26","NaN","","","","","","","","","","","","","","",""
"","S2","","html-keyboard-response","172","188516","0.0-1.0-238.0","0","0","76158","","null","","","null","26","","NaN","","","","","","","","","","","","","",""
"","response","","html-keyboard-response","173","189235","0.0-1.0-239.0-0.0","0","0","76158","","718","","","68","26","","","1","26","training","adjacent","DE","4","5","R.jpg","P.jpg","1","1","1","",""
"","feedback","","html-keyboard-response","174","190238","0.0-1.0-240.0-0.0","0","0","76158","","null","","","null","26","","","","","","","","","","","","","","","",""
"","ITI","","html-keyboard-response","175","191241","0.0-1.0-243.0","0","0","76158","","null","","","null","26","","","","","","","","","","","","","","","NaN",""
"","S1","","html-keyboard-response","176","191493","0.0-1.0-245.0","0","0","76158","","null","","","null","27","","","","","","","","","","","","","","","",""
"","ISI","","html-keyboard-response","177","192495","0.0-1.0-246.0","0","0","76158","","null","","","null","27","NaN","","","","","","","","","","","","","","",""
"","S2","","html-keyboard-response","178","192747","0.0-1.0-247.0","0","0","76158","","null","","","null","27","","NaN","","","","","","","","","","","","","",""
"","response","","html-keyboard-response","179","193071","0.0-1.0-248.0-0.0","0","0","76158","","323","","","75","27","","","1","27","training","adjacent","CD","3","4","O.jpg","R.jpg","0","1","0","",""
"","feedback","","html-keyboard-response","180","194073","0.0-1.0-249.0-0.0","0","0","76158","","null","","","null","27","","","","","","","","","","","","","","","",""
"","time_out","","html-keyboard-response","181","196076","0.0-1.0-251.0-0.0","0","0","76158","","null","","","null","27","","","","","","","","","","","","","","","",""
"","ITI","","html-keyboard-response","182","197079","0.0-1.0-252.0","0","0","76158","","null","","","null","27","","","","","","","","","","","","","","","NaN",""
"","S1","","html-keyboard-response","183","197331","0.0-1.0-254.0","0","0","76158","","null","","","null","28","","","","","","","","","","","","","","","",""
"","ISI","","html-keyboard-response","184","198333","0.0-1.0-255.0","0","0","76158","","null","","","null","28","NaN","","","","","","","","","","","","","","",""
"","S2","","html-keyboard-response","185","198585","0.0-1.0-256.0","0","0","76158","","null","","","null","28","","NaN","","","","","","","","","","","","","",""
"","response","","html-keyboard-response","186","199302","0.0-1.0-257.0-0.0","0","0","76158","","715","","","68","28","","","1","28","training","adjacent","GF","7","6","N.jpg","Q.jpg","1","0","0","",""
"","feedback","","html-keyboard-response","187","200305","0.0-1.0-258.0-0.0","0","0","76158","","null","","","null","28","","","","","","","","","","","","","","","",""
"","time_out","","html-keyboard-response","188","202308","0.0-1.0-260.0-0.0","0","0","76158","","null","","","null","28","","","","","","","","","","","","","","","",""
"","ITI","","html-keyboard-response","189","203310","0.0-1.0-261.0","0","0","76158","","null","","","null","28","","","","","","","","","","","","","","","NaN",""
"","S1","","html-keyboard-response","190","203577","0.0-1.0-263.0","0","0","76158","","null","","","null","29","","","","","","","","","","","","","","","",""
"","ISI","","html-keyboard-response","191","204580","0.0-1.0-264.0","0","0","76158","","null","","","null","29","NaN","","","","","","","","","","","","","","",""
"","S2","","html-keyboard-response","192","204833","0.0-1.0-265.0","0","0","76158","","null","","","null","29","","NaN","","","","","","","","","","","","","",""
"","response","","html-keyboard-response","193","205545","0.0-1.0-266.0-0.0","0","0","76158","","710","","","68","29","","","1","29","training","adjacent","EF","5","6","P.jpg","Q.jpg","1","1","1","",""
"","feedback","","html-keyboard-response","194","206547","0.0-1.0-267.0-0.0","0","0","76158","","null","","","null","29","","","","","","","","","","","","","","","",""
"","ITI","","html-keyboard-response","195","207549","0.0-1.0-270.0","0","0","76158","","null","","","null","29","","","","","","","","","","","","","","","NaN",""
"","S1","","html-keyboard-response","196","207802","0.0-1.0-272.0","0","0","76158","","null","","","null","30","","","","","","","","","","","","","","","",""
"","ISI","","html-keyboard-response","197","208805","0.0-1.0-273.0","0","0","76158","","null","","","null","30","NaN","","","","","","","","","","","","","","",""
"","S2","","html-keyboard-response","198","209057","0.0-1.0-274.0","0","0","76158","","null","","","null","30","","NaN","","","","","","","","","","","","","",""
"","response","","html-keyboard-response","199","209348","0.0-1.0-275.0-0.0","0","0","76158","","288","","","75","30","","","1","30","training","adjacent","GF","7","6","N.jpg","Q.jpg","0","0","1","",""
"","feedback","","html-keyboard-response","200","210355","0.0-1.0-276.0-0.0","0","0","76158","","null","","","null","30","","","","","","","","","","","","","","","",""
"","ITI","","html-keyboard-response","201","211358","0.0-1.0-279.0","0","0","76158","","null","","","null","30","","","","","","","","","","","","","","","NaN",""
"","S1","","html-keyboard-response","202","211611","0.0-1.0-281.0","0","0","76158","","null","","","null","31","","","","","","","","","","","","","","","",""
"","ISI","","html-keyboard-response","203","212613","0.0-1.0-282.0","0","0","76158","","null","","","null","31","NaN","","","","","","","","","","","","","","",""
"","S2","","html-keyboard-response","204","212866","0.0-1.0-283.0","0","0","76158","","null","","","null","31","","NaN","","","","","","","","","","","","","",""
"","response","","html-keyboard-response","205","213249","0.0-1.0-284.0-0.0","0","0","76158","","382","","","68","31","","","1","31","training","adjacent","DE","4","5","R.jpg","P.jpg","1","1","1","",""
"","feedback","","html-keyboard-response","206","214252","0.0-1.0-285.0-0.0","0","0","76158","","null","","","null","31","","","","","","","","","","","","","","","",""
"","ITI","","html-keyboard-response","207","215255","0.0-1.0-288.0","0","0","76158","","null","","","null","31","","","","","","","","","","","","","","","NaN",""
"","S1","","html-keyboard-response","208","215507","0.0-1.0-290.0","0","0","76158","","null","","","null","32","","","","","","","","","","","","","","","",""
"","ISI","","html-keyboard-response","209","216509","0.0-1.0-291.0","0","0","76158","","null","","","null","32","NaN","","","","","","","","","","","","","","",""
"","S2","","html-keyboard-response","210","216761","0.0-1.0-292.0","0","0","76158","","null","","","null","32","","NaN","","","","","","","","","","","","","",""
"","response","","html-keyboard-response","211","216772","0.0-1.0-293.0-0.0","0","0","76158","","10","","","68","32","","","1","32","training","adjacent","AB","1","2","L.jpg","M.jpg","1","1","1","",""
"","feedback","","html-keyboard-response","212","217775","0.0-1.0-294.0-0.0","0","0","76158","","null","","","null","32","","","","","","","","","","","","","","","",""
"","ITI","","html-keyboard-response","213","218777","0.0-1.0-297.0","0","0","76158","","null","","","null","32","","","","","","","","","","","","","","","NaN",""
"","S1","","html-keyboard-response","214","219030","0.0-1.0-299.0","0","0","76158","","null","","","null","33","","","","","","","","","","","","","","","",""
"","ISI","","html-keyboard-response","215","220034","0.0-1.0-300.0","0","0","76158","","null","","","null","33","NaN","","","","","","","","","","","","","","",""
"","S2","","html-keyboard-response","216","220287","0.0-1.0-301.0","0","0","76158","","null","","","null","33","","NaN","","","","","","","","","","","","","",""
"","response","","html-keyboard-response","217","220746","0.0-1.0-302.0-0.0","0","0","76158","","458","","","75","33","","","1","33","training","adjacent","CB","3","2","O.jpg","M.jpg","0","0","1","",""
"","feedback","","html-keyboard-response","218","221749","0.0-1.0-303.0-0.0","0","0","76158","","null","","","null","33","","","","","","","","","","","","","","","",""
"","ITI","","html-keyboard-response","219","222751","0.0-1.0-306.0","0","0","76158","","null","","","null","33","","","","","","","","","","","","","","","NaN",""
"","S1","","html-keyboard-response","220","223003","0.0-1.0-308.0","0","0","76158","","null","","","null","34","","","","","","","","","","","","","","","",""
"","ISI","","html-keyboard-response","221","224005","0.0-1.0-309.0","0","0","76158","","null","","","null","34","NaN","","","","","","","","","","","","","","",""
"","S2","","html-keyboard-response","222","224258","0.0-1.0-310.0","0","0","76158","","null","","","null","34","","NaN","","","","","","","","","","","","","",""
"","response","","html-keyboard-response","223","224883","0.0-1.0-311.0-0.0","0","0","76158","","624","","","68","34","","","1","34","training","adjacent","BC","2","3","M.jpg","O.jpg","1","1","1","",""
"","feedback","","html-keyboard-response","224","225886","0.0-1.0-312.0-0.0","0","0","76158","","null","","","null","34","","","","","","","","","","","","","","","",""
"","ITI","","html-keyboard-response","225","226889","0.0-1.0-315.0","0","0","76158","","null","","","null","34","","","","","","","","","","","","","","","NaN",""
"","S1","","html-keyboard-response","226","227141","0.0-1.0-317.0","0","0","76158","","null","","","null","35","","","","","","","","","","","","","","","",""
"","ISI","","html-keyboard-response","227","228143","0.0-1.0-318.0","0","0","76158","","null","","","null","35","NaN","","","","","","","","","","","","","","",""
"","S2","","html-keyboard-response","228","228395","0.0-1.0-319.0","0","0","76158","","null","","","null","35","","NaN","","","","","","","","","","","","","",""
"","response","","html-keyboard-response","229","229238","0.0-1.0-320.0-0.0","0","0","76158","","841","","","68","35","","","1","35","training","adjacent","FE","6","5","Q.jpg","P.jpg","1","0","0","",""
"","feedback","","html-keyboard-response","230","230241","0.0-1.0-321.0-0.0","0","0","76158","","null","","","null","35","","","","","","","","","","","","","","","",""
"","time_out","","html-keyboard-response","231","232243","0.0-1.0-323.0-0.0","0","0","76158","","null","","","null","35","","","","","","","","","","","","","","","",""
"","ITI","","html-keyboard-response","232","233246","0.0-1.0-324.0","0","0","76158","","null","","","null","35","","","","","","","","","","","","","","","NaN",""
"","S1","","html-keyboard-response","233","233498","0.0-1.0-326.0","0","0","76158","","null","","","null","36","","","","","","","","","","","","","","","",""
"","ISI","","html-keyboard-response","234","234500","0.0-1.0-327.0","0","0","76158","","null","","","null","36","NaN","","","","","","","","","","","","","","",""
"","S2","","html-keyboard-response","235","234753","0.0-1.0-328.0","0","0","76158","","null","","","null","36","","NaN","","","","","","","","","","","","","",""
"","response","","html-keyboard-response","236","235354","0.0-1.0-329.0-0.0","0","0","76158","","599","","","75","36","","","1","36","training","adjacent","EF","5","6","P.jpg","Q.jpg","0","1","0","",""
"","feedback","","html-keyboard-response","237","236358","0.0-1.0-330.0-0.0","0","0","76158","","null","","","null","36","","","","","","","","","","","","","","","",""
"","time_out","","html-keyboard-response","238","238360","0.0-1.0-332.0-0.0","0","0","76158","","null","","","null","36","","","","","","","","","","","","","","","",""
"","ITI","","html-keyboard-response","239","239363","0.0-1.0-333.0","0","0","76158","","null","","","null","36","","","","","","","","","","","","","","","NaN",""
"","S1","","html-keyboard-response","240","239615","0.0-1.0-335.0","0","0","76158","","null","","","null","37","","","","","","","","","","","","","","","",""
"","ISI","","html-keyboard-response","241","240618","0.0-1.0-336.0","0","0","76158","","null","","","null","37","NaN","","","","","","","","","","","","","","",""
"","S2","","html-keyboard-response","242","240870","0.0-1.0-337.0","0","0","76158","","null","","","null","37","","NaN","","","","","","","","","","","","","",""
"","response","","html-keyboard-response","243","241460","0.0-1.0-338.0-0.0","0","0","76158","","589","","","68","37","","","1","37","training","adjacent","CD","3","4","O.jpg","R.jpg","1","1","1","",""
"","feedback","","html-keyboard-response","244","242462","0.0-1.0-339.0-0.0","0","0","76158","","null","","","null","37","","","","","","","","","","","","","","","",""
"","ITI","","html-keyboard-response","245","243465","0.0-1.0-342.0","0","0","76158","","null","","","null","37","","","","","","","","","","","","","","","NaN",""
"","S1","","html-keyboard-response","246","243718","0.0-1.0-344.0","0","0","76158","","null","","","null","38","","","","","","","","","","","","","","","",""
"","ISI","","html-keyboard-response","247","244720","0.0-1.0-345.0","0","0","76158","","null","","","null","38","NaN","","","","","","","","","","","","","","",""
"","S2","","html-keyboard-response","248","244973","0.0-1.0-346.0","0","0","76158","","null","","","null","38","","NaN","","","","","","","","","","","","","",""
"","response","","html-keyboard-response","249","245463","0.0-1.0-347.0-0.0","0","0","76158","","488","","","68","38","","","1","38","training","adjacent","FG","6","7","Q.jpg","N.jpg","1","1","1","",""
"","feedback","","html-keyboard-response","250","246466","0.0-1.0-348.0-0.0","0","0","76158","","null","","","null","38","","","","","","","","","","","","","","","",""
"","ITI","","html-keyboard-response","251","247467","0.0-1.0-351.0","0","0","76158","","null","","","null","38","","","","","","","","","","","","","","","NaN",""
"","S1","","html-keyboard-response","252","247719","0.0-1.0-353.0","0","0","76158","","null","","","null","39","","","","","","","","","","","","","","","",""
"","ISI","","html-keyboard-response","253","248723","0.0-1.0-354.0","0","0","76158","","null","","","null","39","NaN","","","","","","","","","","","","","","",""
"","S2","","html-keyboard-response","254","248976","0.0-1.0-355.0","0","0","76158","","null","","","null","39","","NaN","","","","","","","","","","","","","",""
"","response","","html-keyboard-response","255","249267","0.0-1.0-356.0-0.0","0","0","76158","","290","","","75","39","","","1","39","training","adjacent","CD","3","4","O.jpg","R.jpg","0","1","0","",""
"","feedback","","html-keyboard-response","256","250270","0.0-1.0-357.0-0.0","0","0","76158","","null","","","null","39","","","","","","","","","","","","","","","",""
"","time_out","","html-keyboard-response","257","252272","0.0-1.0-359.0-0.0","0","0","76158","","null","","","null","39","","","","","","","","","","","","","","","",""
"","ITI","","html-keyboard-response","258","253274","0.0-1.0-360.0","0","0","76158","","null","","","null","39","","","","","","","","","","","","","","","NaN",""
"","S1","","html-keyboard-response","259","253527","0.0-1.0-362.0","0","0","76158","","null","","","null","40","","","","","","","","","","","","","","","",""
"","ISI","","html-keyboard-response","260","254530","0.0-1.0-363.0","0","0","76158","","null","","","null","40","NaN","","","","","","","","","","","","","","",""
"","S2","","html-keyboard-response","261","254782","0.0-1.0-364.0","0","0","76158","","null","","","null","40","","NaN","","","","","","","","","","","","","",""
"","response","","html-keyboard-response","262","255211","0.0-1.0-365.0-0.0","0","0","76158","","428","","","68","40","","","1","40","training","adjacent","FG","6","7","Q.jpg","N.jpg","1","1","1","",""
"","feedback","","html-keyboard-response","263","256214","0.0-1.0-366.0-0.0","0","0","76158","","null","","","null","40","","","","","","","","","","","","","","","",""
"","ITI","","html-keyboard-response","264","257216","0.0-1.0-369.0","0","0","76158","","null","","","null","40","","","","","","","","","","","","","","","NaN",""
"","S1","","html-keyboard-response","265","257468","0.0-1.0-371.0","0","0","76158","","null","","","null","41","","","","","","","","","","","","","","","",""
"","ISI","","html-keyboard-response","266","258471","0.0-1.0-372.0","0","0","76158","","null","","","null","41","NaN","","","","","","","","","","","","","","",""
"","S2","","html-keyboard-response","267","258723","0.0-1.0-373.0","0","0","76158","","null","","","null","41","","NaN","","","","","","","","","","","","","",""
"","response","","html-keyboard-response","268","259135","0.0-1.0-374.0-0.0","0","0","76158","","411","","","75","41","","","1","41","training","adjacent","BA","2","1","M.jpg","L.jpg","0","0","1","",""
"","feedback","","html-keyboard-response","269","260137","0.0-1.0-375.0-0.0","0","0","76158","","null","","","null","41","","","","","","","","","","","","","","","",""
"","ITI","","html-keyboard-response","270","261140","0.0-1.0-378.0","0","0","76158","","null","","","null","41","","","","","","","","","","","","","","","NaN",""
"","S1","","html-keyboard-response","271","261392","0.0-1.0-380.0","0","0","76158","","null","","","null","42","","","","","","","","","","","","","","","",""
"","ISI","","html-keyboard-response","272","262395","0.0-1.0-381.0","0","0","76158","","null","","","null","42","NaN","","","","","","","","","","","","","","",""
"","S2","","html-keyboard-response","273","262647","0.0-1.0-382.0","0","0","76158","","null","","","null","42","","NaN","","","","","","","","","","","","","",""
"","response","","html-keyboard-response","274","263011","0.0-1.0-383.0-0.0","0","0","76158","","363","","","75","42","","","1","42","training","adjacent","BA","2","1","M.jpg","L.jpg","0","0","1","",""
"","feedback","","html-keyboard-response","275","264015","0.0-1.0-384.0-0.0","0","0","76158","","null","","","null","42","","","","","","","","","","","","","","","",""
"","ITI","","html-keyboard-response","276","265017","0.0-1.0-387.0","0","0","76158","","null","","","null","42","","","","","","","","","","","","","","","NaN",""
"","S1","","html-keyboard-response","277","265269","0.0-1.0-389.0","0","0","76158","","null","","","null","43","","","","","","","","","","","","","","","",""
"","ISI","","html-keyboard-response","278","266272","0.0-1.0-390.0","0","0","76158","","null","","","null","43","NaN","","","","","","","","","","","","","","",""
"","S2","","html-keyboard-response","279","266525","0.0-1.0-391.0","0","0","76158","","null","","","null","43","","NaN","","","","","","","","","","","","","",""
"","response","","html-keyboard-response","280","267228","0.0-1.0-392.0-0.0","0","0","76158","","702","","","68","43","","","1","43","training","adjacent","FE","6","5","Q.jpg","P.jpg","1","0","0","",""
"","feedback","","html-keyboard-response","281","268230","0.0-1.0-393.0-0.0","0","0","76158","","null","","","null","43","","","","","","","","","","","","","","","",""
"","time_out","","html-keyboard-response","282","270232","0.0-1.0-395.0-0.0","0","0","76158","","null","","","null","43","","","","","","","","","","","","","","","",""
"","ITI","","html-keyboard-response","283","271236","0.0-1.0-396.0","0","0","76158","","null","","","null","43","","","","","","","","","","","","","","","NaN",""
"","S1","","html-keyboard-response","284","271488","0.0-1.0-398.0","0","0","76158","","null","","","null","44","","","","","","","","","","","","","","","",""
"","ISI","","html-keyboard-response","285","272490","0.0-1.0-399.0","0","0","76158","","null","","","null","44","NaN","","","","","","","","","","","","","","",""
"","S2","","html-keyboard-response","286","272742","0.0-1.0-400.0","0","0","76158","","null","","","null","44","","NaN","","","","","","","","","","","","","",""
"","response","","html-keyboard-response","287","273423","0.0-1.0-401.0-0.0","0","0","76158","","678","","","68","44","","","1","44","training","adjacent","ED","5","4","P.jpg","R.jpg","1","0","0","",""
"","feedback","","html-keyboard-response","288","274426","0.0-1.0-402.0-0.0","0","0","76158","","null","","","null","44","","","","","","","","","","","","","","","",""
"","time_out","","html-keyboard-response","289","276429","0.0-1.0-404.0-0.0","0","0","76158","","null","","","null","44","","","","","","","","","","","","","","","",""
"","ITI","","html-keyboard-response","290","277430","0.0-1.0-405.0","0","0","76158","","null","","","null","44","","","","","","","","","","","","","","","NaN",""
"","S1","","html-keyboard-response","291","277683","0.0-1.0-407.0","0","0","76158","","null","","","null","45","","","","","","","","","","","","","","","",""
"","ISI","","html-keyboard-response","292","278687","0.0-1.0-408.0","0","0","76158","","null","","","null","45","NaN","","","","","","","","","","","","","","",""
"","S2","","html-keyboard-response","293","278939","0.0-1.0-409.0","0","0","76158","","null","","","null","45","","NaN","","","","","","","","","","","","","",""
"","response","","html-keyboard-response","294","279474","0.0-1.0-410.0-0.0","0","0","76158","","533","","","75","45","","","1","45","training","adjacent","CD","3","4","O.jpg","R.jpg","0","1","0","",""
"","feedback","","html-keyboard-response","295","280476","0.0-1.0-411.0-0.0","0","0","76158","","null","","","null","45","","","","","","","","","","","","","","","",""
"","time_out","","html-keyboard-response","296","282478","0.0-1.0-413.0-0.0","0","0","76158","","null","","","null","45","","","","","","","","","","","","","","","",""
"","ITI","","html-keyboard-response","297","283480","0.0-1.0-414.0","0","0","76158","","null","","","null","45","","","","","","","","","","","","","","","NaN",""
"","S1","","html-keyboard-response","298","283732","0.0-1.0-416.0","0","0","76158","","null","","","null","46","","","","","","","","","","","","","","","",""
"","ISI","","html-keyboard-response","299","284735","0.0-1.0-417.0","0","0","76158","","null","","","null","46","NaN","","","","","","","","","","","","","","",""
"","S2","","html-keyboard-response","300","284986","0.0-1.0-418.0","0","0","76158","","null","","","null","46","","NaN","","","","","","","","","","","","","",""
"","response","","html-keyboard-response","301","285721","0.0-1.0-419.0-0.0","0","0","76158","","734","","","68","46","","","1","46","training","adjacent","FE","6","5","Q.jpg","P.jpg","1","0","0","",""
"","feedback","","html-keyboard-response","302","286724","0.0-1.0-420.0-0.0","0","0","76158","","null","","","null","46","","","","","","","","","","","","","","","",""
"","time_out","","html-keyboard-response","303","288726","0.0-1.0-422.0-0.0","0","0","76158","","null","","","null","46","","","","","","","","","","","","","","","",""
"","ITI","","html-keyboard-response","304","289728","0.0-1.0-423.0","0","0","76158","","null","","","null","46","","","","","","","","","","","","","","","NaN",""
"","S1","","html-keyboard-response","305","289980","0.0-1.0-425.0","0","0","76158","","null","","","null","47","","","","","","","","","","","","","","","",""
"","ISI","","html-keyboard-response","306","290982","0.0-1.0-426.0","0","0","76158","","null","","","null","47","NaN","","","","","","","","","","","","","","",""
"","S2","","html-keyboard-response","307","291235","0.0-1.0-427.0","0","0","76158","","null","","","null","47","","NaN","","","","","","","","","","","","","",""
"","response","","html-keyboard-response","308","291657","0.0-1.0-428.0-0.0","0","0","76158","","421","","","75","47","","","1","47","training","adjacent","GF","7","6","N.jpg","Q.jpg","0","0","1","",""
"","feedback","","html-keyboard-response","309","292659","0.0-1.0-429.0-0.0","0","0","76158","","null","","","null","47","","","","","","","","","","","","","","","",""
"","ITI","","html-keyboard-response","310","293662","0.0-1.0-432.0","0","0","76158","","null","","","null","47","","","","","","","","","","","","","","","NaN",""
"","block_over","","html-keyboard-response","311","296727","0.0-1.0-433.0-0.0","0","0","76158","","3063","","","32","47","","","","","","","","","","","","","","","",""
"","S1","","html-keyboard-response","312","296980","0.0-1.0-434.0","0","0","76158","","null","","","null","48","","","","","","","","","","","","","","","",""
"","ISI","","html-keyboard-response","313","297982","0.0-1.0-435.0","0","0","76158","","null","","","null","48","NaN","","","","","","","","","","","","","","",""
"","S2","","html-keyboard-response","314","298234","0.0-1.0-436.0","0","0","76158","","null","","","null","48","","NaN","","","","","","","","","","","","","",""
"","response","","html-keyboard-response","315","299281","0.0-1.0-437.0-0.0","0","0","76158","","1045","","","68","48","","","2","48","training","adjacent","DE","4","5","R.jpg","P.jpg","1","1","1","",""
"","feedback","","html-keyboard-response","316","300283","0.0-1.0-438.0-0.0","0","0","76158","","null","","","null","48","","","","","","","","","","","","","","","",""
"","ITI","","html-keyboard-response","317","301286","0.0-1.0-441.0","0","0","76158","","null","","","null","48","","","","","","","","","","","","","","","NaN",""
"","S1","","html-keyboard-response","318","301539","0.0-1.0-443.0","0","0","76158","","null","","","null","49","","","","","","","","","","","","","","","",""
"","ISI","","html-keyboard-response","319","302542","0.0-1.0-444.0","0","0","76158","","null","","","null","49","NaN","","","","","","","","","","","","","","",""
"","S2","","html-keyboard-response","320","302794","0.0-1.0-445.0","0","0","76158","","null","","","null","49","","NaN","","","","","","","","","","","","","",""
"","response","","html-keyboard-response","321","303237","0.0-1.0-446.0-0.0","0","0","76158","","440","","","68","49","","","2","49","training","adjacent","BC","2","3","M.jpg","O.jpg","1","1","1","",""
"","feedback","","html-keyboard-response","322","304239","0.0-1.0-447.0-0.0","0","0","76158","","null","","","null","49","","","","","","","","","","","","","","","",""
"","ITI","","html-keyboard-response","323","305241","0.0-1.0-450.0","0","0","76158","","null","","","null","49","","","","","","","","","","","","","","","NaN",""
"","S1","","html-keyboard-response","324","305494","0.0-1.0-452.0","0","0","76158","","null","","","null","50","","","","","","","","","","","","","","","",""
"","ISI","","html-keyboard-response","325","306496","0.0-1.0-453.0","0","0","76158","","null","","","null","50","NaN","","","","","","","","","","","","","","",""
"","S2","","html-keyboard-response","326","306750","0.0-1.0-454.0","0","0","76158","","null","","","null","50","","NaN","","","","","","","","","","","","","",""
"","response","","html-keyboard-response","327","307104","0.0-1.0-455.0-0.0","0","0","76158","","352","","","75","50","","","2","50","training","adjacent","BA","2","1","M.jpg","L.jpg","0","0","1","",""
"","feedback","","html-keyboard-response","328","308106","0.0-1.0-456.0-0.0","0","0","76158","","null","","","null","50","","","","","","","","","","","","","","","",""
"","ITI","","html-keyboard-response","329","309109","0.0-1.0-459.0","0","0","76158","","null","","","null","50","","","","","","","","","","","","","","","NaN",""
"","S1","","html-keyboard-response","330","309364","0.0-1.0-461.0","0","0","76158","","null","","","null","51","","","","","","","","","","","","","","","",""
"","ISI","","html-keyboard-response","331","310367","0.0-1.0-462.0","0","0","76158","","null","","","null","51","NaN","","","","","","","","","","","","","","",""
"","S2","","html-keyboard-response","332","310620","0.0-1.0-463.0","0","0","76158","","null","","","null","51","","NaN","","","","","","","","","","","","","",""
"","response","","html-keyboard-response","333","311005","0.0-1.0-464.0-0.0","0","0","76158","","382","","","75","51","","","2","51","training","adjacent","ED","5","4","P.jpg","R.jpg","0","0","1","",""
"","feedback","","html-keyboard-response","334","312007","0.0-1.0-465.0-0.0","0","0","76158","","null","","","null","51","","","","","","","","","","","","","","","",""
"","ITI","","html-keyboard-response","335","313010","0.0-1.0-468.0","0","0","76158","","null","","","null","51","","","","","","","","","","","","","","","NaN",""
"","S1","","html-keyboard-response","336","313262","0.0-1.0-470.0","0","0","76158","","null","","","null","52","","","","","","","","","","","","","","","",""
"","ISI","","html-keyboard-response","337","314265","0.0-1.0-471.0","0","0","76158","","null","","","null","52","NaN","","","","","","","","","","","","","","",""
"","S2","","html-keyboard-response","338","314517","0.0-1.0-472.0","0","0","76158","","null","","","null","52","","NaN","","","","","","","","","","","","","",""
"","response","","html-keyboard-response","339","315172","0.0-1.0-473.0-0.0","0","0","76158","","653","","","68","52","","","2","52","training","adjacent","DE","4","5","R.jpg","P.jpg","1","1","1","",""
"","feedback","","html-keyboard-response","340","316174","0.0-1.0-474.0-0.0","0","0","76158","","null","","","null","52","","","","","","","","","","","","","","","",""
"","ITI","","html-keyboard-response","341","317177","0.0-1.0-477.0","0","0","76158","","null","","","null","52","","","","","","","","","","","","","","","NaN",""
"","S1","","html-keyboard-response","342","317430","0.0-1.0-479.0","0","0","76158","","null","","","null","53","","","","","","","","","","","","","","","",""
"","ISI","","html-keyboard-response","343","318433","0.0-1.0-480.0","0","0","76158","","null","","","null","53","NaN","","","","","","","","","","","","","","",""
"","S2","","html-keyboard-response","344","318685","0.0-1.0-481.0","0","0","76158","","null","","","null","53","","NaN","","","","","","","","","","","","","",""
"","response","","html-keyboard-response","345","318961","0.0-1.0-482.0-0.0","0","0","76158","","275","","","75","53","","","2","53","training","adjacent","CB","3","2","O.jpg","M.jpg","0","0","1","",""
"","feedback","","html-keyboard-response","346","319965","0.0-1.0-483.0-0.0","0","0","76158","","null","","","null","53","","","","","","","","","","","","","","","",""
"","ITI","","html-keyboard-response","347","320969","0.0-1.0-486.0","0","0","76158","","null","","","null","53","","","","","","","","","","","","","","","NaN",""
"","S1","","html-keyboard-response","348","321224","0.0-1.0-488.0","0","0","76158","","null","","","null","54","","","","","","","","","","","","","","","",""
"","ISI","","html-keyboard-response","349","322227","0.0-1.0-489.0","0","0","76158","","null","","","null","54","NaN","","","","","","","","","","","","","","",""
"","S2","","html-keyboard-response","350","322479","0.0-1.0-490.0","0","0","76158","","null","","","null","54","","NaN","","","","","","","","","","","","","",""
"","response","","html-keyboard-response","351","322868","0.0-1.0-491.0-0.0","0","0","76158","","387","","","68","54","","","2","54","training","adjacent","DE","4","5","R.jpg","P.jpg","1","1","1","",""
"","feedback","","html-keyboard-response","352","323871","0.0-1.0-492.0-0.0","0","0","76158","","null","","","null","54","","","","","","","","","","","","","","","",""
"","ITI","","html-keyboard-response","353","324874","0.0-1.0-495.0","0","0","76158","","null","","","null","54","","","","","","","","","","","","","","","NaN",""
"","S1","","html-keyboard-response","354","325127","0.0-1.0-497.0","0","0","76158","","null","","","null","55","","","","","","","","","","","","","","","",""
"","ISI","","html-keyboard-response","355","326129","0.0-1.0-498.0","0","0","76158","","null","","","null","55","NaN","","","","","","","","","","","","","","",""
"","S2","","html-keyboard-response","356","326382","0.0-1.0-499.0","0","0","76158","","null","","","null","55","","NaN","","","","","","","","","","","","","",""
"","response","","html-keyboard-response","357","326866","0.0-1.0-500.0-0.0","0","0","76158","","483","","","68","55","","","2","55","training","adjacent","FG","6","7","Q.jpg","N.jpg","1","1","1","",""
"","feedback","","html-keyboard-response","358","327869","0.0-1.0-501.0-0.0","0","0","76158","","null","","","null","55","","","","","","","","","","","","","","","",""
"","ITI","","html-keyboard-response","359","328871","0.0-1.0-504.0","0","0","76158","","null","","","null","55","","","","","","","","","","","","","","","NaN",""
"","S1","","html-keyboard-response","360","329124","0.0-1.0-506.0","0","0","76158","","null","","","null","56","","","","","","","","","","","","","","","",""
"","ISI","","html-keyboard-response","361","330126","0.0-1.0-507.0","0","0","76158","","null","","","null","56","NaN","","","","","","","","","","","","","","",""
"","S2","","html-keyboard-response","362","330379","0.0-1.0-508.0","0","0","76158","","null","","","null","56","","NaN","","","","","","","","","","","","","",""
"","response","","html-keyboard-response","363","330853","0.0-1.0-509.0-0.0","0","0","76158","","473","","","68","56","","","2","56","training","adjacent","BC","2","3","M.jpg","O.jpg","1","1","1","",""
"","feedback","","html-keyboard-response","364","331856","0.0-1.0-510.0-0.0","0","0","76158","","null","","","null","56","","","","","","","","","","","","","","","",""
"","ITI","","html-keyboard-response","365","332859","0.0-1.0-513.0","0","0","76158","","null","","","null","56","","","","","","","","","","","","","","","NaN",""
"","S1","","html-keyboard-response","366","333111","0.0-1.0-515.0","0","0","76158","","null","","","null","57","","","","","","","","","","","","","","","",""
"","ISI","","html-keyboard-response","367","334119","0.0-1.0-516.0","0","0","76158","","null","","","null","57","NaN","","","","","","","","","","","","","","",""
"","S2","","html-keyboard-response","368","334372","0.0-1.0-517.0","0","0","76158","","null","","","null","57","","NaN","","","","","","","","","","","","","",""
"","response","","html-keyboard-response","369","334679","0.0-1.0-518.0-0.0","0","0","76158","","306","","","75","57","","","2","57","training","adjacent","CD","3","4","O.jpg","R.jpg","0","1","0","",""
"","feedback","","html-keyboard-response","370","335681","0.0-1.0-519.0-0.0","0","0","76158","","null","","","null","57","","","","","","","","","","","","","","","",""
"","time_out","","html-keyboard-response","371","337684","0.0-1.0-521.0-0.0","0","0","76158","","null","","","null","57","","","","","","","","","","","","","","","",""
"","ITI","","html-keyboard-response","372","338686","0.0-1.0-522.0","0","0","76158","","null","","","null","57","","","","","","","","","","","","","","","NaN",""
"","S1","","html-keyboard-response","373","338939","0.0-1.0-524.0","0","0","76158","","null","","","null","58","","","","","","","","","","","","","","","",""
"","ISI","","html-keyboard-response","374","339941","0.0-1.0-525.0","0","0","76158","","null","","","null","58","NaN","","","","","","","","","","","","","","",""
"","S2","","html-keyboard-response","375","340193","0.0-1.0-526.0","0","0","76158","","null","","","null","58","","NaN","","","","","","","","","","","","","",""
"","response","","html-keyboard-response","376","340533","0.0-1.0-527.0-0.0","0","0","76158","","338","","","75","58","","","2","58","training","adjacent","DC","4","3","R.jpg","O.jpg","0","0","1","",""
"","feedback","","html-keyboard-response","377","341536","0.0-1.0-528.0-0.0","0","0","76158","","null","","","null","58","","","","","","","","","","","","","","","",""
"","ITI","","html-keyboard-response","378","342538","0.0-1.0-531.0","0","0","76158","","null","","","null","58","","","","","","","","","","","","","","","NaN",""
"","S1","","html-keyboard-response","379","342795","0.0-1.0-533.0","0","0","76158","","null","","","null","59","","","","","","","","","","","","","","","",""
"","ISI","","html-keyboard-response","380","343798","0.0-1.0-534.0","0","0","76158","","null","","","null","59","NaN","","","","","","","","","","","","","","",""
"","S2","","html-keyboard-response","381","344051","0.0-1.0-535.0","0","0","76158","","null","","","null","59","","NaN","","","","","","","","","","","","","",""
"","response","","html-keyboard-response","382","344263","0.0-1.0-536.0-0.0","0","0","76158","","210","","","75","59","","","2","59","training","adjacent","CB","3","2","O.jpg","M.jpg","0","0","1","",""
"","feedback","","html-keyboard-response","383","345268","0.0-1.0-537.0-0.0","0","0","76158","","null","","","null","59","","","","","","","","","","","","","","","",""
"","ITI","","html-keyboard-response","384","346272","0.0-1.0-540.0","0","0","76158","","null","","","null","59","","","","","","","","","","","","","","","NaN",""
"","S1","","html-keyboard-response","385","346528","0.0-1.0-542.0","0","0","76158","","null","","","null","60","","","","","","","","","","","","","","","",""
"","ISI","","html-keyboard-response","386","347531","0.0-1.0-543.0","0","0","76158","","null","","","null","60","NaN","","","","","","","","","","","","","","",""
"","S2","","html-keyboard-response","387","347726","0.0-1.0-544.0","0","0","76158","","194","","","68","60","","d","2","60","training","adjacent","AB","1","2","L.jpg","M.jpg","1","1","1","",""
"","feedback","","html-keyboard-response","388","348728","0.0-1.0-546.0-0.0","0","0","76158","","null","","","null","60","","","","","","","","","","","","","","","",""
"","ITI","","html-keyboard-response","389","349731","0.0-1.0-549.0","0","0","76158","","null","","","null","60","","","","","","","","","","","","","","","NaN",""
"","S1","","html-keyboard-response","390","349984","0.0-1.0-551.0","0","0","76158","","null","","","null","61","","","","","","","","","","","","","","","",""
"","ISI","","html-keyboard-response","391","350986","0.0-1.0-552.0","0","0","76158","","null","","","null","61","NaN","","","","","","","","","","","","","","",""
"","S2","","html-keyboard-response","392","351239","0.0-1.0-553.0","0","0","76158","","null","","","null","61","","NaN","","","","","","","","","","","","","",""
"","response","","html-keyboard-response","393","351772","0.0-1.0-554.0-0.0","0","0","76158","","532","","","68","61","","","2","61","training","adjacent","DE","4","5","R.jpg","P.jpg","1","1","1","",""
"","feedback","","html-keyboard-response","394","352774","0.0-1.0-555.0-0.0","0","0","76158","","null","","","null","61","","","","","","","","","","","","","","","",""
"","ITI","","html-keyboard-response","395","353777","0.0-1.0-558.0","0","0","76158","","null","","","null","61","","","","","","","","","","","","","","","NaN",""
"","S1","","html-keyboard-response","396","354031","0.0-1.0-560.0","0","0","76158","","null","","","null","62","","","","","","","","","","","","","","","",""
"","ISI","","html-keyboard-response","397","355033","0.0-1.0-561.0","0","0","76158","","null","","","null","62","NaN","","","","","","","","","","","","","","",""
"","S2","","html-keyboard-response","398","355286","0.0-1.0-562.0","0","0","76158","","null","","","null","62","","NaN","","","","","","","","","","","","","",""
"","response","","html-keyboard-response","399","355550","0.0-1.0-563.0-0.0","0","0","76158","","263","","","68","62","","","2","62","training","adjacent","AB","1","2","L.jpg","M.jpg","1","1","1","",""
"","feedback","","html-keyboard-response","400","356553","0.0-1.0-564.0-0.0","0","0","76158","","null","","","null","62","","","","","","","","","","","","","","","",""
"","ITI","","html-keyboard-response","401","357555","0.0-1.0-567.0","0","0","76158","","null","","","null","62","","","","","","","","","","","","","","","NaN",""
"","S1","","html-keyboard-response","402","357807","0.0-1.0-569.0","0","0","76158","","null","","","null","63","","","","","","","","","","","","","","","",""
"","ISI","","html-keyboard-response","403","358809","0.0-1.0-570.0","0","0","76158","","null","","","null","63","NaN","","","","","","","","","","","","","","",""
"","S2","","html-keyboard-response","404","359077","0.0-1.0-571.0","0","0","76158","","null","","","null","63","","NaN","","","","","","","","","","","","","",""
"","response","","html-keyboard-response","405","359798","0.0-1.0-572.0-0.0","0","0","76158","","720","","","68","63","","","2","63","training","adjacent","EF","5","6","P.jpg","Q.jpg","1","1","1","",""
"","feedback","","html-keyboard-response","406","360800","0.0-1.0-573.0-0.0","0","0","76158","","null","","","null","63","","","","","","","","","","","","","","","",""
"","ITI","","html-keyboard-response","407","361803","0.0-1.0-576.0","0","0","76158","","null","","","null","63","","","","","","","","","","","","","","","NaN",""
"","S1","","html-keyboard-response","408","362055","0.0-1.0-578.0","0","0","76158","","null","","","null","64","","","","","","","","","","","","","","","",""
"","ISI","","html-keyboard-response","409","363059","0.0-1.0-579.0","0","0","76158","","null","","","null","64","NaN","","","","","","","","","","","","","","",""
"","S2","","html-keyboard-response","410","363312","0.0-1.0-580.0","0","0","76158","","null","","","null","64","","NaN","","","","","","","","","","","","","",""
"","response","","html-keyboard-response","411","363826","0.0-1.0-581.0-0.0","0","0","76158","","513","","","68","64","","","2","64","training","adjacent","FG","6","7","Q.jpg","N.jpg","1","1","1","",""
"","feedback","","html-keyboard-response","412","364828","0.0-1.0-582.0-0.0","0","0","76158","","null","","","null","64","","","","","","","","","","","","","","","",""
"","ITI","","html-keyboard-response","413","365831","0.0-1.0-585.0","0","0","76158","","null","","","null","64","","","","","","","","","","","","","","","NaN",""
"","S1","","html-keyboard-response","414","366083","0.0-1.0-587.0","0","0","76158","","null","","","null","65","","","","","","","","","","","","","","","",""
"","ISI","","html-keyboard-response","415","367085","0.0-1.0-588.0","0","0","76158","","null","","","null","65","NaN","","","","","","","","","","","","","","",""
"","S2","","html-keyboard-response","416","367338","0.0-1.0-589.0","0","0","76158","","null","","","null","65","","NaN","","","","","","","","","","","","","",""
"","response","","html-keyboard-response","417","367959","0.0-1.0-590.0-0.0","0","0","76158","","620","","","75","65","","","2","65","training","adjacent","GF","7","6","N.jpg","Q.jpg","0","0","1","",""
"","feedback","","html-keyboard-response","418","368961","0.0-1.0-591.0-0.0","0","0","76158","","null","","","null","65","","","","","","","","","","","","","","","",""
"","ITI","","html-keyboard-response","419","369964","0.0-1.0-594.0","0","0","76158","","null","","","null","65","","","","","","","","","","","","","","","NaN",""
"","S1","","html-keyboard-response","420","370217","0.0-1.0-596.0","0","0","76158","","null","","","null","66","","","","","","","","","","","","","","","",""
"","ISI","","html-keyboard-response","421","371220","0.0-1.0-597.0","0","0","76158","","null","","","null","66","NaN","","","","","","","","","","","","","","",""
"","S2","","html-keyboard-response","422","371473","0.0-1.0-598.0","0","0","76158","","null","","","null","66","","NaN","","","","","","","","","","","","","",""
"","response","","html-keyboard-response","423","371841","0.0-1.0-599.0-0.0","0","0","76158","","366","","","68","66","","","2","66","training","adjacent","BA","2","1","M.jpg","L.jpg","1","0","0","",""
"","feedback","","html-keyboard-response","424","372843","0.0-1.0-600.0-0.0","0","0","76158","","null","","","null","66","","","","","","","","","","","","","","","",""
"","time_out","","html-keyboard-response","425","374845","0.0-1.0-602.0-0.0","0","0","76158","","null","","","null","66","","","","","","","","","","","","","","","",""
"","ITI","","html-keyboard-response","426","375848","0.0-1.0-603.0","0","0","76158","","null","","","null","66","","","","","","","","","","","","","","","NaN",""
"","S1","","html-keyboard-response","427","376100","0.0-1.0-605.0","0","0","76158","","null","","","null","67","","","","","","","","","","","","","","","",""
"","ISI","","html-keyboard-response","428","377102","0.0-1.0-606.0","0","0","76158","","null","","","null","67","NaN","","","","","","","","","","","","","","",""
"","S2","","html-keyboard-response","429","377354","0.0-1.0-607.0","0","0","76158","","null","","","null","67","","NaN","","","","","","","","","","","","","",""
"","response","","html-keyboard-response","430","378050","0.0-1.0-608.0-0.0","0","0","76158","","694","","","75","67","","","2","67","training","adjacent","GF","7","6","N.jpg","Q.jpg","0","0","1","",""
"","feedback","","html-keyboard-response","431","379054","0.0-1.0-609.0-0.0","0","0","76158","","null","","","null","67","","","","","","","","","","","","","","","",""
"","ITI","","html-keyboard-response","432","380056","0.0-1.0-612.0","0","0","76158","","null","","","null","67","","","","","","","","","","","","","","","NaN",""
"","S1","","html-keyboard-response","433","380309","0.0-1.0-614.0","0","0","76158","","null","","","null","68","","","","","","","","","","","","","","","",""
"","ISI","","html-keyboard-response","434","381310","0.0-1.0-615.0","0","0","76158","","null","","","null","68","NaN","","","","","","","","","","","","","","",""
"","S2","","html-keyboard-response","435","381578","0.0-1.0-616.0","0","0","76158","","null","","","null","68","","NaN","","","","","","","","","","","","","",""
"","response","","html-keyboard-response","436","382571","0.0-1.0-617.0-0.0","0","0","76158","","992","","","75","68","","","2","68","training","adjacent","EF","5","6","P.jpg","Q.jpg","0","1","0","",""
"","feedback","","html-keyboard-response","437","383574","0.0-1.0-618.0-0.0","0","0","76158","","null","","","null","68","","","","","","","","","","","","","","","",""
"","time_out","","html-keyboard-response","438","385576","0.0-1.0-620.0-0.0","0","0","76158","","null","","","null","68","","","","","","","","","","","","","","","",""
"","ITI","","html-keyboard-response","439","386580","0.0-1.0-621.0","0","0","76158","","null","","","null","68","","","","","","","","","","","","","","","NaN",""
"","S1","","html-keyboard-response","440","386832","0.0-1.0-623.0","0","0","76158","","null","","","null","69","","","","","","","","","","","","","","","",""
"","ISI","","html-keyboard-response","441","387835","0.0-1.0-624.0","0","0","76158","","null","","","null","69","NaN","","","","","","","","","","","","","","",""
"","S2","","html-keyboard-response","442","388087","0.0-1.0-625.0","0","0","76158","","null","","","null","69","","NaN","","","","","","","","","","","","","",""
"","response","","html-keyboard-response","443","388598","0.0-1.0-626.0-0.0","0","0","76158","","509","","","75","69","","","2","69","training","adjacent","ED","5","4","P.jpg","R.jpg","0","0","1","",""
"","feedback","","html-keyboard-response","444","389601","0.0-1.0-627.0-0.0","0","0","76158","","null","","","null","69","","","","","","","","","","","","","","","",""
"","ITI","","html-keyboard-response","445","390604","0.0-1.0-630.0","0","0","76158","","null","","","null","69","","","","","","","","","","","","","","","NaN",""
"","S1","","html-keyboard-response","446","390859","0.0-1.0-632.0","0","0","76158","","null","","","null","70","","","","","","","","","","","","","","","",""
"","ISI","","html-keyboard-response","447","391862","0.0-1.0-633.0","0","0","76158","","null","","","null","70","NaN","","","","","","","","","","","","","","",""
"","S2","","html-keyboard-response","448","392117","0.0-1.0-634.0","0","0","76158","","null","","","null","70","","NaN","","","","","","","","","","","","","",""
"","response","","html-keyboard-response","449","392661","0.0-1.0-635.0-0.0","0","0","76158","","540","","","68","70","","","2","70","training","adjacent","FE","6","5","Q.jpg","P.jpg","1","0","0","",""
"","feedback","","html-keyboard-response","450","393665","0.0-1.0-636.0-0.0","0","0","76158","","null","","","null","70","","","","","","","","","","","","","","","",""
"","time_out","","html-keyboard-response","451","395667","0.0-1.0-638.0-0.0","0","0","76158","","null","","","null","70","","","","","","","","","","","","","","","",""
"","ITI","","html-keyboard-response","452","396670","0.0-1.0-639.0","0","0","76158","","null","","","null","70","","","","","","","","","","","","","","","NaN",""
"","S1","","html-keyboard-response","453","396922","0.0-1.0-641.0","0","0","76158","","null","","","null","71","","","","","","","","","","","","","","","",""
"","ISI","","html-keyboard-response","454","397925","0.0-1.0-642.0","0","0","76158","","null","","","null","71","NaN","","","","","","","","","","","","","","",""
"","S2","","html-keyboard-response","455","398177","0.0-1.0-643.0","0","0","76158","","null","","","null","71","","NaN","","","","","","","","","","","","","",""
"","response","","html-keyboard-response","456","398753","0.0-1.0-644.0-0.0","0","0","76158","","575","","","75","71","","","2","71","training","adjacent","ED","5","4","P.jpg","R.jpg","0","0","1","",""
"","feedback","","html-keyboard-response","457","399756","0.0-1.0-645.0-0.0","0","0","76158","","null","","","null","71","","","","","","","","","","","","","","","",""
"","ITI","","html-keyboard-response","458","400759","0.0-1.0-648.0","0","0","76158","","null","","","null","71","","","","","","","","","","","","","","","NaN",""
"","S1","","html-keyboard-response","459","401011","0.0-1.0-650.0","0","0","76158","","null","","","null","72","","","","","","","","","","","","","","","",""
"","ISI","","html-keyboard-response","460","402014","0.0-1.0-651.0","0","0","76158","","null","","","null","72","NaN","","","","","","","","","","","","","","",""
"","S2","","html-keyboard-response","461","402266","0.0-1.0-652.0","0","0","76158","","null","","","null","72","","NaN","","","","","","","","","","","","","",""
"","response","","html-keyboard-response","462","402665","0.0-1.0-653.0-0.0","0","0","76158","","398","","","75","72","","","2","72","training","adjacent","ED","5","4","P.jpg","R.jpg","0","0","1","",""
"","feedback","","html-keyboard-response","463","403667","0.0-1.0-654.0-0.0","0","0","76158","","null","","","null","72","","","","","","","","","","","","","","","",""
"","ITI","","html-keyboard-response","464","404670","0.0-1.0-657.0","0","0","76158","","null","","","null","72","","","","","","","","","","","","","","","NaN",""
"","S1","","html-keyboard-response","465","404922","0.0-1.0-659.0","0","0","76158","","null","","","null","73","","","","","","","","","","","","","","","",""
"","ISI","","html-keyboard-response","466","405924","0.0-1.0-660.0","0","0","76158","","null","","","null","73","NaN","","","","","","","","","","","","","","",""
"","S2","","html-keyboard-response","467","406177","0.0-1.0-661.0","0","0","76158","","null","","","null","73","","NaN","","","","","","","","","","","","","",""
"","response","","html-keyboard-response","468","406629","0.0-1.0-662.0-0.0","0","0","76158","","450","","","68","73","","","2","73","training","adjacent","DC","4","3","R.jpg","O.jpg","1","0","0","",""
"","feedback","","html-keyboard-response","469","407632","0.0-1.0-663.0-0.0","0","0","76158","","null","","","null","73","","","","","","","","","","","","","","","",""
"","time_out","","html-keyboard-response","470","409637","0.0-1.0-665.0-0.0","0","0","76158","","null","","","null","73","","","","","","","","","","","","","","","",""
"","ITI","","html-keyboard-response","471","410639","0.0-1.0-666.0","0","0","76158","","null","","","null","73","","","","","","","","","","","","","","","NaN",""
"","S1","","html-keyboard-response","472","410904","0.0-1.0-668.0","0","0","76158","","null","","","null","74","","","","","","","","","","","","","","","",""
"","ISI","","html-keyboard-response","473","411907","0.0-1.0-669.0","0","0","76158","","null","","","null","74","NaN","","","","","","","","","","","","","","",""
"","S2","","html-keyboard-response","474","412159","0.0-1.0-670.0","0","0","76158","","null","","","null","74","","NaN","","","","","","","","","","","","","",""
"","response","","html-keyboard-response","475","412491","0.0-1.0-671.0-0.0","0","0","76158","","331","","","75","74","","","2","74","training","adjacent","DC","4","3","R.jpg","O.jpg","0","0","1","",""
"","feedback","","html-keyboard-response","476","413493","0.0-1.0-672.0-0.0","0","0","76158","","null","","","null","74","","","","","","","","","","","","","","","",""
"","ITI","","html-keyboard-response","477","414496","0.0-1.0-675.0","0","0","76158","","null","","","null","74","","","","","","","","","","","","","","","NaN",""
"","S1","","html-keyboard-response","478","414748","0.0-1.0-677.0","0","0","76158","","null","","","null","75","","","","","","","","","","","","","","","",""
"","ISI","","html-keyboard-response","479","415751","0.0-1.0-678.0","0","0","76158","","null","","","null","75","NaN","","","","","","","","","","","","","","",""
"","S2","","html-keyboard-response","480","416003","0.0-1.0-679.0","0","0","76158","","null","","","null","75","","NaN","","","","","","","","","","","","","",""
"","response","","html-keyboard-response","481","416543","0.0-1.0-680.0-0.0","0","0","76158","","538","","","68","75","","","2","75","training","adjacent","CD","3","4","O.jpg","R.jpg","1","1","1","",""
"","feedback","","html-keyboard-response","482","417546","0.0-1.0-681.0-0.0","0","0","76158","","null","","","null","75","","","","","","","","","","","","","","","",""
"","ITI","","html-keyboard-response","483","418550","0.0-1.0-684.0","0","0","76158","","null","","","null","75","","","","","","","","","","","","","","","NaN",""
"","S1","","html-keyboard-response","484","418803","0.0-1.0-686.0","0","0","76158","","null","","","null","76","","","","","","","","","","","","","","","",""
"","ISI","","html-keyboard-response","485","419804","0.0-1.0-687.0","0","0","76158","","null","","","null","76","NaN","","","","","","","","","","","","","","",""
"","S2","","html-keyboard-response","486","420057","0.0-1.0-688.0","0","0","76158","","null","","","null","76","","NaN","","","","","","","","","","","","","",""
"","response","","html-keyboard-response","487","420628","0.0-1.0-689.0-0.0","0","0","76158","","569","","","68","76","","","2","76","training","adjacent","EF","5","6","P.jpg","Q.jpg","1","1","1","",""
"","feedback","","html-keyboard-response","488","421630","0.0-1.0-690.0-0.0","0","0","76158","","null","","","null","76","","","","","","","","","","","","","","","",""
"","ITI","","html-keyboard-response","489","422632","0.0-1.0-693.0","0","0","76158","","null","","","null","76","","","","","","","","","","","","","","","NaN",""
"","S1","","html-keyboard-response","490","422884","0.0-1.0-695.0","0","0","76158","","null","","","null","77","","","","","","","","","","","","","","","",""
"","ISI","","html-keyboard-response","491","423886","0.0-1.0-696.0","0","0","76158","","null","","","null","77","NaN","","","","","","","","","","","","","","",""
"","S2","","html-keyboard-response","492","424138","0.0-1.0-697.0","0","0","76158","","null","","","null","77","","NaN","","","","","","","","","","","","","",""
"","response","","html-keyboard-response","493","424336","0.0-1.0-698.0-0.0","0","0","76158","","196","","","75","77","","","2","77","training","adjacent","GF","7","6","N.jpg","Q.jpg","0","0","1","",""
"","feedback","","html-keyboard-response","494","425339","0.0-1.0-699.0-0.0","0","0","76158","","null","","","null","77","","","","","","","","","","","","","","","",""
"","ITI","","html-keyboard-response","495","426347","0.0-1.0-702.0","0","0","76158","","null","","","null","77","","","","","","","","","","","","","","","NaN",""
"","S1","","html-keyboard-response","496","426602","0.0-1.0-704.0","0","0","76158","","null","","","null","78","","","","","","","","","","","","","","","",""
"","ISI","","html-keyboard-response","497","427605","0.0-1.0-705.0","0","0","76158","","null","","","null","78","NaN","","","","","","","","","","","","","","",""
"","S2","","html-keyboard-response","498","427861","0.0-1.0-706.0","0","0","76158","","null","","","null","78","","NaN","","","","","","","","","","","","","",""
"","response","","html-keyboard-response","499","428506","0.0-1.0-707.0-0.0","0","0","76158","","641","","","68","78","","","2","78","training","adjacent","BC","2","3","M.jpg","O.jpg","1","1","1","",""
"","feedback","","html-keyboard-response","500","429511","0.0-1.0-708.0-0.0","0","0","76158","","null","","","null","78","","","","","","","","","","","","","","","",""
"","ITI","","html-keyboard-response","501","430514","0.0-1.0-711.0","0","0","76158","","null","","","null","78","","","","","","","","","","","","","","","NaN",""
"","S1","","html-keyboard-response","502","430767","0.0-1.0-713.0","0","0","76158","","null","","","null","79","","","","","","","","","","","","","","","",""
"","ISI","","html-keyboard-response","503","431770","0.0-1.0-714.0","0","0","76158","","null","","","null","79","NaN","","","","","","","","","","","","","","",""
"","S2","","html-keyboard-response","504","432024","0.0-1.0-715.0","0","0","76158","","null","","","null","79","","NaN","","","","","","","","","","","","","",""
"","response","","html-keyboard-response","505","432421","0.0-1.0-716.0-0.0","0","0","76158","","396","","","68","79","","","2","79","training","adjacent","AB","1","2","L.jpg","M.jpg","1","1","1","",""
"","feedback","","html-keyboard-response","506","433423","0.0-1.0-717.0-0.0","0","0","76158","","null","","","null","79","","","","","","","","","","","","","","","",""
"","ITI","","html-keyboard-response","507","434426","0.0-1.0-720.0","0","0","76158","","null","","","null","79","","","","","","","","","","","","","","","NaN",""
"","S1","","html-keyboard-response","508","434679","0.0-1.0-722.0","0","0","76158","","null","","","null","80","","","","","","","","","","","","","","","",""
"","ISI","","html-keyboard-response","509","435681","0.0-1.0-723.0","0","0","76158","","null","","","null","80","NaN","","","","","","","","","","","","","","",""
"","S2","","html-keyboard-response","510","435933","0.0-1.0-724.0","0","0","76158","","null","","","null","80","","NaN","","","","","","","","","","","","","",""
"","response","","html-keyboard-response","511","436517","0.0-1.0-725.0-0.0","0","0","76158","","583","","","75","80","","","2","80","training","adjacent","CB","3","2","O.jpg","M.jpg","0","0","1","",""
"","feedback","","html-keyboard-response","512","437520","0.0-1.0-726.0-0.0","0","0","76158","","null","","","null","80","","","","","","","","","","","","","","","",""
"","ITI","","html-keyboard-response","513","438525","0.0-1.0-729.0","0","0","76158","","null","","","null","80","","","","","","","","","","","","","","","NaN",""
"","S1","","html-keyboard-response","514","438779","0.0-1.0-731.0","0","0","76158","","null","","","null","81","","","","","","","","","","","","","","","",""
"","ISI","","html-keyboard-response","515","439784","0.0-1.0-732.0","0","0","76158","","null","","","null","81","NaN","","","","","","","","","","","","","","",""
"","S2","","html-keyboard-response","516","440039","0.0-1.0-733.0","0","0","76158","","null","","","null","81","","NaN","","","","","","","","","","","","","",""
"","response","","html-keyboard-response","517","440487","0.0-1.0-734.0-0.0","0","0","76158","","445","","","75","81","","","2","81","training","adjacent","GF","7","6","N.jpg","Q.jpg","0","0","1","",""
"","feedback","","html-keyboard-response","518","441491","0.0-1.0-735.0-0.0","0","0","76158","","null","","","null","81","","","","","","","","","","","","","","","",""
"","ITI","","html-keyboard-response","519","442493","0.0-1.0-738.0","0","0","76158","","null","","","null","81","","","","","","","","","","","","","","","NaN",""
"","S1","","html-keyboard-response","520","442746","0.0-1.0-740.0","0","0","76158","","null","","","null","82","","","","","","","","","","","","","","","",""
"","ISI","","html-keyboard-response","521","443748","0.0-1.0-741.0","0","0","76158","","null","","","null","82","NaN","","","","","","","","","","","","","","",""
"","S2","","html-keyboard-response","522","444001","0.0-1.0-742.0","0","0","76158","","null","","","null","82","","NaN","","","","","","","","","","","","","",""
"","response","","html-keyboard-response","523","444592","0.0-1.0-743.0-0.0","0","0","76158","","590","","","75","82","","","2","82","training","adjacent","CB","3","2","O.jpg","M.jpg","0","0","1","",""
"","feedback","","html-keyboard-response","524","445595","0.0-1.0-744.0-0.0","0","0","76158","","null","","","null","82","","","","","","","","","","","","","","","",""
"","ITI","","html-keyboard-response","525","446598","0.0-1.0-747.0","0","0","76158","","null","","","null","82","","","","","","","","","","","","","","","NaN",""
"","S1","","html-keyboard-response","526","446850","0.0-1.0-749.0","0","0","76158","","null","","","null","83","","","","","","","","","","","","","","","",""
"","ISI","","html-keyboard-response","527","447852","0.0-1.0-750.0","0","0","76158","","null","","","null","83","NaN","","","","","","","","","","","","","","",""
"","S2","","html-keyboard-response","528","448104","0.0-1.0-751.0","0","0","76158","","null","","","null","83","","NaN","","","","","","","","","","","","","",""
"","response","","html-keyboard-response","529","448558","0.0-1.0-752.0-0.0","0","0","76158","","452","","","68","83","","","2","83","training","adjacent","FE","6","5","Q.jpg","P.jpg","1","0","0","",""
"","feedback","","html-keyboard-response","530","449562","0.0-1.0-753.0-0.0","0","0","76158","","null","","","null","83","","","","","","","","","","","","","","","",""
"","time_out","","html-keyboard-response","531","451564","0.0-1.0-755.0-0.0","0","0","76158","","null","","","null","83","","","","","","","","","","","","","","","",""
"","ITI","","html-keyboard-response","532","452567","0.0-1.0-756.0","0","0","76158","","null","","","null","83","","","","","","","","","","","","","","","NaN",""
"","S1","","html-keyboard-response","533","452820","0.0-1.0-758.0","0","0","76158","","null","","","null","84","","","","","","","","","","","","","","","",""
"","ISI","","html-keyboard-response","534","453822","0.0-1.0-759.0","0","0","76158","","null","","","null","84","NaN","","","","","","","","","","","","","","",""
"","S2","","html-keyboard-response","535","454075","0.0-1.0-760.0","0","0","76158","","null","","","null","84","","NaN","","","","","","","","","","","","","",""
"","response","","html-keyboard-response","536","454685","0.0-1.0-761.0-0.0","0","0","76158","","608","","","68","84","","","2","84","training","adjacent","BC","2","3","M.jpg","O.jpg","1","1","1","",""
"","feedback","","html-keyboard-response","537","455688","0.0-1.0-762.0-0.0","0","0","76158","","null","","","null","84","","","","","","","","","","","","","","","",""
"","ITI","","html-keyboard-response","538","456689","0.0-1.0-765.0","0","0","76158","","null","","","null","84","","","","","","","","","","","","","","","NaN",""
"","S1","","html-keyboard-response","539","456943","0.0-1.0-767.0","0","0","76158","","null","","","null","85","","","","","","","","","","","","","","","",""
"","ISI","","html-keyboard-response","540","457946","0.0-1.0-768.0","0","0","76158","","null","","","null","85","NaN","","","","","","","","","","","","","","",""
"","S2","","html-keyboard-response","541","458199","0.0-1.0-769.0","0","0","76158","","null","","","null","85","","NaN","","","","","","","","","","","","","",""
"","response","","html-keyboard-response","542","458509","0.0-1.0-770.0-0.0","0","0","76158","","309","","","75","85","","","2","85","training","adjacent","BA","2","1","M.jpg","L.jpg","0","0","1","",""
"","feedback","","html-keyboard-response","543","459512","0.0-1.0-771.0-0.0","0","0","76158","","null","","","null","85","","","","","","","","","","","","","","","",""
"","ITI","","html-keyboard-response","544","460515","0.0-1.0-774.0","0","0","76158","","null","","","null","85","","","","","","","","","","","","","","","NaN",""
"","S1","","html-keyboard-response","545","460768","0.0-1.0-776.0","0","0","76158","","null","","","null","86","","","","","","","","","","","","","","","",""
"","ISI","","html-keyboard-response","546","461770","0.0-1.0-777.0","0","0","76158","","null","","","null","86","NaN","","","","","","","","","","","","","","",""
"","S2","","html-keyboard-response","547","462024","0.0-1.0-778.0","0","0","76158","","null","","","null","86","","NaN","","","","","","","","","","","","","",""
"","response","","html-keyboard-response","548","462425","0.0-1.0-779.0-0.0","0","0","76158","","400","","","75","86","","","2","86","training","adjacent","BA","2","1","M.jpg","L.jpg","0","0","1","",""
"","feedback","","html-keyboard-response","549","463428","0.0-1.0-780.0-0.0","0","0","76158","","null","","","null","86","","","","","","","","","","","","","","","",""
"","ITI","","html-keyboard-response","550","464430","0.0-1.0-783.0","0","0","76158","","null","","","null","86","","","","","","","","","","","","","","","NaN",""
"","S1","","html-keyboard-response","551","464682","0.0-1.0-785.0","0","0","76158","","null","","","null","87","","","","","","","","","","","","","","","",""
"","ISI","","html-keyboard-response","552","465684","0.0-1.0-786.0","0","0","76158","","null","","","null","87","NaN","","","","","","","","","","","","","","",""
"","S2","","html-keyboard-response","553","465937","0.0-1.0-787.0","0","0","76158","","null","","","null","87","","NaN","","","","","","","","","","","","","",""
"","response","","html-keyboard-response","554","466454","0.0-1.0-788.0-0.0","0","0","76158","","515","","","68","87","","","2","87","training","adjacent","FG","6","7","Q.jpg","N.jpg","1","1","1","",""
"","feedback","","html-keyboard-response","555","467456","0.0-1.0-789.0-0.0","0","0","76158","","null","","","null","87","","","","","","","","","","","","","","","",""
"","ITI","","html-keyboard-response","556","468459","0.0-1.0-792.0","0","0","76158","","null","","","null","87","","","","","","","","","","","","","","","NaN",""
"","S1","","html-keyboard-response","557","468711","0.0-1.0-794.0","0","0","76158","","null","","","null","88","","","","","","","","","","","","","","","",""
"","ISI","","html-keyboard-response","558","469714","0.0-1.0-795.0","0","0","76158","","null","","","null","88","NaN","","","","","","","","","","","","","","",""
"","S2","","html-keyboard-response","559","469966","0.0-1.0-796.0","0","0","76158","","null","","","null","88","","NaN","","","","","","","","","","","","","",""
"","response","","html-keyboard-response","560","470606","0.0-1.0-797.0-0.0","0","0","76158","","638","","","75","88","","","2","88","training","adjacent","FE","6","5","Q.jpg","P.jpg","0","0","1","",""
"","feedback","","html-keyboard-response","561","471608","0.0-1.0-798.0-0.0","0","0","76158","","null","","","null","88","","","","","","","","","","","","","","","",""
"","ITI","","html-keyboard-response","562","472612","0.0-1.0-801.0","0","0","76158","","null","","","null","88","","","","","","","","","","","","","","","NaN",""
"","S1","","html-keyboard-response","563","472867","0.0-1.0-803.0","0","0","76158","","null","","","null","89","","","","","","","","","","","","","","","",""
"","ISI","","html-keyboard-response","564","473872","0.0-1.0-804.0","0","0","76158","","null","","","null","89","NaN","","","","","","","","","","","","","","",""
"","S2","","html-keyboard-response","565","474127","0.0-1.0-805.0","0","0","76158","","null","","","null","89","","NaN","","","","","","","","","","","","","",""
"","response","","html-keyboard-response","566","474726","0.0-1.0-806.0-0.0","0","0","76158","","595","","","68","89","","","2","89","training","adjacent","FG","6","7","Q.jpg","N.jpg","1","1","1","",""
"","feedback","","html-keyboard-response","567","475730","0.0-1.0-807.0-0.0","0","0","76158","","null","","","null","89","","","","","","","","","","","","","","","",""
"","ITI","","html-keyboard-response","568","476732","0.0-1.0-810.0","0","0","76158","","null","","","null","89","","","","","","","","","","","","","","","NaN",""
"","S1","","html-keyboard-response","569","476985","0.0-1.0-812.0","0","0","76158","","null","","","null","90","","","","","","","","","","","","","","","",""
"","ISI","","html-keyboard-response","570","477987","0.0-1.0-813.0","0","0","76158","","null","","","null","90","NaN","","","","","","","","","","","","","","",""
"","S2","","html-keyboard-response","571","478239","0.0-1.0-814.0","0","0","76158","","null","","","null","90","","NaN","","","","","","","","","","","","","",""
"","response","","html-keyboard-response","572","478504","0.0-1.0-815.0-0.0","0","0","76158","","264","","","68","90","","","2","90","training","adjacent","AB","1","2","L.jpg","M.jpg","1","1","1","",""
"","feedback","","html-keyboard-response","573","479507","0.0-1.0-816.0-0.0","0","0","76158","","null","","","null","90","","","","","","","","","","","","","","","",""
"","ITI","","html-keyboard-response","574","480510","0.0-1.0-819.0","0","0","76158","","null","","","null","90","","","","","","","","","","","","","","","NaN",""
"","S1","","html-keyboard-response","575","480762","0.0-1.0-821.0","0","0","76158","","null","","","null","91","","","","","","","","","","","","","","","",""
"","ISI","","html-keyboard-response","576","481764","0.0-1.0-822.0","0","0","76158","","null","","","null","91","NaN","","","","","","","","","","","","","","",""
"","S2","","html-keyboard-response","577","482018","0.0-1.0-823.0","0","0","76158","","null","","","null","91","","NaN","","","","","","","","","","","","","",""
"","response","","html-keyboard-response","578","482880","0.0-1.0-824.0-0.0","0","0","76158","","860","","","75","91","","","2","91","training","adjacent","CD","3","4","O.jpg","R.jpg","0","1","0","",""
"","feedback","","html-keyboard-response","579","483882","0.0-1.0-825.0-0.0","0","0","76158","","null","","","null","91","","","","","","","","","","","","","","","",""
"","time_out","","html-keyboard-response","580","485886","0.0-1.0-827.0-0.0","0","0","76158","","null","","","null","91","","","","","","","","","","","","","","","",""
