"success","ttype","start_time","trial_type","trial_index","time_elapsed","internal_node_id","warning","missed_checkup","PID","view_history","rt","responses","repeat_instructions","key_press","index","keypress_isi","keypress_S2","block","trial_num","phase","group_type","pair_type","S1_stim","S2_stim","S1_img","S2_img","S1_chosen","S1_higher","accuracy","keypress_iti","total_bonus_tally"
"true","full_screen","d04152023hr0216","fullscreen","0","13463","0.0-0.0","0","0","27218","","","","","","","","","","","","","","","","","","","","","",""
"","instructions","","instructions","1","69725","0.0-1.0-0.0-0.0","0","0","27218","[{""page_index"":0,""viewing_time"":7519},{""page_index"":1,""viewing_time"":32553},{""page_index"":2,""viewing_time"":13332},{""page_index"":3,""viewing_time"":2856}]","56260","","","","","","","","","","","","","","","","","","","",""
"","comprehension_check","","survey-multi-choice","2","102546","0.0-1.0-0.0-1.0","0","0","27218","","32815","{""Q0"":""True"",""Q1"":""D"",""Q2"":""Once the second image appears and while the screen 'MAKE A CHOICE' is shown"",""Q3"":""Green mark"",""Q4"":""either D or K""}","0","","","","","","","","","","","","","","","","","",""
"","start_exp","","html-keyboard-response","3","106761","0.0-1.0-1.0","0","0","27218","","4211","","","32","","","","","","","","","","","","","","","","",""
"","S1","","html-keyboard-response","4","107016","0.0-1.0-2.0","0","0","27218","","null","","","null","0","","","","","","","","","","","","","","","",""
"","ISI","","html-keyboard-response","5","108021","0.0-1.0-3.0","0","0","27218","","null","","","null","0","NaN","","","","","","","","","","","","","","",""
"","S2","","html-keyboard-response","6","108277","0.0-1.0-4.0","0","0","27218","","null","","","null","0","","NaN","","","","","","","","","","","","","",""
"","response","","html-keyboard-response","7","109492","0.0-1.0-5.0-0.0","0","0","27218","","1211","","","75","0","","","1","0","training","adjacent","FE","6","5","Q.jpg","L.jpg","0","0","1","",""
"","feedback","","html-keyboard-response","8","110496","0.0-1.0-6.0-0.0","0","0","27218","","null","","","null","0","","","","","","","","","","","","","","","",""
"","ITI","","html-keyboard-response","9","111500","0.0-1.0-9.0","0","0","27218","","null","","","null","0","","","","","","","","","","","","","","","NaN",""
"","S1","","html-keyboard-response","10","111754","0.0-1.0-11.0","0","0","27218","","null","","","null","1","","","","","","","","","","","","","","","",""
"","ISI","","html-keyboard-response","11","112758","0.0-1.0-12.0","0","0","27218","","null","","","null","1","NaN","","","","","","","","","","","","","","",""
"","S2","","html-keyboard-response","12","113013","0.0-1.0-13.0","0","0","27218","","null","","","null","1","","NaN","","","","","","","","","","","","","",""
"","response","","html-keyboard-response","13","113452","0.0-1.0-14.0-0.0","0","0","27218","","436","","","68","1","","","1","1","training","adjacent","GF","7","6","O.jpg","Q.jpg","1","0","0","",""
"","feedback","","html-keyboard-response","14","114456","0.0-1.0-15.0-0.0","0","0","27218","","null","","","null","1","","","","","","","","","","","","","","","",""
"","time_out","","html-keyboard-response","15","116459","0.0-1.0-17.0-0.0","0","0","27218","","null","","","null","1","","","","","","","","","","","","","","","",""
"","ITI","","html-keyboard-response","16","117462","0.0-1.0-18.0","0","0","27218","","null","","","null","1","","","","","","","","","","","","","","","NaN",""
"","S1","","html-keyboard-response","17","117716","0.0-1.0-20.0","0","0","27218","","null","","","null","2","","","","","","","","","","","","","","","",""
"","ISI","","html-keyboard-response","18","118720","0.0-1.0-21.0","0","0","27218","","null","","","null","2","NaN","","","","","","","","","","","","","","",""
"","S2","","html-keyboard-response","19","118973","0.0-1.0-22.0","0","0","27218","","null","","","null","2","","NaN","","","","","","","","","","","","","",""
"","response","","html-keyboard-response","20","119450","0.0-1.0-23.0-0.0","0","0","27218","","474","","","75","2","","","1","2","training","adjacent","GF","7","6","O.jpg","Q.jpg","0","0","1","",""
"","feedback","","html-keyboard-response","21","120455","0.0-1.0-24.0-0.0","0","0","27218","","null","","","null","2","","","","","","","","","","","","","","","",""
"","ITI","","html-keyboard-response","22","121458","0.0-1.0-27.0","0","0","27218","","null","","","null","2","","","","","","","","","","","","","","","NaN",""
"","S1","","html-keyboard-response","23","121712","0.0-1.0-29.0","0","0","27218","","null","","","null","3","","","","","","","","","","","","","","","",""
"","ISI","","html-keyboard-response","24","122716","0.0-1.0-30.0","0","0","27218","","null","","","null","3","NaN","","","","","","","","","","","","","","",""
"","S2","","html-keyboard-response","25","122970","0.0-1.0-31.0","0","0","27218","","null","","","null","3","","NaN","","","","","","","","","","","","","",""
"","response","","html-keyboard-response","26","123615","0.0-1.0-32.0-0.0","0","0","27218","","642","","","68","3","","","1","3","training","adjacent","BC","2","3","R.jpg","P.jpg","1","1","1","",""
"","feedback","","html-keyboard-response","27","124620","0.0-1.0-33.0-0.0","0","0","27218","","null","","","null","3","","","","","","","","","","","","","","","",""
"","ITI","","html-keyboard-response","28","125626","0.0-1.0-36.0","0","0","27218","","null","","","null","3","","","","","","","","","","","","","","","NaN",""
"","S1","","html-keyboard-response","29","125880","0.0-1.0-38.0","0","0","27218","","null","","","null","4","","","","","","","","","","","","","","","",""
"","ISI","","html-keyboard-response","30","126884","0.0-1.0-39.0","0","0","27218","","null","","","null","4","NaN","","","","","","","","","","","","","","",""
"","S2","","html-keyboard-response","31","127139","0.0-1.0-40.0","0","0","27218","","null","","","null","4","","NaN","","","","","","","","","","","","","",""
"","response","","html-keyboard-response","32","127752","0.0-1.0-41.0-0.0","0","0","27218","","610","","","75","4","","","1","4","training","adjacent","CB","3","2","P.jpg","R.jpg","0","0","1","",""
"","feedback","","html-keyboard-response","33","128756","0.0-1.0-42.0-0.0","0","0","27218","","null","","","null","4","","","","","","","","","","","","","","","",""
"","ITI","","html-keyboard-response","34","129759","0.0-1.0-45.0","0","0","27218","","null","","","null","4","","","","","","","","","","","","","","","NaN",""
"","S1","","html-keyboard-response","35","130013","0.0-1.0-47.0","0","0","27218","","null","","","null","5","","","","","","","","","","","","","","","",""
"","ISI","","html-keyboard-response","36","131017","0.0-1.0-48.0","0","0","27218","","null","","","null","5","NaN","","","","","","","","","","","","","","",""
"","S2","","html-keyboard-response","37","131270","0.0-1.0-49.0","0","0","27218","","null","","","null","5","","NaN","","","","","","","","","","","","","",""
"","response","","html-keyboard-response","38","131660","0.0-1.0-50.0-0.0","0","0","27218","","388","","","68","5","","","1","5","training","adjacent","FG","6","7","Q.jpg","O.jpg","1","1","1","",""
"","feedback","","html-keyboard-response","39","132664","0.0-1.0-51.0-0.0","0","0","27218","","null","","","null","5","","","","","","","","","","","","","","","",""
"","ITI","","html-keyboard-response","40","133668","0.0-1.0-54.0","0","0","27218","","null","","","null","5","","","","","","","","","","","","","","","NaN",""
"","S1","","html-keyboard-response","41","133921","0.0-1.0-56.0","0","0","27218","","null","","","null","6","","","","","","","","","","","","","","","",""
"","ISI","","html-keyboard-response","42","134925","0.0-1.0-57.0","0","0","27218","","null","","","null","6","NaN","","","","","","","","","","","","","","",""
"","S2","","html-keyboard-response","43","135180","0.0-1.0-58.0","0","0","27218","","null","","","null","6","","NaN","","","","","","","","","","","","","",""
"","response","","html-keyboard-response","44","135817","0.0-1.0-59.0-0.0","0","0","27218","","634","","","75","6","","","1","6","training","adjacent","BA","2","1","R.jpg","M.jpg","0","0","1","",""
"","feedback","","html-keyboard-response","45","136820","0.0-1.0-60.0-0.0","0","0","27218","","null","","","null","6","","","","","","","","","","","","","","","",""
"","ITI","","html-keyboard-response","46","137824","0.0-1.0-63.0","0","0","27218","","null","","","null","6","","","","","","","","","","","","","","","NaN",""
"","S1","","html-keyboard-response","47","138079","0.0-1.0-65.0","0","0","27218","","null","","","null","7","","","","","","","","","","","","","","","",""
"","ISI","","html-keyboard-response","48","139082","0.0-1.0-66.0","0","0","27218","","null","","","null","7","NaN","","","","","","","","","","","","","","",""
"","S2","","html-keyboard-response","49","139336","0.0-1.0-67.0","0","0","27218","","null","","","null","7","","NaN","","","","","","","","","","","","","",""
"","response","","html-keyboard-response","50","139774","0.0-1.0-68.0-0.0","0","0","27218","","434","","","68","7","","","1","7","training","adjacent","FE","6","5","Q.jpg","L.jpg","1","0","0","",""
"","feedback","","html-keyboard-response","51","140779","0.0-1.0-69.0-0.0","0","0","27218","","null","","","null","7","","","","","","","","","","","","","","","",""
"","time_out","","html-keyboard-response","52","142783","0.0-1.0-71.0-0.0","0","0","27218","","null","","","null","7","","","","","","","","","","","","","","","",""
"","ITI","","html-keyboard-response","53","143788","0.0-1.0-72.0","0","0","27218","","null","","","null","7","","","","","","","","","","","","","","","NaN",""
"","S1","","html-keyboard-response","54","144042","0.0-1.0-74.0","0","0","27218","","null","","","null","8","","","","","","","","","","","","","","","",""
"","ISI","","html-keyboard-response","55","145045","0.0-1.0-75.0","0","0","27218","","null","","","null","8","NaN","","","","","","","","","","","","","","",""
"","S2","","html-keyboard-response","56","145307","0.0-1.0-76.0","0","0","27218","","null","","","null","8","","NaN","","","","","","","","","","","","","",""
"","response","","html-keyboard-response","57","145595","0.0-1.0-77.0-0.0","0","0","27218","","285","","","75","8","","","1","8","training","adjacent","DC","4","3","N.jpg","P.jpg","0","0","1","",""
"","feedback","","html-keyboard-response","58","146600","0.0-1.0-78.0-0.0","0","0","27218","","null","","","null","8","","","","","","","","","","","","","","","",""
"","ITI","","html-keyboard-response","59","147604","0.0-1.0-81.0","0","0","27218","","null","","","null","8","","","","","","","","","","","","","","","NaN",""
"","S1","","html-keyboard-response","60","147856","0.0-1.0-83.0","0","0","27218","","null","","","null","9","","","","","","","","","","","","","","","",""
"","ISI","","html-keyboard-response","61","148860","0.0-1.0-84.0","0","0","27218","","null","","","null","9","NaN","","","","","","","","","","","","","","",""
"","S2","","html-keyboard-response","62","149114","0.0-1.0-85.0","0","0","27218","","null","","","null","9","","NaN","","","","","","","","","","","","","",""
"","response","","html-keyboard-response","63","149818","0.0-1.0-86.0-0.0","0","0","27218","","701","","","68","9","","","1","9","training","adjacent","FG","6","7","Q.jpg","O.jpg","1","1","1","",""
"","feedback","","html-keyboard-response","64","150835","0.0-1.0-87.0-0.0","0","0","27218","","null","","","null","9","","","","","","","","","","","","","","","",""
"","ITI","","html-keyboard-response","65","151839","0.0-1.0-90.0","0","0","27218","","null","","","null","9","","","","","","","","","","","","","","","NaN",""
"","S1","","html-keyboard-response","66","152093","0.0-1.0-92.0","0","0","27218","","null","","","null","10","","","","","","","","","","","","","","","",""
"","ISI","","html-keyboard-response","67","153097","0.0-1.0-93.0","0","0","27218","","null","","","null","10","NaN","","","","","","","","","","","","","","",""
"","S2","","html-keyboard-response","68","153350","0.0-1.0-94.0","0","0","27218","","null","","","null","10","","NaN","","","","","","","","","","","","","",""
"","response","","html-keyboard-response","69","154005","0.0-1.0-95.0-0.0","0","0","27218","","652","","","68","10","","","1","10","training","adjacent","CD","3","4","P.jpg","N.jpg","1","1","1","",""
"","feedback","","html-keyboard-response","70","155009","0.0-1.0-96.0-0.0","0","0","27218","","null","","","null","10","","","","","","","","","","","","","","","",""
"","ITI","","html-keyboard-response","71","156012","0.0-1.0-99.0","0","0","27218","","null","","","null","10","","","","","","","","","","","","","","","NaN",""
"","S1","","html-keyboard-response","72","156266","0.0-1.0-101.0","0","0","27218","","null","","","null","11","","","","","","","","","","","","","","","",""
"","ISI","","html-keyboard-response","73","157269","0.0-1.0-102.0","0","0","27218","","null","","","null","11","NaN","","","","","","","","","","","","","","",""
"","S2","","html-keyboard-response","74","157522","0.0-1.0-103.0","0","0","27218","","null","","","null","11","","NaN","","","","","","","","","","","","","",""
"","response","","html-keyboard-response","75","157956","0.0-1.0-104.0-0.0","0","0","27218","","431","","","68","11","","","1","11","training","adjacent","ED","5","4","L.jpg","N.jpg","1","0","0","",""
"","feedback","","html-keyboard-response","76","158961","0.0-1.0-105.0-0.0","0","0","27218","","null","","","null","11","","","","","","","","","","","","","","","",""
"","time_out","","html-keyboard-response","77","160964","0.0-1.0-107.0-0.0","0","0","27218","","null","","","null","11","","","","","","","","","","","","","","","",""
"","ITI","","html-keyboard-response","78","161968","0.0-1.0-108.0","0","0","27218","","null","","","null","11","","","","","","","","","","","","","","","NaN",""
"","S1","","html-keyboard-response","79","162222","0.0-1.0-110.0","0","0","27218","","null","","","null","12","","","","","","","","","","","","","","","",""
"","ISI","","html-keyboard-response","80","163226","0.0-1.0-111.0","0","0","27218","","null","","","null","12","NaN","","","","","","","","","","","","","","",""
"","S2","","html-keyboard-response","81","163480","0.0-1.0-112.0","0","0","27218","","null","","","null","12","","NaN","","","","","","","","","","","","","",""
"","response","","html-keyboard-response","82","164059","0.0-1.0-113.0-0.0","0","0","27218","","576","","","75","12","","","1","12","training","adjacent","CB","3","2","P.jpg","R.jpg","0","0","1","",""
"","feedback","","html-keyboard-response","83","165062","0.0-1.0-114.0-0.0","0","0","27218","","null","","","null","12","","","","","","","","","","","","","","","",""
"","ITI","","html-keyboard-response","84","166066","0.0-1.0-117.0","0","0","27218","","null","","","null","12","","","","","","","","","","","","","","","NaN",""
"","S1","","html-keyboard-response","85","166321","0.0-1.0-119.0","0","0","27218","","null","","","null","13","","","","","","","","","","","","","","","",""
"","ISI","","html-keyboard-response","86","167336","0.0-1.0-120.0","0","0","27218","","null","","","null","13","NaN","","","","","","","","","","","","","","",""
"","S2","","html-keyboard-response","87","167590","0.0-1.0-121.0","0","0","27218","","null","","","null","13","","NaN","","","","","","","","","","","","","",""
"","response","","html-keyboard-response","88","168122","0.0-1.0-122.0-0.0","0","0","27218","","529","","","68","13","","","1","13","training","adjacent","BC","2","3","R.jpg","P.jpg","1","1","1","",""
"","feedback","","html-keyboard-response","89","169126","0.0-1.0-123.0-0.0","0","0","27218","","null","","","null","13","","","","","","","","","","","","","","","",""
"","ITI","","html-keyboard-response","90","170130","0.0-1.0-126.0","0","0","27218","","null","","","null","13","","","","","","","","","","","","","","","NaN",""
"","S1","","html-keyboard-response","91","170384","0.0-1.0-128.0","0","0","27218","","null","","","null","14","","","","","","","","","","","","","","","",""
"","ISI","","html-keyboard-response","92","171388","0.0-1.0-129.0","0","0","27218","","null","","","null","14","NaN","","","","","","","","","","","","","","",""
"","S2","","html-keyboard-response","93","171641","0.0-1.0-130.0","0","0","27218","","null","","","null","14","","NaN","","","","","","","","","","","","","",""
"","response","","html-keyboard-response","94","172162","0.0-1.0-131.0-0.0","0","0","27218","","517","","","68","14","","","1","14","training","adjacent","CD","3","4","P.jpg","N.jpg","1","1","1","",""
"","feedback","","html-keyboard-response","95","173166","0.0-1.0-132.0-0.0","0","0","27218","","null","","","null","14","","","","","","","","","","","","","","","",""
"","ITI","","html-keyboard-response","96","174168","0.0-1.0-135.0","0","0","27218","","null","","","null","14","","","","","","","","","","","","","","","NaN",""
"","S1","","html-keyboard-response","97","174422","0.0-1.0-137.0","0","0","27218","","null","","","null","15","","","","","","","","","","","","","","","",""
"","ISI","","html-keyboard-response","98","175425","0.0-1.0-138.0","0","0","27218","","null","","","null","15","NaN","","","","","","","","","","","","","","",""
"","S2","","html-keyboard-response","99","175680","0.0-1.0-139.0","0","0","27218","","null","","","null","15","","NaN","","","","","","","","","","","","","",""
"","response","","html-keyboard-response","100","176179","0.0-1.0-140.0-0.0","0","0","27218","","495","","","75","15","","","1","15","training","adjacent","AB","1","2","M.jpg","R.jpg","0","1","0","",""
"","feedback","","html-keyboard-response","101","177182","0.0-1.0-141.0-0.0","0","0","27218","","null","","","null","15","","","","","","","","","","","","","","","",""
"","time_out","","html-keyboard-response","102","179186","0.0-1.0-143.0-0.0","0","0","27218","","null","","","null","15","","","","","","","","","","","","","","","",""
"","ITI","","html-keyboard-response","103","180189","0.0-1.0-144.0","0","0","27218","","null","","","null","15","","","","","","","","","","","","","","","NaN",""
"","S1","","html-keyboard-response","104","180443","0.0-1.0-146.0","0","0","27218","","null","","","null","16","","","","","","","","","","","","","","","",""
"","ISI","","html-keyboard-response","105","181447","0.0-1.0-147.0","0","0","27218","","null","","","null","16","NaN","","","","","","","","","","","","","","",""
"","S2","","html-keyboard-response","106","181701","0.0-1.0-148.0","0","0","27218","","null","","","null","16","","NaN","","","","","","","","","","","","","",""
"","response","","html-keyboard-response","107","182002","0.0-1.0-149.0-0.0","0","0","27218","","298","","","75","16","","","1","16","training","adjacent","DC","4","3","N.jpg","P.jpg","0","0","1","",""
"","feedback","","html-keyboard-response","108","183008","0.0-1.0-150.0-0.0","0","0","27218","","null","","","null","16","","","","","","","","","","","","","","","",""
"","ITI","","html-keyboard-response","109","184010","0.0-1.0-153.0","0","0","27218","","null","","","null","16","","","","","","","","","","","","","","","NaN",""
"","S1","","html-keyboard-response","110","184269","0.0-1.0-155.0","0","0","27218","","null","","","null","17","","","","","","","","","","","","","","","",""
"","ISI","","html-keyboard-response","111","185273","0.0-1.0-156.0","0","0","27218","","null","","","null","17","NaN","","","","","","","","","","","","","","",""
"","S2","","html-keyboard-response","112","185527","0.0-1.0-157.0","0","0","27218","","null","","","null","17","","NaN","","","","","","","","","","","","","",""
"","response","","html-keyboard-response","113","185971","0.0-1.0-158.0-0.0","0","0","27218","","442","","","75","17","","","1","17","training","adjacent","GF","7","6","O.jpg","Q.jpg","0","0","1","",""
"","feedback","","html-keyboard-response","114","186975","0.0-1.0-159.0-0.0","0","0","27218","","null","","","null","17","","","","","","","","","","","","","","","",""
"","ITI","","html-keyboard-response","115","187979","0.0-1.0-162.0","0","0","27218","","null","","","null","17","","","","","","","","","","","","","","","NaN",""
"","S1","","html-keyboard-response","116","188233","0.0-1.0-164.0","0","0","27218","","null","","","null","18","","","","","","","","","","","","","","","",""
"","ISI","","html-keyboard-response","117","189237","0.0-1.0-165.0","0","0","27218","","null","","","null","18","NaN","","","","","","","","","","","","","","",""
"","S2","","html-keyboard-response","118","189491","0.0-1.0-166.0","0","0","27218","","null","","","null","18","","NaN","","","","","","","","","","","","","",""
"","response","","html-keyboard-response","119","189850","0.0-1.0-167.0-0.0","0","0","27218","","357","","","68","18","","","1","18","training","adjacent","FE","6","5","Q.jpg","L.jpg","1","0","0","",""
"","feedback","","html-keyboard-response","120","190853","0.0-1.0-168.0-0.0","0","0","27218","","null","","","null","18","","","","","","","","","","","","","","","",""
"","time_out","","html-keyboard-response","121","192857","0.0-1.0-170.0-0.0","0","0","27218","","null","","","null","18","","","","","","","","","","","","","","","",""
"","ITI","","html-keyboard-response","122","193861","0.0-1.0-171.0","0","0","27218","","null","","","null","18","","","","","","","","","","","","","","","NaN",""
"","S1","","html-keyboard-response","123","194116","0.0-1.0-173.0","0","0","27218","","null","","","null","19","","","","","","","","","","","","","","","",""
"","ISI","","html-keyboard-response","124","195120","0.0-1.0-174.0","0","0","27218","","null","","","null","19","NaN","","","","","","","","","","","","","","",""
"","S2","","html-keyboard-response","125","195374","0.0-1.0-175.0","0","0","27218","","null","","","null","19","","NaN","","","","","","","","","","","","","",""
"","response","","html-keyboard-response","126","195833","0.0-1.0-176.0-0.0","0","0","27218","","455","","","68","19","","","1","19","training","adjacent","BA","2","1","R.jpg","M.jpg","1","0","0","",""
"","feedback","","html-keyboard-response","127","196837","0.0-1.0-177.0-0.0","0","0","27218","","null","","","null","19","","","","","","","","","","","","","","","",""
"","time_out","","html-keyboard-response","128","198841","0.0-1.0-179.0-0.0","0","0","27218","","null","","","null","19","","","","","","","","","","","","","","","",""
"","ITI","","html-keyboard-response","129","199844","0.0-1.0-180.0","0","0","27218","","null","","","null","19","","","","","","","","","","","","","","","NaN",""
"","S1","","html-keyboard-response","130","200098","0.0-1.0-182.0","0","0","27218","","null","","","null","20","","","","","","","","","","","","","","","",""
"","ISI","","html-keyboard-response","131","201102","0.0-1.0-183.0","0","0","27218","","null","","","null","20","NaN","","","","","","","","","","","","","","",""
"","S2","","html-keyboard-response","132","201356","0.0-1.0-184.0","0","0","27218","","null","","","null","20","","NaN","","","","","","","","","","","","","",""
"","response","","html-keyboard-response","133","201883","0.0-1.0-185.0-0.0","0","0","27218","","523","","","75","20","","","1","20","training","adjacent","AB","1","2","M.jpg","R.jpg","0","1","0","",""
"","feedback","","html-keyboard-response","134","202888","0.0-1.0-186.0-0.0","0","0","27218","","null","","","null","20","","","","","","","","","","","","","","","",""
"","time_out","","html-keyboard-response","135","204891","0.0-1.0-188.0-0.0","0","0","27218","","null","","","null","20","","","","","","","","","","","","","","","",""
"","ITI","","html-keyboard-response","136","205894","0.0-1.0-189.0","0","0","27218","","null","","","null","20","","","","","","","","","","","","","","","NaN",""
"","S1","","html-keyboard-response","137","206148","0.0-1.0-191.0","0","0","27218","","null","","","null","21","","","","","","","","","","","","","","","",""
"","ISI","","html-keyboard-response","138","207152","0.0-1.0-192.0","0","0","27218","","null","","","null","21","NaN","","","","","","","","","","","","","","",""
"","S2","","html-keyboard-response","139","207405","0.0-1.0-193.0","0","0","27218","","null","","","null","21","","NaN","","","","","","","","","","","","","",""
"","response","","html-keyboard-response","140","207662","0.0-1.0-194.0-0.0","0","0","27218","","253","","","75","21","","","1","21","training","adjacent","GF","7","6","O.jpg","Q.jpg","0","0","1","",""
"","feedback","","html-keyboard-response","141","208665","0.0-1.0-195.0-0.0","0","0","27218","","null","","","null","21","","","","","","","","","","","","","","","",""
"","ITI","","html-keyboard-response","142","209668","0.0-1.0-198.0","0","0","27218","","null","","","null","21","","","","","","","","","","","","","","","NaN",""
"","S1","","html-keyboard-response","143","209923","0.0-1.0-200.0","0","0","27218","","null","","","null","22","","","","","","","","","","","","","","","",""
"","ISI","","html-keyboard-response","144","210926","0.0-1.0-201.0","0","0","27218","","null","","","null","22","NaN","","","","","","","","","","","","","","",""
"","S2","","html-keyboard-response","145","211181","0.0-1.0-202.0","0","0","27218","","null","","","null","22","","NaN","","","","","","","","","","","","","",""
"","response","","html-keyboard-response","146","211711","0.0-1.0-203.0-0.0","0","0","27218","","528","","","68","22","","","1","22","training","adjacent","EF","5","6","L.jpg","Q.jpg","1","1","1","",""
"","feedback","","html-keyboard-response","147","212715","0.0-1.0-204.0-0.0","0","0","27218","","null","","","null","22","","","","","","","","","","","","","","","",""
"","ITI","","html-keyboard-response","148","213718","0.0-1.0-207.0","0","0","27218","","null","","","null","22","","","","","","","","","","","","","","","NaN",""
"","S1","","html-keyboard-response","149","213972","0.0-1.0-209.0","0","0","27218","","null","","","null","23","","","","","","","","","","","","","","","",""
"","ISI","","html-keyboard-response","150","214976","0.0-1.0-210.0","0","0","27218","","null","","","null","23","NaN","","","","","","","","","","","","","","",""
"","S2","","html-keyboard-response","151","215230","0.0-1.0-211.0","0","0","27218","","null","","","null","23","","NaN","","","","","","","","","","","","","",""
"","response","","html-keyboard-response","152","215772","0.0-1.0-212.0-0.0","0","0","27218","","540","","","75","23","","","1","23","training","adjacent","CB","3","2","P.jpg","R.jpg","0","0","1","",""
"","feedback","","html-keyboard-response","153","216776","0.0-1.0-213.0-0.0","0","0","27218","","null","","","null","23","","","","","","","","","","","","","","","",""
"","ITI","","html-keyboard-response","154","217781","0.0-1.0-216.0","0","0","27218","","null","","","null","23","","","","","","","","","","","","","","","NaN",""
"","S1","","html-keyboard-response","155","218038","0.0-1.0-218.0","0","0","27218","","null","","","null","24","","","","","","","","","","","","","","","",""
"","ISI","","html-keyboard-response","156","219041","0.0-1.0-219.0","0","0","27218","","null","","","null","24","NaN","","","","","","","","","","","","","","",""
"","S2","","html-keyboard-response","157","219296","0.0-1.0-220.0","0","0","27218","","null","","","null","24","","NaN","","","","","","","","","","","","","",""
"","response","","html-keyboard-response","158","219624","0.0-1.0-221.0-0.0","0","0","27218","","326","","","68","24","","","1","24","training","adjacent","AB","1","2","M.jpg","R.jpg","1","1","1","",""
"","feedback","","html-keyboard-response","159","220629","0.0-1.0-222.0-0.0","0","0","27218","","null","","","null","24","","","","","","","","","","","","","","","",""
"","ITI","","html-keyboard-response","160","221633","0.0-1.0-225.0","0","0","27218","","null","","","null","24","","","","","","","","","","","","","","","NaN",""
"","S1","","html-keyboard-response","161","221886","0.0-1.0-227.0","0","0","27218","","null","","","null","25","","","","","","","","","","","","","","","",""
"","ISI","","html-keyboard-response","162","222890","0.0-1.0-228.0","0","0","27218","","null","","","null","25","NaN","","","","","","","","","","","","","","",""
"","S2","","html-keyboard-response","163","223145","0.0-1.0-229.0","0","0","27218","","null","","","null","25","","NaN","","","","","","","","","","","","","",""
"","response","","html-keyboard-response","164","223303","0.0-1.0-230.0-0.0","0","0","27218","","156","","","75","25","","","1","25","training","adjacent","DE","4","5","N.jpg","L.jpg","0","1","0","",""
"","feedback","","html-keyboard-response","165","224307","0.0-1.0-231.0-0.0","0","0","27218","","null","","","null","25","","","","","","","","","","","","","","","",""
"","time_out","","html-keyboard-response","166","226312","0.0-1.0-233.0-0.0","0","0","27218","","null","","","null","25","","","","","","","","","","","","","","","",""
"","ITI","","html-keyboard-response","167","227315","0.0-1.0-234.0","0","0","27218","","null","","","null","25","","","","","","","","","","","","","","","NaN",""
"","S1","","html-keyboard-response","168","227573","0.0-1.0-236.0","0","0","27218","","null","","","null","26","","","","","","","","","","","","","","","",""
"","ISI","","html-keyboard-response","169","228577","0.0-1.0-237.0","0","0","27218","","null","","","null","26","NaN","","","","","","","","","","","","","","",""
"","S2","","html-keyboard-response","170","228832","0.0-1.0-238.0","0","0","27218","","null","","","null","26","","NaN","","","","","","","","","","","","","",""
"","response","","html-keyboard-response","171","229520","0.0-1.0-239.0-0.0","0","0","27218","","684","","","68","26","","","1","26","training","adjacent","EF","5","6","L.jpg","Q.jpg","1","1","1","",""
"","feedback","","html-keyboard-response","172","230524","0.0-1.0-240.0-0.0","0","0","27218","","null","","","null","26","","","","","","","","","","","","","","","",""
"","ITI","","html-keyboard-response","173","231529","0.0-1.0-243.0","0","0","27218","","null","","","null","26","","","","","","","","","","","","","","","NaN",""
"","S1","","html-keyboard-response","174","231783","0.0-1.0-245.0","0","0","27218","","null","","","null","27","","","","","","","","","","","","","","","",""
"","ISI","","html-keyboard-response","175","232787","0.0-1.0-246.0","0","0","27218","","null","","","null","27","NaN","","","","","","","","","","","","","","",""
"","S2","","html-keyboard-response","176","233041","0.0-1.0-247.0","0","0","27218","","null","","","null","27","","NaN","","","","","","","","","","","","","",""
"","response","","html-keyboard-response","177","233556","0.0-1.0-248.0-0.0","0","0","27218","","511","","","75","27","","","1","27","training","adjacent","CB","3","2","P.jpg","R.jpg","0","0","1","",""
"","feedback","","html-keyboard-response","178","234561","0.0-1.0-249.0-0.0","0","0","27218","","null","","","null","27","","","","","","","","","","","","","","","",""
"","ITI","","html-keyboard-response","179","235565","0.0-1.0-252.0","0","0","27218","","null","","","null","27","","","","","","","","","","","","","","","NaN",""
"","S1","","html-keyboard-response","180","235819","0.0-1.0-254.0","0","0","27218","","null","","","null","28","","","","","","","","","","","","","","","",""
"","ISI","","html-keyboard-response","181","236823","0.0-1.0-255.0","0","0","27218","","null","","","null","28","NaN","","","","","","","","","","","","","","",""
"","S2","","html-keyboard-response","182","237088","0.0-1.0-256.0","0","0","27218","","null","","","null","28","","NaN","","","","","","","","","","","","","",""
"","response","","html-keyboard-response","183","237793","0.0-1.0-257.0-0.0","0","0","27218","","701","","","75","28","","","1","28","training","adjacent","DC","4","3","N.jpg","P.jpg","0","0","1","",""
"","feedback","","html-keyboard-response","184","238798","0.0-1.0-258.0-0.0","0","0","27218","","null","","","null","28","","","","","","","","","","","","","","","",""
"","ITI","","html-keyboard-response","185","239802","0.0-1.0-261.0","0","0","27218","","null","","","null","28","","","","","","","","","","","","","","","NaN",""
"","S1","","html-keyboard-response","186","240057","0.0-1.0-263.0","0","0","27218","","null","","","null","29","","","","","","","","","","","","","","","",""
"","ISI","","html-keyboard-response","187","241060","0.0-1.0-264.0","0","0","27218","","null","","","null","29","NaN","","","","","","","","","","","","","","",""
"","S2","","html-keyboard-response","188","241314","0.0-1.0-265.0","0","0","27218","","null","","","null","29","","NaN","","","","","","","","","","","","","",""
"","response","","html-keyboard-response","189","241749","0.0-1.0-266.0-0.0","0","0","27218","","432","","","75","29","","","1","29","training","adjacent","BA","2","1","R.jpg","M.jpg","0","0","1","",""
"","feedback","","html-keyboard-response","190","242753","0.0-1.0-267.0-0.0","0","0","27218","","null","","","null","29","","","","","","","","","","","","","","","",""
"","ITI","","html-keyboard-response","191","243757","0.0-1.0-270.0","0","0","27218","","null","","","null","29","","","","","","","","","","","","","","","NaN",""
"","S1","","html-keyboard-response","192","244011","0.0-1.0-272.0","0","0","27218","","null","","","null","30","","","","","","","","","","","","","","","",""
"","ISI","","html-keyboard-response","193","245014","0.0-1.0-273.0","0","0","27218","","null","","","null","30","NaN","","","","","","","","","","","","","","",""
"","S2","","html-keyboard-response","194","245269","0.0-1.0-274.0","0","0","27218","","null","","","null","30","","NaN","","","","","","","","","","","","","",""
"","response","","html-keyboard-response","195","245740","0.0-1.0-275.0-0.0","0","0","27218","","468","","","68","30","","","1","30","training","adjacent","AB","1","2","M.jpg","R.jpg","1","1","1","",""
"","feedback","","html-keyboard-response","196","246744","0.0-1.0-276.0-0.0","0","0","27218","","null","","","null","30","","","","","","","","","","","","","","","",""
"","ITI","","html-keyboard-response","197","247747","0.0-1.0-279.0","0","0","27218","","null","","","null","30","","","","","","","","","","","","","","","NaN",""
"","S1","","html-keyboard-response","198","248001","0.0-1.0-281.0","0","0","27218","","null","","","null","31","","","","","","","","","","","","","","","",""
"","ISI","","html-keyboard-response","199","249005","0.0-1.0-282.0","0","0","27218","","null","","","null","31","NaN","","","","","","","","","","","","","","",""
"","S2","","html-keyboard-response","200","249259","0.0-1.0-283.0","0","0","27218","","null","","","null","31","","NaN","","","","","","","","","","","","","",""
"","response","","html-keyboard-response","201","249613","0.0-1.0-284.0-0.0","0","0","27218","","352","","","75","31","","","1","31","training","adjacent","BA","2","1","R.jpg","M.jpg","0","0","1","",""
"","feedback","","html-keyboard-response","202","250618","0.0-1.0-285.0-0.0","0","0","27218","","null","","","null","31","","","","","","","","","","","","","","","",""
"","ITI","","html-keyboard-response","203","251621","0.0-1.0-288.0","0","0","27218","","null","","","null","31","","","","","","","","","","","","","","","NaN",""
"","S1","","html-keyboard-response","204","251875","0.0-1.0-290.0","0","0","27218","","null","","","null","32","","","","","","","","","","","","","","","",""
"","ISI","","html-keyboard-response","205","252879","0.0-1.0-291.0","0","0","27218","","null","","","null","32","NaN","","","","","","","","","","","","","","",""
"","S2","","html-keyboard-response","206","253133","0.0-1.0-292.0","0","0","27218","","null","","","null","32","","NaN","","","","","","","","","","","","","",""
"","response","","html-keyboard-response","207","253398","0.0-1.0-293.0-0.0","0","0","27218","","262","","","75","32","","","1","32","training","adjacent","FE","6","5","Q.jpg","L.jpg","0","0","1","",""
"","feedback","","html-keyboard-response","208","254402","0.0-1.0-294.0-0.0","0","0","27218","","null","","","null","32","","","","","","","","","","","","","","","",""
"","ITI","","html-keyboard-response","209","255407","0.0-1.0-297.0","0","0","27218","","null","","","null","32","","","","","","","","","","","","","","","NaN",""
"","S1","","html-keyboard-response","210","255661","0.0-1.0-299.0","0","0","27218","","null","","","null","33","","","","","","","","","","","","","","","",""
"","ISI","","html-keyboard-response","211","256664","0.0-1.0-300.0","0","0","27218","","null","","","null","33","NaN","","","","","","","","","","","","","","",""
"","S2","","html-keyboard-response","212","256926","0.0-1.0-301.0","0","0","27218","","null","","","null","33","","NaN","","","","","","","","","","","","","",""
"","response","","html-keyboard-response","213","257422","0.0-1.0-302.0-0.0","0","0","27218","","492","","","68","33","","","1","33","training","adjacent","CD","3","4","P.jpg","N.jpg","1","1","1","",""
"","feedback","","html-keyboard-response","214","258426","0.0-1.0-303.0-0.0","0","0","27218","","null","","","null","33","","","","","","","","","","","","","","","",""
"","ITI","","html-keyboard-response","215","259430","0.0-1.0-306.0","0","0","27218","","null","","","null","33","","","","","","","","","","","","","","","NaN",""
"","S1","","html-keyboard-response","216","259684","0.0-1.0-308.0","0","0","27218","","null","","","null","34","","","","","","","","","","","","","","","",""
"","ISI","","html-keyboard-response","217","260687","0.0-1.0-309.0","0","0","27218","","null","","","null","34","NaN","","","","","","","","","","","","","","",""
"","S2","","html-keyboard-response","218","260942","0.0-1.0-310.0","0","0","27218","","null","","","null","34","","NaN","","","","","","","","","","","","","",""
"","response","","html-keyboard-response","219","261482","0.0-1.0-311.0-0.0","0","0","27218","","536","","","75","34","","","1","34","training","adjacent","ED","5","4","L.jpg","N.jpg","0","0","1","",""
"","feedback","","html-keyboard-response","220","262486","0.0-1.0-312.0-0.0","0","0","27218","","null","","","null","34","","","","","","","","","","","","","","","",""
"","ITI","","html-keyboard-response","221","263491","0.0-1.0-315.0","0","0","27218","","null","","","null","34","","","","","","","","","","","","","","","NaN",""
"","S1","","html-keyboard-response","222","263744","0.0-1.0-317.0","0","0","27218","","null","","","null","35","","","","","","","","","","","","","","","",""
"","ISI","","html-keyboard-response","223","264748","0.0-1.0-318.0","0","0","27218","","null","","","null","35","NaN","","","","","","","","","","","","","","",""
"","S2","","html-keyboard-response","224","265005","0.0-1.0-319.0","0","0","27218","","null","","","null","35","","NaN","","","","","","","","","","","","","",""
"","response","","html-keyboard-response","225","265831","0.0-1.0-320.0-0.0","0","0","27218","","823","","","68","35","","","1","35","training","adjacent","EF","5","6","L.jpg","Q.jpg","1","1","1","",""
"","feedback","","html-keyboard-response","226","266835","0.0-1.0-321.0-0.0","0","0","27218","","null","","","null","35","","","","","","","","","","","","","","","",""
"","ITI","","html-keyboard-response","227","267839","0.0-1.0-324.0","0","0","27218","","null","","","null","35","","","","","","","","","","","","","","","NaN",""
"","S1","","html-keyboard-response","228","268092","0.0-1.0-326.0","0","0","27218","","null","","","null","36","","","","","","","","","","","","","","","",""
"","ISI","","html-keyboard-response","229","269096","0.0-1.0-327.0","0","0","27218","","null","","","null","36","NaN","","","","","","","","","","","","","","",""
"","S2","","html-keyboard-response","230","269350","0.0-1.0-328.0","0","0","27218","","null","","","null","36","","NaN","","","","","","","","","","","","","",""
"","response","","html-keyboard-response","231","269621","0.0-1.0-329.0-0.0","0","0","27218","","268","","","75","36","","","1","36","training","adjacent","BC","2","3","R.jpg","P.jpg","0","1","0","",""
"","feedback","","html-keyboard-response","232","270625","0.0-1.0-330.0-0.0","0","0","27218","","null","","","null","36","","","","","","","","","","","","","","","",""
"","time_out","","html-keyboard-response","233","272629","0.0-1.0-332.0-0.0","0","0","27218","","null","","","null","36","","","","","","","","","","","","","","","",""
"","ITI","","html-keyboard-response","234","273632","0.0-1.0-333.0","0","0","27218","","null","","","null","36","","","","","","","","","","","","","","","NaN",""
"","S1","","html-keyboard-response","235","273886","0.0-1.0-335.0","0","0","27218","","null","","","null","37","","","","","","","","","","","","","","","",""
"","ISI","","html-keyboard-response","236","274889","0.0-1.0-336.0","0","0","27218","","null","","","null","37","NaN","","","","","","","","","","","","","","",""
"","S2","","html-keyboard-response","237","275144","0.0-1.0-337.0","0","0","27218","","null","","","null","37","","NaN","","","","","","","","","","","","","",""
"","response","","html-keyboard-response","238","275545","0.0-1.0-338.0-0.0","0","0","27218","","398","","","75","37","","","1","37","training","adjacent","FG","6","7","Q.jpg","O.jpg","0","1","0","",""
"","feedback","","html-keyboard-response","239","276550","0.0-1.0-339.0-0.0","0","0","27218","","null","","","null","37","","","","","","","","","","","","","","","",""
"","time_out","","html-keyboard-response","240","278553","0.0-1.0-341.0-0.0","0","0","27218","","null","","","null","37","","","","","","","","","","","","","","","",""
"","ITI","","html-keyboard-response","241","279557","0.0-1.0-342.0","0","0","27218","","null","","","null","37","","","","","","","","","","","","","","","NaN",""
"","S1","","html-keyboard-response","242","279811","0.0-1.0-344.0","0","0","27218","","null","","","null","38","","","","","","","","","","","","","","","",""
"","ISI","","html-keyboard-response","243","280815","0.0-1.0-345.0","0","0","27218","","null","","","null","38","NaN","","","","","","","","","","","","","","",""
"","S2","","html-keyboard-response","244","281069","0.0-1.0-346.0","0","0","27218","","null","","","null","38","","NaN","","","","","","","","","","","","","",""
"","response","","html-keyboard-response","245","281429","0.0-1.0-347.0-0.0","0","0","27218","","356","","","75","38","","","1","38","training","adjacent","ED","5","4","L.jpg","N.jpg","0","0","1","",""
"","feedback","","html-keyboard-response","246","282441","0.0-1.0-348.0-0.0","0","0","27218","","null","","","null","38","","","","","","","","","","","","","","","",""
"","ITI","","html-keyboard-response","247","283444","0.0-1.0-351.0","0","0","27218","","null","","","null","38","","","","","","","","","","","","","","","NaN",""
"","S1","","html-keyboard-response","248","283699","0.0-1.0-353.0","0","0","27218","","null","","","null","39","","","","","","","","","","","","","","","",""
"","ISI","","html-keyboard-response","249","284703","0.0-1.0-354.0","0","0","27218","","null","","","null","39","NaN","","","","","","","","","","","","","","",""
"","S2","","html-keyboard-response","250","284957","0.0-1.0-355.0","0","0","27218","","null","","","null","39","","NaN","","","","","","","","","","","","","",""
"","response","","html-keyboard-response","251","285183","0.0-1.0-356.0-0.0","0","0","27218","","223","","","75","39","","","1","39","training","adjacent","FG","6","7","Q.jpg","O.jpg","0","1","0","",""
"","feedback","","html-keyboard-response","252","286188","0.0-1.0-357.0-0.0","0","0","27218","","null","","","null","39","","","","","","","","","","","","","","","",""
"","time_out","","html-keyboard-response","253","288193","0.0-1.0-359.0-0.0","0","0","27218","","null","","","null","39","","","","","","","","","","","","","","","",""
"","ITI","","html-keyboard-response","254","289197","0.0-1.0-360.0","0","0","27218","","null","","","null","39","","","","","","","","","","","","","","","NaN",""
"","S1","","html-keyboard-response","255","289451","0.0-1.0-362.0","0","0","27218","","null","","","null","40","","","","","","","","","","","","","","","",""
"","ISI","","html-keyboard-response","256","290455","0.0-1.0-363.0","0","0","27218","","null","","","null","40","NaN","","","","","","","","","","","","","","",""
"","S2","","html-keyboard-response","257","290710","0.0-1.0-364.0","0","0","27218","","null","","","null","40","","NaN","","","","","","","","","","","","","",""
"","response","","html-keyboard-response","258","291107","0.0-1.0-365.0-0.0","0","0","27218","","394","","","75","40","","","1","40","training","adjacent","ED","5","4","L.jpg","N.jpg","0","0","1","",""
"","feedback","","html-keyboard-response","259","292112","0.0-1.0-366.0-0.0","0","0","27218","","null","","","null","40","","","","","","","","","","","","","","","",""
"","ITI","","html-keyboard-response","260","293116","0.0-1.0-369.0","0","0","27218","","null","","","null","40","","","","","","","","","","","","","","","NaN",""
"","S1","","html-keyboard-response","261","293371","0.0-1.0-371.0","0","0","27218","","null","","","null","41","","","","","","","","","","","","","","","",""
"","ISI","","html-keyboard-response","262","294374","0.0-1.0-372.0","0","0","27218","","null","","","null","41","NaN","","","","","","","","","","","","","","",""
"","S2","","html-keyboard-response","263","294639","0.0-1.0-373.0","0","0","27218","","null","","","null","41","","NaN","","","","","","","","","","","","","",""
"","response","","html-keyboard-response","264","295054","0.0-1.0-374.0-0.0","0","0","27218","","412","","","75","41","","","1","41","training","adjacent","DE","4","5","N.jpg","L.jpg","0","1","0","",""
"","feedback","","html-keyboard-response","265","296058","0.0-1.0-375.0-0.0","0","0","27218","","null","","","null","41","","","","","","","","","","","","","","","",""
"","time_out","","html-keyboard-response","266","298062","0.0-1.0-377.0-0.0","0","0","27218","","null","","","null","41","","","","","","","","","","","","","","","",""
"","ITI","","html-keyboard-response","267","299066","0.0-1.0-378.0","0","0","27218","","null","","","null","41","","","","","","","","","","","","","","","NaN",""
"","S1","","html-keyboard-response","268","299320","0.0-1.0-380.0","0","0","27218","","null","","","null","42","","","","","","","","","","","","","","","",""
"","ISI","","html-keyboard-response","269","300323","0.0-1.0-381.0","0","0","27218","","null","","","null","42","NaN","","","","","","","","","","","","","","",""
"","S2","","html-keyboard-response","270","300578","0.0-1.0-382.0","0","0","27218","","null","","","null","42","","NaN","","","","","","","","","","","","","",""
"","response","","html-keyboard-response","271","301088","0.0-1.0-383.0-0.0","0","0","27218","","507","","","68","42","","","1","42","training","adjacent","EF","5","6","L.jpg","Q.jpg","1","1","1","",""
"","feedback","","html-keyboard-response","272","302092","0.0-1.0-384.0-0.0","0","0","27218","","null","","","null","42","","","","","","","","","","","","","","","",""
"","ITI","","html-keyboard-response","273","303096","0.0-1.0-387.0","0","0","27218","","null","","","null","42","","","","","","","","","","","","","","","NaN",""
"","S1","","html-keyboard-response","274","303351","0.0-1.0-389.0","0","0","27218","","null","","","null","43","","","","","","","","","","","","","","","",""
"","ISI","","html-keyboard-response","275","304355","0.0-1.0-390.0","0","0","27218","","null","","","null","43","NaN","","","","","","","","","","","","","","",""
"","S2","","html-keyboard-response","276","304610","0.0-1.0-391.0","0","0","27218","","null","","","null","43","","NaN","","","","","","","","","","","","","",""
"","response","","html-keyboard-response","277","304831","0.0-1.0-392.0-0.0","0","0","27218","","218","","","75","43","","","1","43","training","adjacent","CD","3","4","P.jpg","N.jpg","0","1","0","",""
"","feedback","","html-keyboard-response","278","305835","0.0-1.0-393.0-0.0","0","0","27218","","null","","","null","43","","","","","","","","","","","","","","","",""
"","time_out","","html-keyboard-response","279","307839","0.0-1.0-395.0-0.0","0","0","27218","","null","","","null","43","","","","","","","","","","","","","","","",""
"","ITI","","html-keyboard-response","280","308842","0.0-1.0-396.0","0","0","27218","","null","","","null","43","","","","","","","","","","","","","","","NaN",""
"","S1","","html-keyboard-response","281","309095","0.0-1.0-398.0","0","0","27218","","null","","","null","44","","","","","","","","","","","","","","","",""
"","ISI","","html-keyboard-response","282","310100","0.0-1.0-399.0","0","0","27218","","null","","","null","44","NaN","","","","","","","","","","","","","","",""
"","S2","","html-keyboard-response","283","310355","0.0-1.0-400.0","0","0","27218","","null","","","null","44","","NaN","","","","","","","","","","","","","",""
"","response","","html-keyboard-response","284","310837","0.0-1.0-401.0-0.0","0","0","27218","","479","","","68","44","","","1","44","training","adjacent","DC","4","3","N.jpg","P.jpg","1","0","0","",""
"","feedback","","html-keyboard-response","285","311844","0.0-1.0-402.0-0.0","0","0","27218","","null","","","null","44","","","","","","","","","","","","","","","",""
"","time_out","","html-keyboard-response","286","313847","0.0-1.0-404.0-0.0","0","0","27218","","null","","","null","44","","","","","","","","","","","","","","","",""
"","ITI","","html-keyboard-response","287","314851","0.0-1.0-405.0","0","0","27218","","null","","","null","44","","","","","","","","","","","","","","","NaN",""
"","S1","","html-keyboard-response","288","315105","0.0-1.0-407.0","0","0","27218","","null","","","null","45","","","","","","","","","","","","","","","",""
"","ISI","","html-keyboard-response","289","316109","0.0-1.0-408.0","0","0","27218","","null","","","null","45","NaN","","","","","","","","","","","","","","",""
"","S2","","html-keyboard-response","290","316362","0.0-1.0-409.0","0","0","27218","","null","","","null","45","","NaN","","","","","","","","","","","","","",""
"","response","","html-keyboard-response","291","316893","0.0-1.0-410.0-0.0","0","0","27218","","528","","","75","45","","","1","45","training","adjacent","DE","4","5","N.jpg","L.jpg","0","1","0","",""
"","feedback","","html-keyboard-response","292","317898","0.0-1.0-411.0-0.0","0","0","27218","","null","","","null","45","","","","","","","","","","","","","","","",""
"","time_out","","html-keyboard-response","293","319902","0.0-1.0-413.0-0.0","0","0","27218","","null","","","null","45","","","","","","","","","","","","","","","",""
"","ITI","","html-keyboard-response","294","320905","0.0-1.0-414.0","0","0","27218","","null","","","null","45","","","","","","","","","","","","","","","NaN",""
"","S1","","html-keyboard-response","295","321159","0.0-1.0-416.0","0","0","27218","","null","","","null","46","","","","","","","","","","","","","","","",""
"","ISI","","html-keyboard-response","296","322163","0.0-1.0-417.0","0","0","27218","","null","","","null","46","NaN","","","","","","","","","","","","","","",""
"","S2","","html-keyboard-response","297","322432","0.0-1.0-418.0","0","0","27218","","null","","","null","46","","NaN","","","","","","","","","","","","","",""
"","response","","html-keyboard-response","298","322982","0.0-1.0-419.0-0.0","0","0","27218","","546","","","75","46","","","1","46","training","adjacent","DE","4","5","N.jpg","L.jpg","0","1","0","",""
"","feedback","","html-keyboard-response","299","323986","0.0-1.0-420.0-0.0","0","0","27218","","null","","","null","46","","","","","","","","","","","","","","","",""
"","time_out","","html-keyboard-response","300","325990","0.0-1.0-422.0-0.0","0","0","27218","","null","","","null","46","","","","","","","","","","","","","","","",""
"","ITI","","html-keyboard-response","301","326994","0.0-1.0-423.0","0","0","27218","","null","","","null","46","","","","","","","","","","","","","","","NaN",""
"","S1","","html-keyboard-response","302","327249","0.0-1.0-425.0","0","0","27218","","null","","","null","47","","","","","","","","","","","","","","","",""
"","ISI","","html-keyboard-response","303","328253","0.0-1.0-426.0","0","0","27218","","null","","","null","47","NaN","","","","","","","","","","","","","","",""
"","S2","","html-keyboard-response","304","328521","0.0-1.0-427.0","0","0","27218","","null","","","null","47","","NaN","","","","","","","","","","","","","",""
"","response","","html-keyboard-response","305","329231","0.0-1.0-428.0-0.0","0","0","27218","","707","","","75","47","","","1","47","training","adjacent","BC","2","3","R.jpg","P.jpg","0","1","0","",""
"","feedback","","html-keyboard-response","306","330235","0.0-1.0-429.0-0.0","0","0","27218","","null","","","null","47","","","","","","","","","","","","","","","",""
"","time_out","","html-keyboard-response","307","332240","0.0-1.0-431.0-0.0","0","0","27218","","null","","","null","47","","","","","","","","","","","","","","","",""
"","ITI","","html-keyboard-response","308","333244","0.0-1.0-432.0","0","0","27218","","null","","","null","47","","","","","","","","","","","","","","","NaN",""
"","block_over","","html-keyboard-response","309","342959","0.0-1.0-433.0-0.0","0","0","27218","","9710","","","32","47","","","","","","","","","","","","","","","",""
"","S1","","html-keyboard-response","310","343214","0.0-1.0-434.0","0","0","27218","","null","","","null","48","","","","","","","","","","","","","","","",""
"","ISI","","html-keyboard-response","311","344217","0.0-1.0-435.0","0","0","27218","","null","","","null","48","NaN","","","","","","","","","","","","","","",""
"","S2","","html-keyboard-response","312","344471","0.0-1.0-436.0","0","0","27218","","null","","","null","48","","NaN","","","","","","","","","","","","","",""
"","response","","html-keyboard-response","313","345189","0.0-1.0-437.0-0.0","0","0","27218","","714","","","68","48","","","2","48","training","adjacent","DE","4","5","N.jpg","L.jpg","1","1","1","",""
"","feedback","","html-keyboard-response","314","346193","0.0-1.0-438.0-0.0","0","0","27218","","null","","","null","48","","","","","","","","","","","","","","","",""
"","ITI","","html-keyboard-response","315","347197","0.0-1.0-441.0","0","0","27218","","null","","","null","48","","","","","","","","","","","","","","","NaN",""
"","S1","","html-keyboard-response","316","347451","0.0-1.0-443.0","0","0","27218","","null","","","null","49","","","","","","","","","","","","","","","",""
"","ISI","","html-keyboard-response","317","348454","0.0-1.0-444.0","0","0","27218","","null","","","null","49","NaN","","","","","","","","","","","","","","",""
"","S2","","html-keyboard-response","318","348707","0.0-1.0-445.0","0","0","27218","","null","","","null","49","","NaN","","","","","","","","","","","","","",""
"","response","","html-keyboard-response","319","349161","0.0-1.0-446.0-0.0","0","0","27218","","451","","","68","49","","","2","49","training","adjacent","AB","1","2","M.jpg","R.jpg","1","1","1","",""
"","feedback","","html-keyboard-response","320","350166","0.0-1.0-447.0-0.0","0","0","27218","","null","","","null","49","","","","","","","","","","","","","","","",""
"","ITI","","html-keyboard-response","321","351171","0.0-1.0-450.0","0","0","27218","","null","","","null","49","","","","","","","","","","","","","","","NaN",""
"","S1","","html-keyboard-response","322","351426","0.0-1.0-452.0","0","0","27218","","null","","","null","50","","","","","","","","","","","","","","","",""
"","ISI","","html-keyboard-response","323","352430","0.0-1.0-453.0","0","0","27218","","null","","","null","50","NaN","","","","","","","","","","","","","","",""
"","S2","","html-keyboard-response","324","352684","0.0-1.0-454.0","0","0","27218","","null","","","null","50","","NaN","","","","","","","","","","","","","",""
"","response","","html-keyboard-response","325","353102","0.0-1.0-455.0-0.0","0","0","27218","","415","","","75","50","","","2","50","training","adjacent","EF","5","6","L.jpg","Q.jpg","0","1","0","",""
"","feedback","","html-keyboard-response","326","354106","0.0-1.0-456.0-0.0","0","0","27218","","null","","","null","50","","","","","","","","","","","","","","","",""
"","time_out","","html-keyboard-response","327","356110","0.0-1.0-458.0-0.0","0","0","27218","","null","","","null","50","","","","","","","","","","","","","","","",""
"","ITI","","html-keyboard-response","328","357114","0.0-1.0-459.0","0","0","27218","","null","","","null","50","","","","","","","","","","","","","","","NaN",""
"","S1","","html-keyboard-response","329","357368","0.0-1.0-461.0","0","0","27218","","null","","","null","51","","","","","","","","","","","","","","","",""
"","ISI","","html-keyboard-response","330","358371","0.0-1.0-462.0","0","0","27218","","null","","","null","51","NaN","","","","","","","","","","","","","","",""
"","S2","","html-keyboard-response","331","358625","0.0-1.0-463.0","0","0","27218","","null","","","null","51","","NaN","","","","","","","","","","","","","",""
"","response","","html-keyboard-response","332","358932","0.0-1.0-464.0-0.0","0","0","27218","","305","","","68","51","","","2","51","training","adjacent","GF","7","6","O.jpg","Q.jpg","1","0","0","",""
"","feedback","","html-keyboard-response","333","359936","0.0-1.0-465.0-0.0","0","0","27218","","null","","","null","51","","","","","","","","","","","","","","","",""
"","time_out","","html-keyboard-response","334","361939","0.0-1.0-467.0-0.0","0","0","27218","","null","","","null","51","","","","","","","","","","","","","","","",""
"","ITI","","html-keyboard-response","335","362943","0.0-1.0-468.0","0","0","27218","","null","","","null","51","","","","","","","","","","","","","","","NaN",""
"","S1","","html-keyboard-response","336","363197","0.0-1.0-470.0","0","0","27218","","null","","","null","52","","","","","","","","","","","","","","","",""
"","ISI","","html-keyboard-response","337","364200","0.0-1.0-471.0","0","0","27218","","null","","","null","52","NaN","","","","","","","","","","","","","","",""
"","S2","","html-keyboard-response","338","364455","0.0-1.0-472.0","0","0","27218","","null","","","null","52","","NaN","","","","","","","","","","","","","",""
"","response","","html-keyboard-response","339","364925","0.0-1.0-473.0-0.0","0","0","27218","","467","","","75","52","","","2","52","training","adjacent","BC","2","3","R.jpg","P.jpg","0","1","0","",""
"","feedback","","html-keyboard-response","340","365930","0.0-1.0-474.0-0.0","0","0","27218","","null","","","null","52","","","","","","","","","","","","","","","",""
"","time_out","","html-keyboard-response","341","367934","0.0-1.0-476.0-0.0","0","0","27218","","null","","","null","52","","","","","","","","","","","","","","","",""
"","ITI","","html-keyboard-response","342","368940","0.0-1.0-477.0","0","0","27218","","null","","","null","52","","","","","","","","","","","","","","","NaN",""
"","S1","","html-keyboard-response","343","369194","0.0-1.0-479.0","0","0","27218","","null","","","null","53","","","","","","","","","","","","","","","",""
"","ISI","","html-keyboard-response","344","370199","0.0-1.0-480.0","0","0","27218","","null","","","null","53","NaN","","","","","","","","","","","","","","",""
"","S2","","html-keyboard-response","345","370453","0.0-1.0-481.0","0","0","27218","","null","","","null","53","","NaN","","","","","","","","","","","","","",""
"","response","","html-keyboard-response","346","370902","0.0-1.0-482.0-0.0","0","0","27218","","445","","","75","53","","","2","53","training","adjacent","FE","6","5","Q.jpg","L.jpg","0","0","1","",""
"","feedback","","html-keyboard-response","347","371906","0.0-1.0-483.0-0.0","0","0","27218","","null","","","null","53","","","","","","","","","","","","","","","",""
"","ITI","","html-keyboard-response","348","372911","0.0-1.0-486.0","0","0","27218","","null","","","null","53","","","","","","","","","","","","","","","NaN",""
"","S1","","html-keyboard-response","349","373165","0.0-1.0-488.0","0","0","27218","","null","","","null","54","","","","","","","","","","","","","","","",""
"","ISI","","html-keyboard-response","350","374172","0.0-1.0-489.0","0","0","27218","","null","","","null","54","NaN","","","","","","","","","","","","","","",""
"","S2","","html-keyboard-response","351","374426","0.0-1.0-490.0","0","0","27218","","null","","","null","54","","NaN","","","","","","","","","","","","","",""
"","response","","html-keyboard-response","352","374978","0.0-1.0-491.0-0.0","0","0","27218","","549","","","68","54","","","2","54","training","adjacent","EF","5","6","L.jpg","Q.jpg","1","1","1","",""
"","feedback","","html-keyboard-response","353","375983","0.0-1.0-492.0-0.0","0","0","27218","","null","","","null","54","","","","","","","","","","","","","","","",""
"","ITI","","html-keyboard-response","354","376987","0.0-1.0-495.0","0","0","27218","","null","","","null","54","","","","","","","","","","","","","","","NaN",""
"","S1","","html-keyboard-response","355","377242","0.0-1.0-497.0","0","0","27218","","null","","","null","55","","","","","","","","","","","","","","","",""
"","ISI","","html-keyboard-response","356","378245","0.0-1.0-498.0","0","0","27218","","null","","","null","55","NaN","","","","","","","","","","","","","","",""
"","S2","","html-keyboard-response","357","378499","0.0-1.0-499.0","0","0","27218","","null","","","null","55","","NaN","","","","","","","","","","","","","",""
"","response","","html-keyboard-response","358","378972","0.0-1.0-500.0-0.0","0","0","27218","","469","","","75","55","","","2","55","training","adjacent","BC","2","3","R.jpg","P.jpg","0","1","0","",""
"","feedback","","html-keyboard-response","359","379976","0.0-1.0-501.0-0.0","0","0","27218","","null","","","null","55","","","","","","","","","","","","","","","",""
"","time_out","","html-keyboard-response","360","381980","0.0-1.0-503.0-0.0","0","0","27218","","null","","","null","55","","","","","","","","","","","","","","","",""
"","ITI","","html-keyboard-response","361","382984","0.0-1.0-504.0","0","0","27218","","null","","","null","55","","","","","","","","","","","","","","","NaN",""
"","S1","","html-keyboard-response","362","383238","0.0-1.0-506.0","0","0","27218","","null","","","null","56","","","","","","","","","","","","","","","",""
"","ISI","","html-keyboard-response","363","384241","0.0-1.0-507.0","0","0","27218","","null","","","null","56","NaN","","","","","","","","","","","","","","",""
"","S2","","html-keyboard-response","364","384495","0.0-1.0-508.0","0","0","27218","","null","","","null","56","","NaN","","","","","","","","","","","","","",""
"","response","","html-keyboard-response","365","384894","0.0-1.0-509.0-0.0","0","0","27218","","396","","","75","56","","","2","56","training","adjacent","ED","5","4","L.jpg","N.jpg","0","0","1","",""
"","feedback","","html-keyboard-response","366","385899","0.0-1.0-510.0-0.0","0","0","27218","","null","","","null","56","","","","","","","","","","","","","","","",""
"","ITI","","html-keyboard-response","367","386903","0.0-1.0-513.0","0","0","27218","","null","","","null","56","","","","","","","","","","","","","","","NaN",""
"","S1","","html-keyboard-response","368","387157","0.0-1.0-515.0","0","0","27218","","null","","","null","57","","","","","","","","","","","","","","","",""
"","ISI","","html-keyboard-response","369","388160","0.0-1.0-516.0","0","0","27218","","null","","","null","57","NaN","","","","","","","","","","","","","","",""
"","S2","","html-keyboard-response","370","388415","0.0-1.0-517.0","0","0","27218","","null","","","null","57","","NaN","","","","","","","","","","","","","",""
"","response","","html-keyboard-response","371","388997","0.0-1.0-518.0-0.0","0","0","27218","","579","","","68","57","","","2","57","training","adjacent","CB","3","2","P.jpg","R.jpg","1","0","0","",""
"","feedback","","html-keyboard-response","372","390001","0.0-1.0-519.0-0.0","0","0","27218","","null","","","null","57","","","","","","","","","","","","","","","",""
"","time_out","","html-keyboard-response","373","392005","0.0-1.0-521.0-0.0","0","0","27218","","null","","","null","57","","","","","","","","","","","","","","","",""
"","ITI","","html-keyboard-response","374","393008","0.0-1.0-522.0","0","0","27218","","null","","","null","57","","","","","","","","","","","","","","","NaN",""
"","S1","","html-keyboard-response","375","393262","0.0-1.0-524.0","0","0","27218","","null","","","null","58","","","","","","","","","","","","","","","",""
"","ISI","","html-keyboard-response","376","394265","0.0-1.0-525.0","0","0","27218","","null","","","null","58","NaN","","","","","","","","","","","","","","",""
"","S2","","html-keyboard-response","377","394520","0.0-1.0-526.0","0","0","27218","","null","","","null","58","","NaN","","","","","","","","","","","","","",""
"","response","","html-keyboard-response","378","395057","0.0-1.0-527.0-0.0","0","0","27218","","535","","","75","58","","","2","58","training","adjacent","BA","2","1","R.jpg","M.jpg","0","0","1","",""
"","feedback","","html-keyboard-response","379","396062","0.0-1.0-528.0-0.0","0","0","27218","","null","","","null","58","","","","","","","","","","","","","","","",""
"","ITI","","html-keyboard-response","380","397067","0.0-1.0-531.0","0","0","27218","","null","","","null","58","","","","","","","","","","","","","","","NaN",""
"","S1","","html-keyboard-response","381","397320","0.0-1.0-533.0","0","0","27218","","null","","","null","59","","","","","","","","","","","","","","","",""
"","ISI","","html-keyboard-response","382","398323","0.0-1.0-534.0","0","0","27218","","null","","","null","59","NaN","","","","","","","","","","","","","","",""
"","S2","","html-keyboard-response","383","398578","0.0-1.0-535.0","0","0","27218","","null","","","null","59","","NaN","","","","","","","","","","","","","",""
"","response","","html-keyboard-response","384","399222","0.0-1.0-536.0-0.0","0","0","27218","","641","","","75","59","","","2","59","training","adjacent","FE","6","5","Q.jpg","L.jpg","0","0","1","",""
"","feedback","","html-keyboard-response","385","400227","0.0-1.0-537.0-0.0","0","0","27218","","null","","","null","59","","","","","","","","","","","","","","","",""
"","ITI","","html-keyboard-response","386","401231","0.0-1.0-540.0","0","0","27218","","null","","","null","59","","","","","","","","","","","","","","","NaN",""
"","S1","","html-keyboard-response","387","401484","0.0-1.0-542.0","0","0","27218","","null","","","null","60","","","","","","","","","","","","","","","",""
"","ISI","","html-keyboard-response","388","402488","0.0-1.0-543.0","0","0","27218","","null","","","null","60","NaN","","","","","","","","","","","","","","",""
"","S2","","html-keyboard-response","389","402741","0.0-1.0-544.0","0","0","27218","","null","","","null","60","","NaN","","","","","","","","","","","","","",""
"","response","","html-keyboard-response","390","403205","0.0-1.0-545.0-0.0","0","0","27218","","461","","","68","60","","","2","60","training","adjacent","GF","7","6","O.jpg","Q.jpg","1","0","0","",""
"","feedback","","html-keyboard-response","391","404209","0.0-1.0-546.0-0.0","0","0","27218","","null","","","null","60","","","","","","","","","","","","","","","",""
"","time_out","","html-keyboard-response","392","406213","0.0-1.0-548.0-0.0","0","0","27218","","null","","","null","60","","","","","","","","","","","","","","","",""
"","ITI","","html-keyboard-response","393","407217","0.0-1.0-549.0","0","0","27218","","null","","","null","60","","","","","","","","","","","","","","","NaN",""
"","S1","","html-keyboard-response","394","407471","0.0-1.0-551.0","0","0","27218","","null","","","null","61","","","","","","","","","","","","","","","",""
"","ISI","","html-keyboard-response","395","408475","0.0-1.0-552.0","0","0","27218","","null","","","null","61","NaN","","","","","","","","","","","","","","",""
"","S2","","html-keyboard-response","396","408728","0.0-1.0-553.0","0","0","27218","","null","","","null","61","","NaN","","","","","","","","","","","","","",""
"","response","","html-keyboard-response","397","409623","0.0-1.0-554.0-0.0","0","0","27218","","892","","","68","61","","","2","61","training","adjacent","DC","4","3","N.jpg","P.jpg","1","0","0","",""
"","feedback","","html-keyboard-response","398","410628","0.0-1.0-555.0-0.0","0","0","27218","","null","","","null","61","","","","","","","","","","","","","","","",""
"","time_out","","html-keyboard-response","399","412632","0.0-1.0-557.0-0.0","0","0","27218","","null","","","null","61","","","","","","","","","","","","","","","",""
"","ITI","","html-keyboard-response","400","413637","0.0-1.0-558.0","0","0","27218","","null","","","null","61","","","","","","","","","","","","","","","NaN",""
"","S1","","html-keyboard-response","401","413891","0.0-1.0-560.0","0","0","27218","","null","","","null","62","","","","","","","","","","","","","","","",""
"","ISI","","html-keyboard-response","402","414895","0.0-1.0-561.0","0","0","27218","","null","","","null","62","NaN","","","","","","","","","","","","","","",""
"","S2","","html-keyboard-response","403","415150","0.0-1.0-562.0","0","0","27218","","null","","","null","62","","NaN","","","","","","","","","","","","","",""
"","response","","html-keyboard-response","404","415240","0.0-1.0-563.0-0.0","0","0","27218","","86","","","75","62","","","2","62","training","adjacent","BA","2","1","R.jpg","M.jpg","0","0","1","",""
"","feedback","","html-keyboard-response","405","416245","0.0-1.0-564.0-0.0","0","0","27218","","null","","","null","62","","","","","","","","","","","","","","","",""
"","ITI","","html-keyboard-response","406","417249","0.0-1.0-567.0","0","0","27218","","null","","","null","62","","","","","","","","","","","","","","","NaN",""
"","S1","","html-keyboard-response","407","417504","0.0-1.0-569.0","0","0","27218","","null","","","null","63","","","","","","","","","","","","","","","",""
"","ISI","","html-keyboard-response","408","418508","0.0-1.0-570.0","0","0","27218","","null","","","null","63","NaN","","","","","","","","","","","","","","",""
"","S2","","html-keyboard-response","409","418762","0.0-1.0-571.0","0","0","27218","","null","","","null","63","","NaN","","","","","","","","","","","","","",""
"","response","","html-keyboard-response","410","419346","0.0-1.0-572.0-0.0","0","0","27218","","581","","","75","63","","","2","63","training","adjacent","CD","3","4","P.jpg","N.jpg","0","1","0","",""
"","feedback","","html-keyboard-response","411","420351","0.0-1.0-573.0-0.0","0","0","27218","","null","","","null","63","","","","","","","","","","","","","","","",""
"","time_out","","html-keyboard-response","412","422355","0.0-1.0-575.0-0.0","0","0","27218","","null","","","null","63","","","","","","","","","","","","","","","",""
"","ITI","","html-keyboard-response","413","423359","0.0-1.0-576.0","0","0","27218","","null","","","null","63","","","","","","","","","","","","","","","NaN",""
"","S1","","html-keyboard-response","414","423613","0.0-1.0-578.0","0","0","27218","","null","","","null","64","","","","","","","","","","","","","","","",""
"","ISI","","html-keyboard-response","415","424616","0.0-1.0-579.0","0","0","27218","","null","","","null","64","NaN","","","","","","","","","","","","","","",""
"","S2","","html-keyboard-response","416","424871","0.0-1.0-580.0","0","0","27218","","null","","","null","64","","NaN","","","","","","","","","","","","","",""
"","response","","html-keyboard-response","417","425152","0.0-1.0-581.0-0.0","0","0","27218","","277","","","68","64","","","2","64","training","adjacent","CD","3","4","P.jpg","N.jpg","1","1","1","",""
"","feedback","","html-keyboard-response","418","426156","0.0-1.0-582.0-0.0","0","0","27218","","null","","","null","64","","","","","","","","","","","","","","","",""
"","ITI","","html-keyboard-response","419","427160","0.0-1.0-585.0","0","0","27218","","null","","","null","64","","","","","","","","","","","","","","","NaN",""
"","S1","","html-keyboard-response","420","427415","0.0-1.0-587.0","0","0","27218","","null","","","null","65","","","","","","","","","","","","","","","",""
"","ISI","","html-keyboard-response","421","428419","0.0-1.0-588.0","0","0","27218","","null","","","null","65","NaN","","","","","","","","","","","","","","",""
"","S2","","html-keyboard-response","422","428673","0.0-1.0-589.0","0","0","27218","","null","","","null","65","","NaN","","","","","","","","","","","","","",""
"","response","","html-keyboard-response","423","429375","0.0-1.0-590.0-0.0","0","0","27218","","699","","","68","65","","","2","65","training","adjacent","DE","4","5","N.jpg","L.jpg","1","1","1","",""
"","feedback","","html-keyboard-response","424","430380","0.0-1.0-591.0-0.0","0","0","27218","","null","","","null","65","","","","","","","","","","","","","","","",""
"","ITI","","html-keyboard-response","425","431385","0.0-1.0-594.0","0","0","27218","","null","","","null","65","","","","","","","","","","","","","","","NaN",""
"","S1","","html-keyboard-response","426","431640","0.0-1.0-596.0","0","0","27218","","null","","","null","66","","","","","","","","","","","","","","","",""
"","ISI","","html-keyboard-response","427","432643","0.0-1.0-597.0","0","0","27218","","null","","","null","66","NaN","","","","","","","","","","","","","","",""
"","S2","","html-keyboard-response","428","432898","0.0-1.0-598.0","0","0","27218","","null","","","null","66","","NaN","","","","","","","","","","","","","",""
"","response","","html-keyboard-response","429","433407","0.0-1.0-599.0-0.0","0","0","27218","","505","","","75","66","","","2","66","training","adjacent","BC","2","3","R.jpg","P.jpg","0","1","0","",""
"","feedback","","html-keyboard-response","430","434412","0.0-1.0-600.0-0.0","0","0","27218","","null","","","null","66","","","","","","","","","","","","","","","",""
"","time_out","","html-keyboard-response","431","436416","0.0-1.0-602.0-0.0","0","0","27218","","null","","","null","66","","","","","","","","","","","","","","","",""
"","ITI","","html-keyboard-response","432","437420","0.0-1.0-603.0","0","0","27218","","null","","","null","66","","","","","","","","","","","","","","","NaN",""
"","S1","","html-keyboard-response","433","437674","0.0-1.0-605.0","0","0","27218","","null","","","null","67","","","","","","","","","","","","","","","",""
"","ISI","","html-keyboard-response","434","438678","0.0-1.0-606.0","0","0","27218","","null","","","null","67","NaN","","","","","","","","","","","","","","",""
"","S2","","html-keyboard-response","435","438933","0.0-1.0-607.0","0","0","27218","","null","","","null","67","","NaN","","","","","","","","","","","","","",""
"","response","","html-keyboard-response","436","439581","0.0-1.0-608.0-0.0","0","0","27218","","644","","","68","67","","","2","67","training","adjacent","CB","3","2","P.jpg","R.jpg","1","0","0","",""
"","feedback","","html-keyboard-response","437","440586","0.0-1.0-609.0-0.0","0","0","27218","","null","","","null","67","","","","","","","","","","","","","","","",""
"","time_out","","html-keyboard-response","438","442590","0.0-1.0-611.0-0.0","0","0","27218","","null","","","null","67","","","","","","","","","","","","","","","",""
"","ITI","","html-keyboard-response","439","443594","0.0-1.0-612.0","0","0","27218","","null","","","null","67","","","","","","","","","","","","","","","NaN",""
"","S1","","html-keyboard-response","440","443848","0.0-1.0-614.0","0","0","27218","","null","","","null","68","","","","","","","","","","","","","","","",""
"","ISI","","html-keyboard-response","441","444851","0.0-1.0-615.0","0","0","27218","","null","","","null","68","NaN","","","","","","","","","","","","","","",""
"","S2","","html-keyboard-response","442","445105","0.0-1.0-616.0","0","0","27218","","null","","","null","68","","NaN","","","","","","","","","","","","","",""
"","response","","html-keyboard-response","443","445681","0.0-1.0-617.0-0.0","0","0","27218","","573","","","75","68","","","2","68","training","adjacent","CB","3","2","P.jpg","R.jpg","0","0","1","",""
"","feedback","","html-keyboard-response","444","446685","0.0-1.0-618.0-0.0","0","0","27218","","null","","","null","68","","","","","","","","","","","","","","","",""
"","ITI","","html-keyboard-response","445","447689","0.0-1.0-621.0","0","0","27218","","null","","","null","68","","","","","","","","","","","","","","","NaN",""
"","S1","","html-keyboard-response","446","447943","0.0-1.0-623.0","0","0","27218","","null","","","null","69","","","","","","","","","","","","","","","",""
"","ISI","","html-keyboard-response","447","448947","0.0-1.0-624.0","0","0","27218","","null","","","null","69","NaN","","","","","","","","","","","","","","",""
"","S2","","html-keyboard-response","448","449201","0.0-1.0-625.0","0","0","27218","","null","","","null","69","","NaN","","","","","","","","","","","","","",""
"","response","","html-keyboard-response","449","450062","0.0-1.0-626.0-0.0","0","0","27218","","858","","","68","69","","","2","69","training","adjacent","FG","6","7","Q.jpg","O.jpg","1","1","1","",""
"","feedback","","html-keyboard-response","450","451067","0.0-1.0-627.0-0.0","0","0","27218","","null","","","null","69","","","","","","","","","","","","","","","",""
"","ITI","","html-keyboard-response","451","452071","0.0-1.0-630.0","0","0","27218","","null","","","null","69","","","","","","","","","","","","","","","NaN",""
"","S1","","html-keyboard-response","452","452326","0.0-1.0-632.0","0","0","27218","","null","","","null","70","","","","","","","","","","","","","","","",""
"","ISI","","html-keyboard-response","453","453330","0.0-1.0-633.0","0","0","27218","","null","","","null","70","NaN","","","","","","","","","","","","","","",""
"","S2","","html-keyboard-response","454","453585","0.0-1.0-634.0","0","0","27218","","null","","","null","70","","NaN","","","","","","","","","","","","","",""
"","response","","html-keyboard-response","455","454220","0.0-1.0-635.0-0.0","0","0","27218","","632","","","68","70","","","2","70","training","adjacent","FG","6","7","Q.jpg","O.jpg","1","1","1","",""
"","feedback","","html-keyboard-response","456","455224","0.0-1.0-636.0-0.0","0","0","27218","","null","","","null","70","","","","","","","","","","","","","","","",""
"","ITI","","html-keyboard-response","457","456228","0.0-1.0-639.0","0","0","27218","","null","","","null","70","","","","","","","","","","","","","","","NaN",""
"","S1","","html-keyboard-response","458","456482","0.0-1.0-641.0","0","0","27218","","null","","","null","71","","","","","","","","","","","","","","","",""
"","ISI","","html-keyboard-response","459","457486","0.0-1.0-642.0","0","0","27218","","null","","","null","71","NaN","","","","","","","","","","","","","","",""
"","S2","","html-keyboard-response","460","457740","0.0-1.0-643.0","0","0","27218","","null","","","null","71","","NaN","","","","","","","","","","","","","",""
"","response","","html-keyboard-response","461","458635","0.0-1.0-644.0-0.0","0","0","27218","","891","","","75","71","","","2","71","training","adjacent","FG","6","7","Q.jpg","O.jpg","0","1","0","",""
"","feedback","","html-keyboard-response","462","459639","0.0-1.0-645.0-0.0","0","0","27218","","null","","","null","71","","","","","","","","","","","","","","","",""
"","time_out","","html-keyboard-response","463","461642","0.0-1.0-647.0-0.0","0","0","27218","","null","","","null","71","","","","","","","","","","","","","","","",""
"","ITI","","html-keyboard-response","464","462646","0.0-1.0-648.0","0","0","27218","","null","","","null","71","","","","","","","","","","","","","","","NaN",""
"","S1","","html-keyboard-response","465","462900","0.0-1.0-650.0","0","0","27218","","null","","","null","72","","","","","","","","","","","","","","","",""
"","ISI","","html-keyboard-response","466","463904","0.0-1.0-651.0","0","0","27218","","null","","","null","72","NaN","","","","","","","","","","","","","","",""
"","S2","","html-keyboard-response","467","464157","0.0-1.0-652.0","0","0","27218","","null","","","null","72","","NaN","","","","","","","","","","","","","",""
"","response","","html-keyboard-response","468","464950","0.0-1.0-653.0-0.0","0","0","27218","","790","","","75","72","","","2","72","training","adjacent","FE","6","5","Q.jpg","L.jpg","0","0","1","",""
"","feedback","","html-keyboard-response","469","465955","0.0-1.0-654.0-0.0","0","0","27218","","null","","","null","72","","","","","","","","","","","","","","","",""
"","ITI","","html-keyboard-response","470","466959","0.0-1.0-657.0","0","0","27218","","null","","","null","72","","","","","","","","","","","","","","","NaN",""
"","S1","","html-keyboard-response","471","467213","0.0-1.0-659.0","0","0","27218","","null","","","null","73","","","","","","","","","","","","","","","",""
"","ISI","","html-keyboard-response","472","468217","0.0-1.0-660.0","0","0","27218","","null","","","null","73","NaN","","","","","","","","","","","","","","",""
"","S2","","html-keyboard-response","473","468471","0.0-1.0-661.0","0","0","27218","","null","","","null","73","","NaN","","","","","","","","","","","","","",""
"","response","","html-keyboard-response","474","469271","0.0-1.0-662.0-0.0","0","0","27218","","796","","","75","73","","","2","73","training","adjacent","GF","7","6","O.jpg","Q.jpg","0","0","1","",""
"","feedback","","html-keyboard-response","475","470275","0.0-1.0-663.0-0.0","0","0","27218","","null","","","null","73","","","","","","","","","","","","","","","",""
"","ITI","","html-keyboard-response","476","471279","0.0-1.0-666.0","0","0","27218","","null","","","null","73","","","","","","","","","","","","","","","NaN",""
"","S1","","html-keyboard-response","477","471533","0.0-1.0-668.0","0","0","27218","","null","","","null","74","","","","","","","","","","","","","","","",""
"","ISI","","html-keyboard-response","478","472537","0.0-1.0-669.0","0","0","27218","","null","","","null","74","NaN","","","","","","","","","","","","","","",""
"","S2","","html-keyboard-response","479","472791","0.0-1.0-670.0","0","0","27218","","null","","","null","74","","NaN","","","","","","","","","","","","","",""
"","response","","html-keyboard-response","480","473271","0.0-1.0-671.0-0.0","0","0","27218","","476","","","75","74","","","2","74","training","adjacent","ED","5","4","L.jpg","N.jpg","0","0","1","",""
"","feedback","","html-keyboard-response","481","474274","0.0-1.0-672.0-0.0","0","0","27218","","null","","","null","74","","","","","","","","","","","","","","","",""
"","ITI","","html-keyboard-response","482","475279","0.0-1.0-675.0","0","0","27218","","null","","","null","74","","","","","","","","","","","","","","","NaN",""
"","S1","","html-keyboard-response","483","475532","0.0-1.0-677.0","0","0","27218","","null","","","null","75","","","","","","","","","","","","","","","",""
"","ISI","","html-keyboard-response","484","476536","0.0-1.0-678.0","0","0","27218","","null","","","null","75","NaN","","","","","","","","","","","","","","",""
"","S2","","html-keyboard-response","485","476789","0.0-1.0-679.0","0","0","27218","","null","","","null","75","","NaN","","","","","","","","","","","","","",""
"","response","","html-keyboard-response","486","477276","0.0-1.0-680.0-0.0","0","0","27218","","484","","","75","75","","","2","75","training","adjacent","GF","7","6","O.jpg","Q.jpg","0","0","1","",""
"","feedback","","html-keyboard-response","487","478281","0.0-1.0-681.0-0.0","0","0","27218","","null","","","null","75","","","","","","","","","","","","","","","",""
"","ITI","","html-keyboard-response","488","479285","0.0-1.0-684.0","0","0","27218","","null","","","null","75","","","","","","","","","","","","","","","NaN",""
"","S1","","html-keyboard-response","489","479540","0.0-1.0-686.0","0","0","27218","","null","","","null","76","","","","","","","","","","","","","","","",""
"","ISI","","html-keyboard-response","490","480543","0.0-1.0-687.0","0","0","27218","","null","","","null","76","NaN","","","","","","","","","","","","","","",""
"","S2","","html-keyboard-response","491","480797","0.0-1.0-688.0","0","0","27218","","null","","","null","76","","NaN","","","","","","","","","","","","","",""
"","response","","html-keyboard-response","492","481187","0.0-1.0-689.0-0.0","0","0","27218","","387","","","75","76","","","2","76","training","adjacent","FE","6","5","Q.jpg","L.jpg","0","0","1","",""
"","feedback","","html-keyboard-response","493","482192","0.0-1.0-690.0-0.0","0","0","27218","","null","","","null","76","","","","","","","","","","","","","","","",""
"","ITI","","html-keyboard-response","494","483194","0.0-1.0-693.0","0","0","27218","","null","","","null","76","","","","","","","","","","","","","","","NaN",""
"","S1","","html-keyboard-response","495","483448","0.0-1.0-695.0","0","0","27218","","null","","","null","77","","","","","","","","","","","","","","","",""
"","ISI","","html-keyboard-response","496","484452","0.0-1.0-696.0","0","0","27218","","null","","","null","77","NaN","","","","","","","","","","","","","","",""
"","S2","","html-keyboard-response","497","484706","0.0-1.0-697.0","0","0","27218","","null","","","null","77","","NaN","","","","","","","","","","","","","",""
"","response","","html-keyboard-response","498","485098","0.0-1.0-698.0-0.0","0","0","27218","","388","","","68","77","","","2","77","training","adjacent","DC","4","3","N.jpg","P.jpg","1","0","0","",""
"","feedback","","html-keyboard-response","499","486102","0.0-1.0-699.0-0.0","0","0","27218","","null","","","null","77","","","","","","","","","","","","","","","",""
"","time_out","","html-keyboard-response","500","488105","0.0-1.0-701.0-0.0","0","0","27218","","null","","","null","77","","","","","","","","","","","","","","","",""
"","ITI","","html-keyboard-response","501","489109","0.0-1.0-702.0","0","0","27218","","null","","","null","77","","","","","","","","","","","","","","","NaN",""
"","S1","","html-keyboard-response","502","489362","0.0-1.0-704.0","0","0","27218","","null","","","null","78","","","","","","","","","","","","","","","",""
"","ISI","","html-keyboard-response","503","490366","0.0-1.0-705.0","0","0","27218","","null","","","null","78","NaN","","","","","","","","","","","","","","",""
"","S2","","html-keyboard-response","504","490620","0.0-1.0-706.0","0","0","27218","","null","","","null","78","","NaN","","","","","","","","","","","","","",""
"","response","","html-keyboard-response","505","491233","0.0-1.0-707.0-0.0","0","0","27218","","610","","","68","78","","","2","78","training","adjacent","EF","5","6","L.jpg","Q.jpg","1","1","1","",""
"","feedback","","html-keyboard-response","506","492239","0.0-1.0-708.0-0.0","0","0","27218","","null","","","null","78","","","","","","","","","","","","","","","",""
"","ITI","","html-keyboard-response","507","493243","0.0-1.0-711.0","0","0","27218","","null","","","null","78","","","","","","","","","","","","","","","NaN",""
"","S1","","html-keyboard-response","508","493498","0.0-1.0-713.0","0","0","27218","","null","","","null","79","","","","","","","","","","","","","","","",""
"","ISI","","html-keyboard-response","509","494501","0.0-1.0-714.0","0","0","27218","","null","","","null","79","NaN","","","","","","","","","","","","","","",""
"","S2","","html-keyboard-response","510","494755","0.0-1.0-715.0","0","0","27218","","null","","","null","79","","NaN","","","","","","","","","","","","","",""
"","response","","html-keyboard-response","511","495095","0.0-1.0-716.0-0.0","0","0","27218","","337","","","68","79","","","2","79","training","adjacent","AB","1","2","M.jpg","R.jpg","1","1","1","",""
"","feedback","","html-keyboard-response","512","496100","0.0-1.0-717.0-0.0","0","0","27218","","null","","","null","79","","","","","","","","","","","","","","","",""
"","ITI","","html-keyboard-response","513","497104","0.0-1.0-720.0","0","0","27218","","null","","","null","79","","","","","","","","","","","","","","","NaN",""
"","S1","","html-keyboard-response","514","497361","0.0-1.0-722.0","0","0","27218","","null","","","null","80","","","","","","","","","","","","","","","",""
"","ISI","","html-keyboard-response","515","498365","0.0-1.0-723.0","0","0","27218","","null","","","null","80","NaN","","","","","","","","","","","","","","",""
"","S2","","html-keyboard-response","516","498619","0.0-1.0-724.0","0","0","27218","","null","","","null","80","","NaN","","","","","","","","","","","","","",""
"","response","","html-keyboard-response","517","498902","0.0-1.0-725.0-0.0","0","0","27218","","278","","","75","80","","","2","80","training","adjacent","BA","2","1","R.jpg","M.jpg","0","0","1","",""
"","feedback","","html-keyboard-response","518","499906","0.0-1.0-726.0-0.0","0","0","27218","","null","","","null","80","","","","","","","","","","","","","","","",""
"","ITI","","html-keyboard-response","519","500911","0.0-1.0-729.0","0","0","27218","","null","","","null","80","","","","","","","","","","","","","","","NaN",""
"","S1","","html-keyboard-response","520","501164","0.0-1.0-731.0","0","0","27218","","null","","","null","81","","","","","","","","","","","","","","","",""
"","ISI","","html-keyboard-response","521","502167","0.0-1.0-732.0","0","0","27218","","null","","","null","81","NaN","","","","","","","","","","","","","","",""
"","S2","","html-keyboard-response","522","502421","0.0-1.0-733.0","0","0","27218","","null","","","null","81","","NaN","","","","","","","","","","","","","",""
"","response","","html-keyboard-response","523","503022","0.0-1.0-734.0-0.0","0","0","27218","","598","","","75","81","","","2","81","training","adjacent","BC","2","3","R.jpg","P.jpg","0","1","0","",""
"","feedback","","html-keyboard-response","524","504026","0.0-1.0-735.0-0.0","0","0","27218","","null","","","null","81","","","","","","","","","","","","","","","",""
"","time_out","","html-keyboard-response","525","506030","0.0-1.0-737.0-0.0","0","0","27218","","null","","","null","81","","","","","","","","","","","","","","","",""
"","ITI","","html-keyboard-response","526","507033","0.0-1.0-738.0","0","0","27218","","null","","","null","81","","","","","","","","","","","","","","","NaN",""
"","S1","","html-keyboard-response","527","507288","0.0-1.0-740.0","0","0","27218","","null","","","null","82","","","","","","","","","","","","","","","",""
"","ISI","","html-keyboard-response","528","508292","0.0-1.0-741.0","0","0","27218","","null","","","null","82","NaN","","","","","","","","","","","","","","",""
"","S2","","html-keyboard-response","529","508546","0.0-1.0-742.0","0","0","27218","","null","","","null","82","","NaN","","","","","","","","","","","","","",""
"","response","","html-keyboard-response","530","509308","0.0-1.0-743.0-0.0","0","0","27218","","759","","","68","82","","","2","82","training","adjacent","FG","6","7","Q.jpg","O.jpg","1","1","1","",""
"","feedback","","html-keyboard-response","531","510312","0.0-1.0-744.0-0.0","0","0","27218","","null","","","null","82","","","","","","","","","","","","","","","",""
"","ITI","","html-keyboard-response","532","511316","0.0-1.0-747.0","0","0","27218","","null","","","null","82","","","","","","","","","","","","","","","NaN",""
"","S1","","html-keyboard-response","533","511571","0.0-1.0-749.0","0","0","27218","","null","","","null","83","","","","","","","","","","","","","","","",""
"","ISI","","html-keyboard-response","534","512575","0.0-1.0-750.0","0","0","27218","","null","","","null","83","NaN","","","","","","","","","","","","","","",""
"","S2","","html-keyboard-response","535","512829","0.0-1.0-751.0","0","0","27218","","null","","","null","83","","NaN","","","","","","","","","","","","","",""
"","response","","html-keyboard-response","536","513380","0.0-1.0-752.0-0.0","0","0","27218","","547","","","68","83","","","2","83","training","adjacent","DE","4","5","N.jpg","L.jpg","1","1","1","",""
"","feedback","","html-keyboard-response","537","514385","0.0-1.0-753.0-0.0","0","0","27218","","null","","","null","83","","","","","","","","","","","","","","","",""
"","ITI","","html-keyboard-response","538","515390","0.0-1.0-756.0","0","0","27218","","null","","","null","83","","","","","","","","","","","","","","","NaN",""
"","S1","","html-keyboard-response","539","515645","0.0-1.0-758.0","0","0","27218","","null","","","null","84","","","","","","","","","","","","","","","",""
"","ISI","","html-keyboard-response","540","516648","0.0-1.0-759.0","0","0","27218","","null","","","null","84","NaN","","","","","","","","","","","","","","",""
"","S2","","html-keyboard-response","541","516902","0.0-1.0-760.0","0","0","27218","","null","","","null","84","","NaN","","","","","","","","","","","","","",""
"","response","","html-keyboard-response","542","517340","0.0-1.0-761.0-0.0","0","0","27218","","435","","","68","84","","","2","84","training","adjacent","AB","1","2","M.jpg","R.jpg","1","1","1","",""
"","feedback","","html-keyboard-response","543","518345","0.0-1.0-762.0-0.0","0","0","27218","","null","","","null","84","","","","","","","","","","","","","","","",""
"","ITI","","html-keyboard-response","544","519349","0.0-1.0-765.0","0","0","27218","","null","","","null","84","","","","","","","","","","","","","","","NaN",""
"","S1","","html-keyboard-response","545","519603","0.0-1.0-767.0","0","0","27218","","null","","","null","85","","","","","","","","","","","","","","","",""
"","ISI","","html-keyboard-response","546","520606","0.0-1.0-768.0","0","0","27218","","null","","","null","85","NaN","","","","","","","","","","","","","","",""
"","S2","","html-keyboard-response","547","520860","0.0-1.0-769.0","0","0","27218","","null","","","null","85","","NaN","","","","","","","","","","","","","",""
"","response","","html-keyboard-response","548","521410","0.0-1.0-770.0-0.0","0","0","27218","","547","","","68","85","","","2","85","training","adjacent","CD","3","4","P.jpg","N.jpg","1","1","1","",""
"","feedback","","html-keyboard-response","549","522415","0.0-1.0-771.0-0.0","0","0","27218","","null","","","null","85","","","","","","","","","","","","","","","",""
"","ITI","","html-keyboard-response","550","523418","0.0-1.0-774.0","0","0","27218","","null","","","null","85","","","","","","","","","","","","","","","NaN",""
"","S1","","html-keyboard-response","551","523674","0.0-1.0-776.0","0","0","27218","","null","","","null","86","","","","","","","","","","","","","","","",""
"","ISI","","html-keyboard-response","552","524678","0.0-1.0-777.0","0","0","27218","","null","","","null","86","NaN","","","","","","","","","","","","","","",""
"","S2","","html-keyboard-response","553","524933","0.0-1.0-778.0","0","0","27218","","null","","","null","86","","NaN","","","","","","","","","","","","","",""
"","response","","html-keyboard-response","554","525559","0.0-1.0-779.0-0.0","0","0","27218","","622","","","75","86","","","2","86","training","adjacent","DC","4","3","N.jpg","P.jpg","0","0","1","",""
"","feedback","","html-keyboard-response","555","526564","0.0-1.0-780.0-0.0","0","0","27218","","null","","","null","86","","","","","","","","","","","","","","","",""
"","ITI","","html-keyboard-response","556","527568","0.0-1.0-783.0","0","0","27218","","null","","","null","86","","","","","","","","","","","","","","","NaN",""
"","S1","","html-keyboard-response","557","527822","0.0-1.0-785.0","0","0","27218","","null","","","null","87","","","","","","","","","","","","","","","",""
"","ISI","","html-keyboard-response","558","528826","0.0-1.0-786.0","0","0","27218","","null","","","null","87","NaN","","","","","","","","","","","","","","",""
"","S2","","html-keyboard-response","559","529081","0.0-1.0-787.0","0","0","27218","","null","","","null","87","","NaN","","","","","","","","","","","","","",""
"","response","","html-keyboard-response","560","529757","0.0-1.0-788.0-0.0","0","0","27218","","673","","","75","87","","","2","87","training","adjacent","DC","4","3","N.jpg","P.jpg","0","0","1","",""
"","feedback","","html-keyboard-response","561","530761","0.0-1.0-789.0-0.0","0","0","27218","","null","","","null","87","","","","","","","","","","","","","","","",""
"","ITI","","html-keyboard-response","562","531765","0.0-1.0-792.0","0","0","27218","","null","","","null","87","","","","","","","","","","","","","","","NaN",""
"","S1","","html-keyboard-response","563","532019","0.0-1.0-794.0","0","0","27218","","null","","","null","88","","","","","","","","","","","","","","","",""
"","ISI","","html-keyboard-response","564","533023","0.0-1.0-795.0","0","0","27218","","null","","","null","88","NaN","","","","","","","","","","","","","","",""
"","S2","","html-keyboard-response","565","533277","0.0-1.0-796.0","0","0","27218","","null","","","null","88","","NaN","","","","","","","","","","","","","",""
"","response","","html-keyboard-response","566","534174","0.0-1.0-797.0-0.0","0","0","27218","","893","","","68","88","","","2","88","training","adjacent","EF","5","6","L.jpg","Q.jpg","1","1","1","",""
"","feedback","","html-keyboard-response","567","535178","0.0-1.0-798.0-0.0","0","0","27218","","null","","","null","88","","","","","","","","","","","","","","","",""
"","ITI","","html-keyboard-response","568","536182","0.0-1.0-801.0","0","0","27218","","null","","","null","88","","","","","","","","","","","","","","","NaN",""
"","S1","","html-keyboard-response","569","536435","0.0-1.0-803.0","0","0","27218","","null","","","null","89","","","","","","","","","","","","","","","",""
"","ISI","","html-keyboard-response","570","537439","0.0-1.0-804.0","0","0","27218","","null","","","null","89","NaN","","","","","","","","","","","","","","",""
"","S2","","html-keyboard-response","571","537693","0.0-1.0-805.0","0","0","27218","","null","","","null","89","","NaN","","","","","","","","","","","","","",""
"","response","","html-keyboard-response","572","538661","0.0-1.0-806.0-0.0","0","0","27218","","965","","","68","89","","","2","89","training","adjacent","ED","5","4","L.jpg","N.jpg","1","0","0","",""
"","feedback","","html-keyboard-response","573","539666","0.0-1.0-807.0-0.0","0","0","27218","","null","","","null","89","","","","","","","","","","","","","","","",""
"","time_out","","html-keyboard-response","574","541670","0.0-1.0-809.0-0.0","0","0","27218","","null","","","null","89","","","","","","","","","","","","","","","",""
"","ITI","","html-keyboard-response","575","542674","0.0-1.0-810.0","0","0","27218","","null","","","null","89","","","","","","","","","","","","","","","NaN",""
"","S1","","html-keyboard-response","576","542928","0.0-1.0-812.0","0","0","27218","","null","","","null","90","","","","","","","","","","","","","","","",""
"","ISI","","html-keyboard-response","577","543933","0.0-1.0-813.0","0","0","27218","","null","","","null","90","NaN","","","","","","","","","","","","","","",""
"","S2","","html-keyboard-response","578","544188","0.0-1.0-814.0","0","0","27218","","null","","","null","90","","NaN","","","","","","","","","","","","","",""
"","response","","html-keyboard-response","579","545201","0.0-1.0-815.0-0.0","0","0","27218","","1010","","","75","90","","","2","90","training","adjacent","DE","4","5","N.jpg","L.jpg","0","1","0","",""
"","feedback","","html-keyboard-response","580","546206","0.0-1.0-816.0-0.0","0","0","27218","","null","","","null","90","","","","","","","","","","","","","","","",""
"","time_out","","html-keyboard-response","581","548211","0.0-1.0-818.0-0.0","0","0","27218","","null","","","null","90","","","","","","","","","","","","","","","",""
"","ITI","","html-keyboard-response","582","549214","0.0-1.0-819.0","0","0","27218","","null","","","null","90","","","","","","","","","","","","","","","NaN",""
