"success","ttype","start_time","trial_type","trial_index","time_elapsed","internal_node_id","warning","missed_checkup","PID","view_history","rt","responses","repeat_instructions","key_press","index","keypress_isi","keypress_S2","block","trial_num","phase","group_type","pair_type","S1_stim","S2_stim","S1_img","S2_img","S1_chosen","S1_higher","accuracy","keypress_iti","total_bonus_tally"
"true","full_screen","d03082023hr1429","fullscreen","0","17493","0.0-0.0","0","0","45448","","","","","","","","","","","","","","","","","","","","","",""
"","instructions","","instructions","1","38663","0.0-1.0-0.0-0.0","0","0","45448","[{""page_index"":0,""viewing_time"":3440},{""page_index"":1,""viewing_time"":9058},{""page_index"":2,""viewing_time"":7106},{""page_index"":3,""viewing_time"":1563}]","21168","","","","","","","","","","","","","","","","","","","",""
"","comprehension_check","","survey-multi-choice","2","58692","0.0-1.0-0.0-1.0","0","0","45448","","20021","{""Q0"":""True"",""Q1"":""D"",""Q2"":""Only when the screen 'MAKE A CHOICE' is shown"",""Q3"":""Green mark"",""Q4"":""either D or K""}","1","","","","","","","","","","","","","","","","","",""
"","missed_instruction_checkup","","html-keyboard-response","3","60074","0.0-1.0-0.0-2.0-0.0","0","1","45448","","1373","","","32","","","","","","","","","","","","","","","","",""
"","instructions","","instructions","4","70387","0.0-1.0-0.1-0.1","0","0","45448","[{""page_index"":0,""viewing_time"":1924},{""page_index"":1,""viewing_time"":5793},{""page_index"":2,""viewing_time"":1870},{""page_index"":3,""viewing_time"":724}]","10311","","","","","","","","","","","","","","","","","","","",""
"","comprehension_check","","survey-multi-choice","5","80894","0.0-1.0-0.1-1.1","0","0","45448","","10499","{""Q0"":""True"",""Q1"":""D"",""Q2"":""Once the second image appears and while the screen 'MAKE A CHOICE' is shown"",""Q3"":""Green mark"",""Q4"":""either D or K""}","0","","","","","","","","","","","","","","","","","",""
"","start_exp","","html-keyboard-response","6","81906","0.0-1.0-1.0","0","0","45448","","1006","","","32","","","","","","","","","","","","","","","","",""
"","S1","","html-keyboard-response","7","82164","0.0-1.0-2.0","0","0","45448","","null","","","null","0","","","","","","","","","","","","","","","",""
"","ISI","","html-keyboard-response","8","82322","0.0-1.0-3.0","0","0","45448","","null","","","null","0","NaN","","","","","","","","","","","","","","",""
"","S2","","html-keyboard-response","9","82584","0.0-1.0-4.0","0","0","45448","","null","","","null","0","","NaN","","","","","","","","","","","","","",""
"","response","","html-keyboard-response","10","83772","0.0-1.0-5.0-0.0","0","0","45448","","1184","","","68","0","","","1","0","training","adjacent","DE","4","5","L.jpg","P.jpg","1","1","1","",""
"","feedback","","html-keyboard-response","11","84778","0.0-1.0-6.0-0.0","0","0","45448","","null","","","null","0","","","","","","","","","","","","","","","",""
"","ITI","","html-keyboard-response","12","85783","0.0-1.0-9.0","0","0","45448","","null","","","null","0","","","","","","","","","","","","","","","NaN",""
"","S1","","html-keyboard-response","13","86044","0.0-1.0-11.0","0","0","45448","","null","","","null","1","","","","","","","","","","","","","","","",""
"","ISI","","html-keyboard-response","14","86203","0.0-1.0-12.0","0","0","45448","","null","","","null","1","NaN","","","","","","","","","","","","","","",""
"","S2","","html-keyboard-response","15","86469","0.0-1.0-13.0","0","0","45448","","null","","","null","1","","NaN","","","","","","","","","","","","","",""
"","response","","html-keyboard-response","16","86748","0.0-1.0-14.0-0.0","0","0","45448","","277","","","68","1","","","1","1","training","adjacent","DE","4","5","L.jpg","P.jpg","1","1","1","",""
"","feedback","","html-keyboard-response","17","87752","0.0-1.0-15.0-0.0","0","0","45448","","null","","","null","1","","","","","","","","","","","","","","","",""
"","ITI","","html-keyboard-response","18","88758","0.0-1.0-18.0","0","0","45448","","null","","","null","1","","","","","","","","","","","","","","","NaN",""
"","S1","","html-keyboard-response","19","89011","0.0-1.0-20.0","0","0","45448","","null","","","null","2","","","","","","","","","","","","","","","",""
"","ISI","","html-keyboard-response","20","89173","0.0-1.0-21.0","0","0","45448","","null","","","null","2","NaN","","","","","","","","","","","","","","",""
"","S2","","html-keyboard-response","21","89429","0.0-1.0-22.0","0","0","45448","","null","","","null","2","","NaN","","","","","","","","","","","","","",""
"","response","","html-keyboard-response","22","89894","0.0-1.0-23.0-0.0","0","0","45448","","463","","","68","2","","","1","2","training","adjacent","DC","4","3","L.jpg","N.jpg","1","0","0","",""
"","feedback","","html-keyboard-response","23","90899","0.0-1.0-24.0-0.0","0","0","45448","","null","","","null","2","","","","","","","","","","","","","","","",""
"","time_out","","html-keyboard-response","24","92906","0.0-1.0-26.0-0.0","0","0","45448","","null","","","null","2","","","","","","","","","","","","","","","",""
"","ITI","","html-keyboard-response","25","93912","0.0-1.0-27.0","0","0","45448","","null","","","null","2","","","","","","","","","","","","","","","NaN",""
"","S1","","html-keyboard-response","26","94167","0.0-1.0-29.0","0","0","45448","","null","","","null","3","","","","","","","","","","","","","","","",""
"","ISI","","html-keyboard-response","27","94325","0.0-1.0-30.0","0","0","45448","","null","","","null","3","NaN","","","","","","","","","","","","","","",""
"","S2","","html-keyboard-response","28","94582","0.0-1.0-31.0","0","0","45448","","null","","","null","3","","NaN","","","","","","","","","","","","","",""
"","response","","html-keyboard-response","29","94955","0.0-1.0-32.0-0.0","0","0","45448","","370","","","75","3","","","1","3","training","adjacent","FG","6","7","O.jpg","R.jpg","0","1","0","",""
"","feedback","","html-keyboard-response","30","95963","0.0-1.0-33.0-0.0","0","0","45448","","null","","","null","3","","","","","","","","","","","","","","","",""
"","time_out","","html-keyboard-response","31","97969","0.0-1.0-35.0-0.0","0","0","45448","","null","","","null","3","","","","","","","","","","","","","","","",""
"","ITI","","html-keyboard-response","32","98973","0.0-1.0-36.0","0","0","45448","","null","","","null","3","","","","","","","","","","","","","","","NaN",""
"","S1","","html-keyboard-response","33","99230","0.0-1.0-38.0","0","0","45448","","null","","","null","4","","","","","","","","","","","","","","","",""
"","ISI","","html-keyboard-response","34","99383","0.0-1.0-39.0","0","0","45448","","null","","","null","4","NaN","","","","","","","","","","","","","","",""
"","S2","","html-keyboard-response","35","99640","0.0-1.0-40.0","0","0","45448","","null","","","null","4","","NaN","","","","","","","","","","","","","",""
"","response","","html-keyboard-response","36","100159","0.0-1.0-41.0-0.0","0","0","45448","","517","","","75","4","","","1","4","training","adjacent","BC","2","3","M.jpg","N.jpg","0","1","0","",""
"","feedback","","html-keyboard-response","37","101173","0.0-1.0-42.0-0.0","0","0","45448","","null","","","null","4","","","","","","","","","","","","","","","",""
"","time_out","","html-keyboard-response","38","103181","0.0-1.0-44.0-0.0","0","0","45448","","null","","","null","4","","","","","","","","","","","","","","","",""
"","ITI","","html-keyboard-response","39","104184","0.0-1.0-45.0","0","0","45448","","null","","","null","4","","","","","","","","","","","","","","","NaN",""
"","S1","","html-keyboard-response","40","104441","0.0-1.0-47.0","0","0","45448","","null","","","null","5","","","","","","","","","","","","","","","",""
"","ISI","","html-keyboard-response","41","104595","0.0-1.0-48.0","0","0","45448","","null","","","null","5","NaN","","","","","","","","","","","","","","",""
"","S2","","html-keyboard-response","42","104855","0.0-1.0-49.0","0","0","45448","","null","","","null","5","","NaN","","","","","","","","","","","","","",""
"","response","","html-keyboard-response","43","105334","0.0-1.0-50.0-0.0","0","0","45448","","476","","","68","5","","","1","5","training","adjacent","CB","3","2","N.jpg","M.jpg","1","0","0","",""
"","feedback","","html-keyboard-response","44","106339","0.0-1.0-51.0-0.0","0","0","45448","","null","","","null","5","","","","","","","","","","","","","","","",""
"","time_out","","html-keyboard-response","45","108344","0.0-1.0-53.0-0.0","0","0","45448","","null","","","null","5","","","","","","","","","","","","","","","",""
"","ITI","","html-keyboard-response","46","109348","0.0-1.0-54.0","0","0","45448","","null","","","null","5","","","","","","","","","","","","","","","NaN",""
"","S1","","html-keyboard-response","47","109606","0.0-1.0-56.0","0","0","45448","","null","","","null","6","","","","","","","","","","","","","","","",""
"","ISI","","html-keyboard-response","48","109763","0.0-1.0-57.0","0","0","45448","","null","","","null","6","NaN","","","","","","","","","","","","","","",""
"","S2","","html-keyboard-response","49","110023","0.0-1.0-58.0","0","0","45448","","null","","","null","6","","NaN","","","","","","","","","","","","","",""
"","response","","html-keyboard-response","50","110980","0.0-1.0-59.0-0.0","0","0","45448","","955","","","75","6","","","1","6","training","adjacent","BA","2","1","M.jpg","Q.jpg","0","0","1","",""
"","feedback","","html-keyboard-response","51","111989","0.0-1.0-60.0-0.0","0","0","45448","","null","","","null","6","","","","","","","","","","","","","","","",""
"","ITI","","html-keyboard-response","52","112997","0.0-1.0-63.0","0","0","45448","","null","","","null","6","","","","","","","","","","","","","","","NaN",""
"","S1","","html-keyboard-response","53","113252","0.0-1.0-65.0","0","0","45448","","null","","","null","7","","","","","","","","","","","","","","","",""
"","ISI","","html-keyboard-response","54","113410","0.0-1.0-66.0","0","0","45448","","null","","","null","7","NaN","","","","","","","","","","","","","","",""
"","S2","","html-keyboard-response","55","113678","0.0-1.0-67.0","0","0","45448","","null","","","null","7","","NaN","","","","","","","","","","","","","",""
"","response","","html-keyboard-response","56","114850","0.0-1.0-68.0-0.0","0","0","45448","","1170","","","68","7","","","1","7","training","adjacent","AB","1","2","Q.jpg","M.jpg","1","1","1","",""
"","feedback","","html-keyboard-response","57","115859","0.0-1.0-69.0-0.0","0","0","45448","","null","","","null","7","","","","","","","","","","","","","","","",""
"","ITI","","html-keyboard-response","58","116862","0.0-1.0-72.0","0","0","45448","","null","","","null","7","","","","","","","","","","","","","","","NaN",""
"","S1","","html-keyboard-response","59","117118","0.0-1.0-74.0","0","0","45448","","null","","","null","8","","","","","","","","","","","","","","","",""
"","ISI","","html-keyboard-response","60","117286","0.0-1.0-75.0","0","0","45448","","null","","","null","8","NaN","","","","","","","","","","","","","","",""
"","S2","","html-keyboard-response","61","117541","0.0-1.0-76.0","0","0","45448","","null","","","null","8","","NaN","","","","","","","","","","","","","",""
"","response","","html-keyboard-response","62","117982","0.0-1.0-77.0-0.0","0","0","45448","","440","","","75","8","","","1","8","training","adjacent","GF","7","6","R.jpg","O.jpg","0","0","1","",""
"","feedback","","html-keyboard-response","63","118985","0.0-1.0-78.0-0.0","0","0","45448","","null","","","null","8","","","","","","","","","","","","","","","",""
"","ITI","","html-keyboard-response","64","119992","0.0-1.0-81.0","0","0","45448","","null","","","null","8","","","","","","","","","","","","","","","NaN",""
"","S1","","html-keyboard-response","65","120250","0.0-1.0-83.0","0","0","45448","","null","","","null","9","","","","","","","","","","","","","","","",""
"","ISI","","html-keyboard-response","66","120412","0.0-1.0-84.0","0","0","45448","","null","","","null","9","NaN","","","","","","","","","","","","","","",""
"","S2","","html-keyboard-response","67","120669","0.0-1.0-85.0","0","0","45448","","null","","","null","9","","NaN","","","","","","","","","","","","","",""
"","response","","html-keyboard-response","68","121643","0.0-1.0-86.0-0.0","0","0","45448","","972","","","68","9","","","1","9","training","adjacent","FE","6","5","O.jpg","P.jpg","1","0","0","",""
"","feedback","","html-keyboard-response","69","122646","0.0-1.0-87.0-0.0","0","0","45448","","null","","","null","9","","","","","","","","","","","","","","","",""
"","time_out","","html-keyboard-response","70","124653","0.0-1.0-89.0-0.0","0","0","45448","","null","","","null","9","","","","","","","","","","","","","","","",""
"","ITI","","html-keyboard-response","71","125658","0.0-1.0-90.0","0","0","45448","","null","","","null","9","","","","","","","","","","","","","","","NaN",""
"","S1","","html-keyboard-response","72","125916","0.0-1.0-92.0","0","0","45448","","null","","","null","10","","","","","","","","","","","","","","","",""
"","ISI","","html-keyboard-response","73","126074","0.0-1.0-93.0","0","0","45448","","null","","","null","10","NaN","","","","","","","","","","","","","","",""
"","S2","","html-keyboard-response","74","126331","0.0-1.0-94.0","0","0","45448","","null","","","null","10","","NaN","","","","","","","","","","","","","",""
"","response","","html-keyboard-response","75","126801","0.0-1.0-95.0-0.0","0","0","45448","","466","","","68","10","","","1","10","training","adjacent","FE","6","5","O.jpg","P.jpg","1","0","0","",""
"","feedback","","html-keyboard-response","76","127809","0.0-1.0-96.0-0.0","0","0","45448","","null","","","null","10","","","","","","","","","","","","","","","",""
"","time_out","","html-keyboard-response","77","129817","0.0-1.0-98.0-0.0","0","0","45448","","null","","","null","10","","","","","","","","","","","","","","","",""
"","ITI","","html-keyboard-response","78","130819","0.0-1.0-99.0","0","0","45448","","null","","","null","10","","","","","","","","","","","","","","","NaN",""
"","S1","","html-keyboard-response","79","131076","0.0-1.0-101.0","0","0","45448","","null","","","null","11","","","","","","","","","","","","","","","",""
"","ISI","","html-keyboard-response","80","131237","0.0-1.0-102.0","0","0","45448","","null","","","null","11","NaN","","","","","","","","","","","","","","",""
"","S2","","html-keyboard-response","81","131497","0.0-1.0-103.0","0","0","45448","","null","","","null","11","","NaN","","","","","","","","","","","","","",""
"","response","","html-keyboard-response","82","131938","0.0-1.0-104.0-0.0","0","0","45448","","439","","","75","11","","","1","11","training","adjacent","DE","4","5","L.jpg","P.jpg","0","1","0","",""
"","feedback","","html-keyboard-response","83","132947","0.0-1.0-105.0-0.0","0","0","45448","","null","","","null","11","","","","","","","","","","","","","","","",""
"","time_out","","html-keyboard-response","84","134957","0.0-1.0-107.0-0.0","0","0","45448","","null","","","null","11","","","","","","","","","","","","","","","",""
"","ITI","","html-keyboard-response","85","135968","0.0-1.0-108.0","0","0","45448","","null","","","null","11","","","","","","","","","","","","","","","NaN",""
"","S1","","html-keyboard-response","86","136228","0.0-1.0-110.0","0","0","45448","","null","","","null","12","","","","","","","","","","","","","","","",""
"","ISI","","html-keyboard-response","87","136384","0.0-1.0-111.0","0","0","45448","","null","","","null","12","NaN","","","","","","","","","","","","","","",""
"","S2","","html-keyboard-response","88","136638","0.0-1.0-112.0","0","0","45448","","null","","","null","12","","NaN","","","","","","","","","","","","","",""
"","response","","html-keyboard-response","89","137499","0.0-1.0-113.0-0.0","0","0","45448","","860","","","75","12","","","1","12","training","adjacent","DC","4","3","L.jpg","N.jpg","0","0","1","",""
"","feedback","","html-keyboard-response","90","138507","0.0-1.0-114.0-0.0","0","0","45448","","null","","","null","12","","","","","","","","","","","","","","","",""
"","ITI","","html-keyboard-response","91","139513","0.0-1.0-117.0","0","0","45448","","null","","","null","12","","","","","","","","","","","","","","","NaN",""
"","S1","","html-keyboard-response","92","139771","0.0-1.0-119.0","0","0","45448","","null","","","null","13","","","","","","","","","","","","","","","",""
"","ISI","","html-keyboard-response","93","139924","0.0-1.0-120.0","0","0","45448","","null","","","null","13","NaN","","","","","","","","","","","","","","",""
"","S2","","html-keyboard-response","94","140179","0.0-1.0-121.0","0","0","45448","","null","","","null","13","","NaN","","","","","","","","","","","","","",""
"","response","","html-keyboard-response","95","140922","0.0-1.0-122.0-0.0","0","0","45448","","741","","","68","13","","","1","13","training","adjacent","BA","2","1","M.jpg","Q.jpg","1","0","0","",""
"","feedback","","html-keyboard-response","96","141926","0.0-1.0-123.0-0.0","0","0","45448","","null","","","null","13","","","","","","","","","","","","","","","",""
"","time_out","","html-keyboard-response","97","143930","0.0-1.0-125.0-0.0","0","0","45448","","null","","","null","13","","","","","","","","","","","","","","","",""
"","ITI","","html-keyboard-response","98","144933","0.0-1.0-126.0","0","0","45448","","null","","","null","13","","","","","","","","","","","","","","","NaN",""
"","S1","","html-keyboard-response","99","145188","0.0-1.0-128.0","0","0","45448","","null","","","null","14","","","","","","","","","","","","","","","",""
"","ISI","","html-keyboard-response","100","145346","0.0-1.0-129.0","0","0","45448","","null","","","null","14","NaN","","","","","","","","","","","","","","",""
"","S2","","html-keyboard-response","101","145600","0.0-1.0-130.0","0","0","45448","","null","","","null","14","","NaN","","","","","","","","","","","","","",""
"","response","","html-keyboard-response","102","146285","0.0-1.0-131.0-0.0","0","0","45448","","683","","","68","14","","","1","14","training","adjacent","FG","6","7","O.jpg","R.jpg","1","1","1","",""
"","feedback","","html-keyboard-response","103","147296","0.0-1.0-132.0-0.0","0","0","45448","","null","","","null","14","","","","","","","","","","","","","","","",""
"","ITI","","html-keyboard-response","104","148302","0.0-1.0-135.0","0","0","45448","","null","","","null","14","","","","","","","","","","","","","","","NaN",""
"","S1","","html-keyboard-response","105","148561","0.0-1.0-137.0","0","0","45448","","null","","","null","15","","","","","","","","","","","","","","","",""
"","ISI","","html-keyboard-response","106","148721","0.0-1.0-138.0","0","0","45448","","null","","","null","15","NaN","","","","","","","","","","","","","","",""
"","S2","","html-keyboard-response","107","148979","0.0-1.0-139.0","0","0","45448","","null","","","null","15","","NaN","","","","","","","","","","","","","",""
"","response","","html-keyboard-response","108","150737","0.0-1.0-140.0-0.0","0","0","45448","","null","","","null","15","","","1","15","training","adjacent","CD","3","4","N.jpg","L.jpg","NaN","1","0","",""
"","too_slow_prompt","","html-keyboard-response","109","151748","0.0-1.0-142.0-0.0","1","0","45448","","null","","","null","","","","","","","","","","","","","","","","",""
"","time_out","","html-keyboard-response","110","153758","0.0-1.0-143.0-0.0","0","0","45448","","null","","","null","15","","","","","","","","","","","","","","","",""
"","ITI","","html-keyboard-response","111","154765","0.0-1.0-144.0","0","0","45448","","null","","","null","15","","","","","","","","","","","","","","","NaN",""
"","S1","","html-keyboard-response","112","155024","0.0-1.0-146.0","0","0","45448","","null","","","null","16","","","","","","","","","","","","","","","",""
"","ISI","","html-keyboard-response","113","155180","0.0-1.0-147.0","0","0","45448","","null","","","null","16","NaN","","","","","","","","","","","","","","",""
"","S2","","html-keyboard-response","114","155441","0.0-1.0-148.0","0","0","45448","","null","","","null","16","","NaN","","","","","","","","","","","","","",""
"","response","","html-keyboard-response","115","155975","0.0-1.0-149.0-0.0","0","0","45448","","532","","","75","16","","","1","16","training","adjacent","BA","2","1","M.jpg","Q.jpg","0","0","1","",""
"","feedback","","html-keyboard-response","116","156979","0.0-1.0-150.0-0.0","0","0","45448","","null","","","null","16","","","","","","","","","","","","","","","",""
"","ITI","","html-keyboard-response","117","157985","0.0-1.0-153.0","0","0","45448","","null","","","null","16","","","","","","","","","","","","","","","NaN",""
"","S1","","html-keyboard-response","118","158241","0.0-1.0-155.0","0","0","45448","","null","","","null","17","","","","","","","","","","","","","","","",""
"","ISI","","html-keyboard-response","119","158400","0.0-1.0-156.0","0","0","45448","","null","","","null","17","NaN","","","","","","","","","","","","","","",""
"","S2","","html-keyboard-response","120","158657","0.0-1.0-157.0","0","0","45448","","null","","","null","17","","NaN","","","","","","","","","","","","","",""
"","response","","html-keyboard-response","121","158894","0.0-1.0-158.0-0.0","0","0","45448","","236","","","68","17","","","1","17","training","adjacent","FG","6","7","O.jpg","R.jpg","1","1","1","",""
"","feedback","","html-keyboard-response","122","159903","0.0-1.0-159.0-0.0","0","0","45448","","null","","","null","17","","","","","","","","","","","","","","","",""
"","ITI","","html-keyboard-response","123","160911","0.0-1.0-162.0","0","0","45448","","null","","","null","17","","","","","","","","","","","","","","","NaN",""
"","S1","","html-keyboard-response","124","161164","0.0-1.0-164.0","0","0","45448","","null","","","null","18","","","","","","","","","","","","","","","",""
"","ISI","","html-keyboard-response","125","161321","0.0-1.0-165.0","0","0","45448","","null","","","null","18","NaN","","","","","","","","","","","","","","",""
"","S2","","html-keyboard-response","126","161577","0.0-1.0-166.0","0","0","45448","","null","","","null","18","","NaN","","","","","","","","","","","","","",""
"","response","","html-keyboard-response","127","162012","0.0-1.0-167.0-0.0","0","0","45448","","434","","","75","18","","","1","18","training","adjacent","CB","3","2","N.jpg","M.jpg","0","0","1","",""
"","feedback","","html-keyboard-response","128","163019","0.0-1.0-168.0-0.0","0","0","45448","","null","","","null","18","","","","","","","","","","","","","","","",""
"","ITI","","html-keyboard-response","129","164024","0.0-1.0-171.0","0","0","45448","","null","","","null","18","","","","","","","","","","","","","","","NaN",""
"","S1","","html-keyboard-response","130","164282","0.0-1.0-173.0","0","0","45448","","null","","","null","19","","","","","","","","","","","","","","","",""
"","ISI","","html-keyboard-response","131","164439","0.0-1.0-174.0","0","0","45448","","null","","","null","19","NaN","","","","","","","","","","","","","","",""
"","S2","","html-keyboard-response","132","164699","0.0-1.0-175.0","0","0","45448","","null","","","null","19","","NaN","","","","","","","","","","","","","",""
"","response","","html-keyboard-response","133","164948","0.0-1.0-176.0-0.0","0","0","45448","","248","","","75","19","","","1","19","training","adjacent","BC","2","3","M.jpg","N.jpg","0","1","0","",""
"","feedback","","html-keyboard-response","134","165960","0.0-1.0-177.0-0.0","0","0","45448","","null","","","null","19","","","","","","","","","","","","","","","",""
"","time_out","","html-keyboard-response","135","167967","0.0-1.0-179.0-0.0","0","0","45448","","null","","","null","19","","","","","","","","","","","","","","","",""
"","ITI","","html-keyboard-response","136","168971","0.0-1.0-180.0","0","0","45448","","null","","","null","19","","","","","","","","","","","","","","","NaN",""
"","S1","","html-keyboard-response","137","169230","0.0-1.0-182.0","0","0","45448","","null","","","null","20","","","","","","","","","","","","","","","",""
"","ISI","","html-keyboard-response","138","169391","0.0-1.0-183.0","0","0","45448","","null","","","null","20","NaN","","","","","","","","","","","","","","",""
"","S2","","html-keyboard-response","139","169651","0.0-1.0-184.0","0","0","45448","","null","","","null","20","","NaN","","","","","","","","","","","","","",""
"","response","","html-keyboard-response","140","169950","0.0-1.0-185.0-0.0","0","0","45448","","298","","","75","20","","","1","20","training","adjacent","GF","7","6","R.jpg","O.jpg","0","0","1","",""
"","feedback","","html-keyboard-response","141","170956","0.0-1.0-186.0-0.0","0","0","45448","","null","","","null","20","","","","","","","","","","","","","","","",""
"","ITI","","html-keyboard-response","142","171961","0.0-1.0-189.0","0","0","45448","","null","","","null","20","","","","","","","","","","","","","","","NaN",""
"","S1","","html-keyboard-response","143","172216","0.0-1.0-191.0","0","0","45448","","null","","","null","21","","","","","","","","","","","","","","","",""
"","ISI","","html-keyboard-response","144","172376","0.0-1.0-192.0","0","0","45448","","null","","","null","21","NaN","","","","","","","","","","","","","","",""
"","S2","","html-keyboard-response","145","172631","0.0-1.0-193.0","0","0","45448","","null","","","null","21","","NaN","","","","","","","","","","","","","",""
"","response","","html-keyboard-response","146","172956","0.0-1.0-194.0-0.0","0","0","45448","","322","","","75","21","","","1","21","training","adjacent","ED","5","4","P.jpg","L.jpg","0","0","1","",""
"","feedback","","html-keyboard-response","147","173966","0.0-1.0-195.0-0.0","0","0","45448","","null","","","null","21","","","","","","","","","","","","","","","",""
"","ITI","","html-keyboard-response","148","174971","0.0-1.0-198.0","0","0","45448","","null","","","null","21","","","","","","","","","","","","","","","NaN",""
"","S1","","html-keyboard-response","149","175230","0.0-1.0-200.0","0","0","45448","","null","","","null","22","","","","","","","","","","","","","","","",""
"","ISI","","html-keyboard-response","150","175390","0.0-1.0-201.0","0","0","45448","","null","","","null","22","NaN","","","","","","","","","","","","","","",""
"","S2","","html-keyboard-response","151","175646","0.0-1.0-202.0","0","0","45448","","null","","","null","22","","NaN","","","","","","","","","","","","","",""
"","response","","html-keyboard-response","152","176546","0.0-1.0-203.0-0.0","0","0","45448","","897","","","75","22","","","1","22","training","adjacent","BC","2","3","M.jpg","N.jpg","0","1","0","",""
"","feedback","","html-keyboard-response","153","177564","0.0-1.0-204.0-0.0","0","0","45448","","null","","","null","22","","","","","","","","","","","","","","","",""
"","time_out","","html-keyboard-response","154","179578","0.0-1.0-206.0-0.0","0","0","45448","","null","","","null","22","","","","","","","","","","","","","","","",""
"","ITI","","html-keyboard-response","155","180587","0.0-1.0-207.0","0","0","45448","","null","","","null","22","","","","","","","","","","","","","","","NaN",""
"","S1","","html-keyboard-response","156","180841","0.0-1.0-209.0","0","0","45448","","null","","","null","23","","","","","","","","","","","","","","","",""
"","ISI","","html-keyboard-response","157","181000","0.0-1.0-210.0","0","0","45448","","null","","","null","23","NaN","","","","","","","","","","","","","","",""
"","S2","","html-keyboard-response","158","181256","0.0-1.0-211.0","0","0","45448","","null","","","null","23","","NaN","","","","","","","","","","","","","",""
"","response","","html-keyboard-response","159","181518","0.0-1.0-212.0-0.0","0","0","45448","","261","","","75","23","","","1","23","training","adjacent","ED","5","4","P.jpg","L.jpg","0","0","1","",""
"","feedback","","html-keyboard-response","160","182524","0.0-1.0-213.0-0.0","0","0","45448","","null","","","null","23","","","","","","","","","","","","","","","",""
"","ITI","","html-keyboard-response","161","183530","0.0-1.0-216.0","0","0","45448","","null","","","null","23","","","","","","","","","","","","","","","NaN",""
"","S1","","html-keyboard-response","162","183787","0.0-1.0-218.0","0","0","45448","","null","","","null","24","","","","","","","","","","","","","","","",""
"","ISI","","html-keyboard-response","163","183945","0.0-1.0-219.0","0","0","45448","","null","","","null","24","NaN","","","","","","","","","","","","","","",""
"","S2","","html-keyboard-response","164","184207","0.0-1.0-220.0","0","0","45448","","null","","","null","24","","NaN","","","","","","","","","","","","","",""
"","response","","html-keyboard-response","165","184465","0.0-1.0-221.0-0.0","0","0","45448","","255","","","68","24","","","1","24","training","adjacent","AB","1","2","Q.jpg","M.jpg","1","1","1","",""
"","feedback","","html-keyboard-response","166","185474","0.0-1.0-222.0-0.0","0","0","45448","","null","","","null","24","","","","","","","","","","","","","","","",""
"","ITI","","html-keyboard-response","167","186480","0.0-1.0-225.0","0","0","45448","","null","","","null","24","","","","","","","","","","","","","","","NaN",""
"","S1","","html-keyboard-response","168","186737","0.0-1.0-227.0","0","0","45448","","null","","","null","25","","","","","","","","","","","","","","","",""
"","ISI","","html-keyboard-response","169","186898","0.0-1.0-228.0","0","0","45448","","null","","","null","25","NaN","","","","","","","","","","","","","","",""
"","S2","","html-keyboard-response","170","187153","0.0-1.0-229.0","0","0","45448","","null","","","null","25","","NaN","","","","","","","","","","","","","",""
"","response","","html-keyboard-response","171","187604","0.0-1.0-230.0-0.0","0","0","45448","","448","","","68","25","","","1","25","training","adjacent","CB","3","2","N.jpg","M.jpg","1","0","0","",""
"","feedback","","html-keyboard-response","172","188610","0.0-1.0-231.0-0.0","0","0","45448","","null","","","null","25","","","","","","","","","","","","","","","",""
"","time_out","","html-keyboard-response","173","190617","0.0-1.0-233.0-0.0","0","0","45448","","null","","","null","25","","","","","","","","","","","","","","","",""
"","ITI","","html-keyboard-response","174","191625","0.0-1.0-234.0","0","0","45448","","null","","","null","25","","","","","","","","","","","","","","","NaN",""
"","S1","","html-keyboard-response","175","191885","0.0-1.0-236.0","0","0","45448","","null","","","null","26","","","","","","","","","","","","","","","",""
"","ISI","","html-keyboard-response","176","192043","0.0-1.0-237.0","0","0","45448","","null","","","null","26","NaN","","","","","","","","","","","","","","",""
"","S2","","html-keyboard-response","177","192301","0.0-1.0-238.0","0","0","45448","","null","","","null","26","","NaN","","","","","","","","","","","","","",""
"","response","","html-keyboard-response","178","192567","0.0-1.0-239.0-0.0","0","0","45448","","263","","","75","26","","","1","26","training","adjacent","EF","5","6","P.jpg","O.jpg","0","1","0","",""
"","feedback","","html-keyboard-response","179","193578","0.0-1.0-240.0-0.0","0","0","45448","","null","","","null","26","","","","","","","","","","","","","","","",""
"","time_out","","html-keyboard-response","180","195589","0.0-1.0-242.0-0.0","0","0","45448","","null","","","null","26","","","","","","","","","","","","","","","",""
"","ITI","","html-keyboard-response","181","196595","0.0-1.0-243.0","0","0","45448","","null","","","null","26","","","","","","","","","","","","","","","NaN",""
"","S1","","html-keyboard-response","182","196850","0.0-1.0-245.0","0","0","45448","","null","","","null","27","","","","","","","","","","","","","","","",""
"","ISI","","html-keyboard-response","183","197018","0.0-1.0-246.0","0","0","45448","","null","","","null","27","NaN","","","","","","","","","","","","","","",""
"","S2","","html-keyboard-response","184","197274","0.0-1.0-247.0","0","0","45448","","null","","","null","27","","NaN","","","","","","","","","","","","","",""
"","response","","html-keyboard-response","185","197455","0.0-1.0-248.0-0.0","0","0","45448","","180","","","68","27","","","1","27","training","adjacent","FG","6","7","O.jpg","R.jpg","1","1","1","",""
"","feedback","","html-keyboard-response","186","198467","0.0-1.0-249.0-0.0","0","0","45448","","null","","","null","27","","","","","","","","","","","","","","","",""
"","ITI","","html-keyboard-response","187","199474","0.0-1.0-252.0","0","0","45448","","null","","","null","27","","","","","","","","","","","","","","","NaN",""
"","S1","","html-keyboard-response","188","199729","0.0-1.0-254.0","0","0","45448","","null","","","null","28","","","","","","","","","","","","","","","",""
"","ISI","","html-keyboard-response","189","199892","0.0-1.0-255.0","0","0","45448","","null","","","null","28","NaN","","","","","","","","","","","","","","",""
"","S2","","html-keyboard-response","190","200148","0.0-1.0-256.0","0","0","45448","","null","","","null","28","","NaN","","","","","","","","","","","","","",""
"","response","","html-keyboard-response","191","200322","0.0-1.0-257.0-0.0","0","0","45448","","171","","","68","28","","","1","28","training","adjacent","DE","4","5","L.jpg","P.jpg","1","1","1","",""
"","feedback","","html-keyboard-response","192","201331","0.0-1.0-258.0-0.0","0","0","45448","","null","","","null","28","","","","","","","","","","","","","","","",""
"","ITI","","html-keyboard-response","193","202339","0.0-1.0-261.0","0","0","45448","","null","","","null","28","","","","","","","","","","","","","","","NaN",""
"","S1","","html-keyboard-response","194","202608","0.0-1.0-263.0","0","0","45448","","null","","","null","29","","","","","","","","","","","","","","","",""
"","ISI","","html-keyboard-response","195","202761","0.0-1.0-264.0","0","0","45448","","null","","","null","29","NaN","","","","","","","","","","","","","","",""
"","S2","","html-keyboard-response","196","203018","0.0-1.0-265.0","0","0","45448","","null","","","null","29","","NaN","","","","","","","","","","","","","",""
"","response","","html-keyboard-response","197","203223","0.0-1.0-266.0-0.0","0","0","45448","","202","","","75","29","","","1","29","training","adjacent","BA","2","1","M.jpg","Q.jpg","0","0","1","",""
"","feedback","","html-keyboard-response","198","204233","0.0-1.0-267.0-0.0","0","0","45448","","null","","","null","29","","","","","","","","","","","","","","","",""
"","ITI","","html-keyboard-response","199","205236","0.0-1.0-270.0","0","0","45448","","null","","","null","29","","","","","","","","","","","","","","","NaN",""
"","S1","","html-keyboard-response","200","205496","0.0-1.0-272.0","0","0","45448","","null","","","null","30","","","","","","","","","","","","","","","",""
"","ISI","","html-keyboard-response","201","205656","0.0-1.0-273.0","0","0","45448","","null","","","null","30","NaN","","","","","","","","","","","","","","",""
"","S2","","html-keyboard-response","202","205916","0.0-1.0-274.0","0","0","45448","","null","","","null","30","","NaN","","","","","","","","","","","","","",""
"","response","","html-keyboard-response","203","206262","0.0-1.0-275.0-0.0","0","0","45448","","344","","","75","30","","","1","30","training","adjacent","AB","1","2","Q.jpg","M.jpg","0","1","0","",""
"","feedback","","html-keyboard-response","204","207272","0.0-1.0-276.0-0.0","0","0","45448","","null","","","null","30","","","","","","","","","","","","","","","",""
"","time_out","","html-keyboard-response","205","209278","0.0-1.0-278.0-0.0","0","0","45448","","null","","","null","30","","","","","","","","","","","","","","","",""
"","ITI","","html-keyboard-response","206","210288","0.0-1.0-279.0","0","0","45448","","null","","","null","30","","","","","","","","","","","","","","","NaN",""
"","S1","","html-keyboard-response","207","210545","0.0-1.0-281.0","0","0","45448","","null","","","null","31","","","","","","","","","","","","","","","",""
"","ISI","","html-keyboard-response","208","210714","0.0-1.0-282.0","0","0","45448","","null","","","null","31","NaN","","","","","","","","","","","","","","",""
"","S2","","html-keyboard-response","209","210967","0.0-1.0-283.0","0","0","45448","","null","","","null","31","","NaN","","","","","","","","","","","","","",""
"","response","","html-keyboard-response","210","211190","0.0-1.0-284.0-0.0","0","0","45448","","220","","","68","31","","","1","31","training","adjacent","AB","1","2","Q.jpg","M.jpg","1","1","1","",""
"","feedback","","html-keyboard-response","211","212195","0.0-1.0-285.0-0.0","0","0","45448","","null","","","null","31","","","","","","","","","","","","","","","",""
"","ITI","","html-keyboard-response","212","213197","0.0-1.0-288.0","0","0","45448","","null","","","null","31","","","","","","","","","","","","","","","NaN",""
"","S1","","html-keyboard-response","213","213453","0.0-1.0-290.0","0","0","45448","","null","","","null","32","","","","","","","","","","","","","","","",""
"","ISI","","html-keyboard-response","214","213609","0.0-1.0-291.0","0","0","45448","","null","","","null","32","NaN","","","","","","","","","","","","","","",""
"","S2","","html-keyboard-response","215","213866","0.0-1.0-292.0","0","0","45448","","null","","","null","32","","NaN","","","","","","","","","","","","","",""
"","response","","html-keyboard-response","216","214290","0.0-1.0-293.0-0.0","0","0","45448","","422","","","68","32","","","1","32","training","adjacent","FE","6","5","O.jpg","P.jpg","1","0","0","",""
"","feedback","","html-keyboard-response","217","215294","0.0-1.0-294.0-0.0","0","0","45448","","null","","","null","32","","","","","","","","","","","","","","","",""
"","time_out","","html-keyboard-response","218","217297","0.0-1.0-296.0-0.0","0","0","45448","","null","","","null","32","","","","","","","","","","","","","","","",""
"","ITI","","html-keyboard-response","219","218310","0.0-1.0-297.0","0","0","45448","","null","","","null","32","","","","","","","","","","","","","","","NaN",""
"","S1","","html-keyboard-response","220","218565","0.0-1.0-299.0","0","0","45448","","null","","","null","33","","","","","","","","","","","","","","","",""
"","ISI","","html-keyboard-response","221","218725","0.0-1.0-300.0","0","0","45448","","null","","","null","33","NaN","","","","","","","","","","","","","","",""
"","S2","","html-keyboard-response","222","218986","0.0-1.0-301.0","0","0","45448","","null","","","null","33","","NaN","","","","","","","","","","","","","",""
"","response","","html-keyboard-response","223","219988","0.0-1.0-302.0-0.0","0","0","45448","","1000","","","68","33","","","1","33","training","adjacent","EF","5","6","P.jpg","O.jpg","1","1","1","",""
"","feedback","","html-keyboard-response","224","220996","0.0-1.0-303.0-0.0","0","0","45448","","null","","","null","33","","","","","","","","","","","","","","","",""
"","ITI","","html-keyboard-response","225","222004","0.0-1.0-306.0","0","0","45448","","null","","","null","33","","","","","","","","","","","","","","","NaN",""
"","S1","","html-keyboard-response","226","222264","0.0-1.0-308.0","0","0","45448","","null","","","null","34","","","","","","","","","","","","","","","",""
"","ISI","","html-keyboard-response","227","222426","0.0-1.0-309.0","0","0","45448","","null","","","null","34","NaN","","","","","","","","","","","","","","",""
"","S2","","html-keyboard-response","228","222684","0.0-1.0-310.0","0","0","45448","","null","","","null","34","","NaN","","","","","","","","","","","","","",""
"","response","","html-keyboard-response","229","223123","0.0-1.0-311.0-0.0","0","0","45448","","437","","","68","34","","","1","34","training","adjacent","EF","5","6","P.jpg","O.jpg","1","1","1","",""
"","feedback","","html-keyboard-response","230","224133","0.0-1.0-312.0-0.0","0","0","45448","","null","","","null","34","","","","","","","","","","","","","","","",""
"","ITI","","html-keyboard-response","231","225140","0.0-1.0-315.0","0","0","45448","","null","","","null","34","","","","","","","","","","","","","","","NaN",""
"","S1","","html-keyboard-response","232","225398","0.0-1.0-317.0","0","0","45448","","null","","","null","35","","","","","","","","","","","","","","","",""
"","ISI","","html-keyboard-response","233","225556","0.0-1.0-318.0","0","0","45448","","null","","","null","35","NaN","","","","","","","","","","","","","","",""
"","S2","","html-keyboard-response","234","225810","0.0-1.0-319.0","0","0","45448","","null","","","null","35","","NaN","","","","","","","","","","","","","",""
"","response","","html-keyboard-response","235","226507","0.0-1.0-320.0-0.0","0","0","45448","","696","","","75","35","","","1","35","training","adjacent","CD","3","4","N.jpg","L.jpg","0","1","0","",""
"","feedback","","html-keyboard-response","236","227512","0.0-1.0-321.0-0.0","0","0","45448","","null","","","null","35","","","","","","","","","","","","","","","",""
"","time_out","","html-keyboard-response","237","229519","0.0-1.0-323.0-0.0","0","0","45448","","null","","","null","35","","","","","","","","","","","","","","","",""
"","ITI","","html-keyboard-response","238","230525","0.0-1.0-324.0","0","0","45448","","null","","","null","35","","","","","","","","","","","","","","","NaN",""
"","S1","","html-keyboard-response","239","230784","0.0-1.0-326.0","0","0","45448","","null","","","null","36","","","","","","","","","","","","","","","",""
"","ISI","","html-keyboard-response","240","230943","0.0-1.0-327.0","0","0","45448","","null","","","null","36","NaN","","","","","","","","","","","","","","",""
"","S2","","html-keyboard-response","241","231209","0.0-1.0-328.0","0","0","45448","","null","","","null","36","","NaN","","","","","","","","","","","","","",""
"","response","","html-keyboard-response","242","232044","0.0-1.0-329.0-0.0","0","0","45448","","833","","","68","36","","","1","36","training","adjacent","CD","3","4","N.jpg","L.jpg","1","1","1","",""
"","feedback","","html-keyboard-response","243","233049","0.0-1.0-330.0-0.0","0","0","45448","","null","","","null","36","","","","","","","","","","","","","","","",""
"","ITI","","html-keyboard-response","244","234058","0.0-1.0-333.0","0","0","45448","","null","","","null","36","","","","","","","","","","","","","","","NaN",""
"","S1","","html-keyboard-response","245","234318","0.0-1.0-335.0","0","0","45448","","null","","","null","37","","","","","","","","","","","","","","","",""
"","ISI","","html-keyboard-response","246","234473","0.0-1.0-336.0","0","0","45448","","null","","","null","37","NaN","","","","","","","","","","","","","","",""
"","S2","","html-keyboard-response","247","234730","0.0-1.0-337.0","0","0","45448","","null","","","null","37","","NaN","","","","","","","","","","","","","",""
"","response","","html-keyboard-response","248","235720","0.0-1.0-338.0-0.0","0","0","45448","","987","","","75","37","","","1","37","training","adjacent","ED","5","4","P.jpg","L.jpg","0","0","1","",""
"","feedback","","html-keyboard-response","249","236727","0.0-1.0-339.0-0.0","0","0","45448","","null","","","null","37","","","","","","","","","","","","","","","",""
"","ITI","","html-keyboard-response","250","237731","0.0-1.0-342.0","0","0","45448","","null","","","null","37","","","","","","","","","","","","","","","NaN",""
"","S1","","html-keyboard-response","251","237987","0.0-1.0-344.0","0","0","45448","","null","","","null","38","","","","","","","","","","","","","","","",""
"","ISI","","html-keyboard-response","252","238146","0.0-1.0-345.0","0","0","45448","","null","","","null","38","NaN","","","","","","","","","","","","","","",""
"","S2","","html-keyboard-response","253","238409","0.0-1.0-346.0","0","0","45448","","null","","","null","38","","NaN","","","","","","","","","","","","","",""
"","response","","html-keyboard-response","254","238994","0.0-1.0-347.0-0.0","0","0","45448","","583","","","68","38","","","1","38","training","adjacent","EF","5","6","P.jpg","O.jpg","1","1","1","",""
"","feedback","","html-keyboard-response","255","240005","0.0-1.0-348.0-0.0","0","0","45448","","null","","","null","38","","","","","","","","","","","","","","","",""
"","ITI","","html-keyboard-response","256","241013","0.0-1.0-351.0","0","0","45448","","null","","","null","38","","","","","","","","","","","","","","","NaN",""
"","S1","","html-keyboard-response","257","241266","0.0-1.0-353.0","0","0","45448","","null","","","null","39","","","","","","","","","","","","","","","",""
"","ISI","","html-keyboard-response","258","241424","0.0-1.0-354.0","0","0","45448","","null","","","null","39","NaN","","","","","","","","","","","","","","",""
"","S2","","html-keyboard-response","259","241680","0.0-1.0-355.0","0","0","45448","","null","","","null","39","","NaN","","","","","","","","","","","","","",""
"","response","","html-keyboard-response","260","242705","0.0-1.0-356.0-0.0","0","0","45448","","1024","","","75","39","","","1","39","training","adjacent","DC","4","3","L.jpg","N.jpg","0","0","1","",""
"","feedback","","html-keyboard-response","261","243721","0.0-1.0-357.0-0.0","0","0","45448","","null","","","null","39","","","","","","","","","","","","","","","",""
"","ITI","","html-keyboard-response","262","244731","0.0-1.0-360.0","0","0","45448","","null","","","null","39","","","","","","","","","","","","","","","NaN",""
"","S1","","html-keyboard-response","263","244988","0.0-1.0-362.0","0","0","45448","","null","","","null","40","","","","","","","","","","","","","","","",""
"","ISI","","html-keyboard-response","264","245151","0.0-1.0-363.0","0","0","45448","","null","","","null","40","NaN","","","","","","","","","","","","","","",""
"","S2","","html-keyboard-response","265","245405","0.0-1.0-364.0","0","0","45448","","null","","","null","40","","NaN","","","","","","","","","","","","","",""
"","response","","html-keyboard-response","266","246778","0.0-1.0-365.0-0.0","0","0","45448","","1371","","","75","40","","","1","40","training","adjacent","ED","5","4","P.jpg","L.jpg","0","0","1","",""
"","feedback","","html-keyboard-response","267","247789","0.0-1.0-366.0-0.0","0","0","45448","","null","","","null","40","","","","","","","","","","","","","","","",""
"","ITI","","html-keyboard-response","268","248794","0.0-1.0-369.0","0","0","45448","","null","","","null","40","","","","","","","","","","","","","","","NaN",""
"","S1","","html-keyboard-response","269","249049","0.0-1.0-371.0","0","0","45448","","null","","","null","41","","","","","","","","","","","","","","","",""
"","ISI","","html-keyboard-response","270","249211","0.0-1.0-372.0","0","0","45448","","null","","","null","41","NaN","","","","","","","","","","","","","","",""
"","S2","","html-keyboard-response","271","249478","0.0-1.0-373.0","0","0","45448","","null","","","null","41","","NaN","","","","","","","","","","","","","",""
"","response","","html-keyboard-response","272","250013","0.0-1.0-374.0-0.0","0","0","45448","","533","","","75","41","","","1","41","training","adjacent","DC","4","3","L.jpg","N.jpg","0","0","1","",""
"","feedback","","html-keyboard-response","273","251021","0.0-1.0-375.0-0.0","0","0","45448","","null","","","null","41","","","","","","","","","","","","","","","",""
"","ITI","","html-keyboard-response","274","252039","0.0-1.0-378.0","0","0","45448","","null","","","null","41","","","","","","","","","","","","","","","NaN",""
"","S1","","html-keyboard-response","275","252295","0.0-1.0-380.0","0","0","45448","","null","","","null","42","","","","","","","","","","","","","","","",""
"","ISI","","html-keyboard-response","276","252463","0.0-1.0-381.0","0","0","45448","","null","","","null","42","NaN","","","","","","","","","","","","","","",""
"","S2","","html-keyboard-response","277","252719","0.0-1.0-382.0","0","0","45448","","null","","","null","42","","NaN","","","","","","","","","","","","","",""
"","response","","html-keyboard-response","278","253010","0.0-1.0-383.0-0.0","0","0","45448","","289","","","68","42","","","1","42","training","adjacent","CD","3","4","N.jpg","L.jpg","1","1","1","",""
"","feedback","","html-keyboard-response","279","254020","0.0-1.0-384.0-0.0","0","0","45448","","null","","","null","42","","","","","","","","","","","","","","","",""
"","ITI","","html-keyboard-response","280","255025","0.0-1.0-387.0","0","0","45448","","null","","","null","42","","","","","","","","","","","","","","","NaN",""
"","S1","","html-keyboard-response","281","255278","0.0-1.0-389.0","0","0","45448","","null","","","null","43","","","","","","","","","","","","","","","",""
"","ISI","","html-keyboard-response","282","255439","0.0-1.0-390.0","0","0","45448","","null","","","null","43","NaN","","","","","","","","","","","","","","",""
"","S2","","html-keyboard-response","283","255694","0.0-1.0-391.0","0","0","45448","","null","","","null","43","","NaN","","","","","","","","","","","","","",""
"","response","","html-keyboard-response","284","256763","0.0-1.0-392.0-0.0","0","0","45448","","1066","","","68","43","","","1","43","training","adjacent","BC","2","3","M.jpg","N.jpg","1","1","1","",""
"","feedback","","html-keyboard-response","285","257771","0.0-1.0-393.0-0.0","0","0","45448","","null","","","null","43","","","","","","","","","","","","","","","",""
"","ITI","","html-keyboard-response","286","258779","0.0-1.0-396.0","0","0","45448","","null","","","null","43","","","","","","","","","","","","","","","NaN",""
"","S1","","html-keyboard-response","287","259033","0.0-1.0-398.0","0","0","45448","","null","","","null","44","","","","","","","","","","","","","","","",""
"","ISI","","html-keyboard-response","288","259200","0.0-1.0-399.0","0","0","45448","","null","","","null","44","NaN","","","","","","","","","","","","","","",""
"","S2","","html-keyboard-response","289","259460","0.0-1.0-400.0","0","0","45448","","null","","","null","44","","NaN","","","","","","","","","","","","","",""
"","response","","html-keyboard-response","290","259875","0.0-1.0-401.0-0.0","0","0","45448","","413","","","75","44","","","1","44","training","adjacent","GF","7","6","R.jpg","O.jpg","0","0","1","",""
"","feedback","","html-keyboard-response","291","260889","0.0-1.0-402.0-0.0","0","0","45448","","null","","","null","44","","","","","","","","","","","","","","","",""
"","ITI","","html-keyboard-response","292","261893","0.0-1.0-405.0","0","0","45448","","null","","","null","44","","","","","","","","","","","","","","","NaN",""
"","S1","","html-keyboard-response","293","262149","0.0-1.0-407.0","0","0","45448","","null","","","null","45","","","","","","","","","","","","","","","",""
"","ISI","","html-keyboard-response","294","262302","0.0-1.0-408.0","0","0","45448","","null","","","null","45","NaN","","","","","","","","","","","","","","",""
"","S2","","html-keyboard-response","295","262561","0.0-1.0-409.0","0","0","45448","","null","","","null","45","","NaN","","","","","","","","","","","","","",""
"","response","","html-keyboard-response","296","263314","0.0-1.0-410.0-0.0","0","0","45448","","750","","","68","45","","","1","45","training","adjacent","CB","3","2","N.jpg","M.jpg","1","0","0","",""
"","feedback","","html-keyboard-response","297","264328","0.0-1.0-411.0-0.0","0","0","45448","","null","","","null","45","","","","","","","","","","","","","","","",""
"","time_out","","html-keyboard-response","298","266332","0.0-1.0-413.0-0.0","0","0","45448","","null","","","null","45","","","","","","","","","","","","","","","",""
"","ITI","","html-keyboard-response","299","267342","0.0-1.0-414.0","0","0","45448","","null","","","null","45","","","","","","","","","","","","","","","NaN",""
"","S1","","html-keyboard-response","300","267603","0.0-1.0-416.0","0","0","45448","","null","","","null","46","","","","","","","","","","","","","","","",""
"","ISI","","html-keyboard-response","301","267756","0.0-1.0-417.0","0","0","45448","","null","","","null","46","NaN","","","","","","","","","","","","","","",""
"","S2","","html-keyboard-response","302","268013","0.0-1.0-418.0","0","0","45448","","null","","","null","46","","NaN","","","","","","","","","","","","","",""
"","response","","html-keyboard-response","303","268739","0.0-1.0-419.0-0.0","0","0","45448","","723","","","75","46","","","1","46","training","adjacent","GF","7","6","R.jpg","O.jpg","0","0","1","",""
"","feedback","","html-keyboard-response","304","269744","0.0-1.0-420.0-0.0","0","0","45448","","null","","","null","46","","","","","","","","","","","","","","","",""
"","ITI","","html-keyboard-response","305","270755","0.0-1.0-423.0","0","0","45448","","null","","","null","46","","","","","","","","","","","","","","","NaN",""
"","S1","","html-keyboard-response","306","271014","0.0-1.0-425.0","0","0","45448","","null","","","null","47","","","","","","","","","","","","","","","",""
"","ISI","","html-keyboard-response","307","271173","0.0-1.0-426.0","0","0","45448","","null","","","null","47","NaN","","","","","","","","","","","","","","",""
"","S2","","html-keyboard-response","308","271431","0.0-1.0-427.0","0","0","45448","","null","","","null","47","","NaN","","","","","","","","","","","","","",""
"","response","","html-keyboard-response","309","271990","0.0-1.0-428.0-0.0","0","0","45448","","556","","","75","47","","","1","47","training","adjacent","FE","6","5","O.jpg","P.jpg","0","0","1","",""
"","feedback","","html-keyboard-response","310","272992","0.0-1.0-429.0-0.0","0","0","45448","","null","","","null","47","","","","","","","","","","","","","","","",""
"","ITI","","html-keyboard-response","311","273996","0.0-1.0-432.0","0","0","45448","","null","","","null","47","","","","","","","","","","","","","","","NaN",""
"","block_over","","html-keyboard-response","312","280452","0.0-1.0-433.0-0.0","0","0","45448","","6453","","","32","47","","","","","","","","","","","","","","","",""
"","S1","","html-keyboard-response","313","280706","0.0-1.0-434.0","0","0","45448","","null","","","null","48","","","","","","","","","","","","","","","",""
"","ISI","","html-keyboard-response","314","280865","0.0-1.0-435.0","0","0","45448","","null","","","null","48","NaN","","","","","","","","","","","","","","",""
"","S2","","html-keyboard-response","315","281125","0.0-1.0-436.0","0","0","45448","","null","","","null","48","","NaN","","","","","","","","","","","","","",""
"","response","","html-keyboard-response","316","281512","0.0-1.0-437.0-0.0","0","0","45448","","384","","","75","48","","","2","48","training","adjacent","FE","6","5","O.jpg","P.jpg","0","0","1","",""
"","feedback","","html-keyboard-response","317","282521","0.0-1.0-438.0-0.0","0","0","45448","","null","","","null","48","","","","","","","","","","","","","","","",""
"","ITI","","html-keyboard-response","318","283527","0.0-1.0-441.0","0","0","45448","","null","","","null","48","","","","","","","","","","","","","","","NaN",""
"","S1","","html-keyboard-response","319","283786","0.0-1.0-443.0","0","0","45448","","null","","","null","49","","","","","","","","","","","","","","","",""
"","ISI","","html-keyboard-response","320","283947","0.0-1.0-444.0","0","0","45448","","null","","","null","49","NaN","","","","","","","","","","","","","","",""
"","S2","","html-keyboard-response","321","284202","0.0-1.0-445.0","0","0","45448","","null","","","null","49","","NaN","","","","","","","","","","","","","",""
"","response","","html-keyboard-response","322","284600","0.0-1.0-446.0-0.0","0","0","45448","","397","","","68","49","","","2","49","training","adjacent","FG","6","7","O.jpg","R.jpg","1","1","1","",""
"","feedback","","html-keyboard-response","323","285603","0.0-1.0-447.0-0.0","0","0","45448","","null","","","null","49","","","","","","","","","","","","","","","",""
"","ITI","","html-keyboard-response","324","286615","0.0-1.0-450.0","0","0","45448","","null","","","null","49","","","","","","","","","","","","","","","NaN",""
"","S1","","html-keyboard-response","325","286869","0.0-1.0-452.0","0","0","45448","","null","","","null","50","","","","","","","","","","","","","","","",""
"","ISI","","html-keyboard-response","326","287026","0.0-1.0-453.0","0","0","45448","","null","","","null","50","NaN","","","","","","","","","","","","","","",""
"","S2","","html-keyboard-response","327","287280","0.0-1.0-454.0","0","0","45448","","null","","","null","50","","NaN","","","","","","","","","","","","","",""
"","response","","html-keyboard-response","328","287640","0.0-1.0-455.0-0.0","0","0","45448","","358","","","68","50","","","2","50","training","adjacent","AB","1","2","Q.jpg","M.jpg","1","1","1","",""
"","feedback","","html-keyboard-response","329","288651","0.0-1.0-456.0-0.0","0","0","45448","","null","","","null","50","","","","","","","","","","","","","","","",""
"","ITI","","html-keyboard-response","330","289654","0.0-1.0-459.0","0","0","45448","","null","","","null","50","","","","","","","","","","","","","","","NaN",""
"","S1","","html-keyboard-response","331","289914","0.0-1.0-461.0","0","0","45448","","null","","","null","51","","","","","","","","","","","","","","","",""
"","ISI","","html-keyboard-response","332","290073","0.0-1.0-462.0","0","0","45448","","null","","","null","51","NaN","","","","","","","","","","","","","","",""
"","S2","","html-keyboard-response","333","290334","0.0-1.0-463.0","0","0","45448","","null","","","null","51","","NaN","","","","","","","","","","","","","",""
"","response","","html-keyboard-response","334","291231","0.0-1.0-464.0-0.0","0","0","45448","","895","","","68","51","","","2","51","training","adjacent","BC","2","3","M.jpg","N.jpg","1","1","1","",""
"","feedback","","html-keyboard-response","335","292236","0.0-1.0-465.0-0.0","0","0","45448","","null","","","null","51","","","","","","","","","","","","","","","",""
"","ITI","","html-keyboard-response","336","293242","0.0-1.0-468.0","0","0","45448","","null","","","null","51","","","","","","","","","","","","","","","NaN",""
"","S1","","html-keyboard-response","337","293494","0.0-1.0-470.0","0","0","45448","","null","","","null","52","","","","","","","","","","","","","","","",""
"","ISI","","html-keyboard-response","338","293655","0.0-1.0-471.0","0","0","45448","","null","","","null","52","NaN","","","","","","","","","","","","","","",""
"","S2","","html-keyboard-response","339","293909","0.0-1.0-472.0","0","0","45448","","null","","","null","52","","NaN","","","","","","","","","","","","","",""
"","response","","html-keyboard-response","340","294152","0.0-1.0-473.0-0.0","0","0","45448","","240","","","75","52","","","2","52","training","adjacent","GF","7","6","R.jpg","O.jpg","0","0","1","",""
"","feedback","","html-keyboard-response","341","295158","0.0-1.0-474.0-0.0","0","0","45448","","null","","","null","52","","","","","","","","","","","","","","","",""
"","ITI","","html-keyboard-response","342","296165","0.0-1.0-477.0","0","0","45448","","null","","","null","52","","","","","","","","","","","","","","","NaN",""
"","S1","","html-keyboard-response","343","296426","0.0-1.0-479.0","0","0","45448","","null","","","null","53","","","","","","","","","","","","","","","",""
"","ISI","","html-keyboard-response","344","296591","0.0-1.0-480.0","0","0","45448","","null","","","null","53","NaN","","","","","","","","","","","","","","",""
"","S2","","html-keyboard-response","345","296846","0.0-1.0-481.0","0","0","45448","","null","","","null","53","","NaN","","","","","","","","","","","","","",""
"","response","","html-keyboard-response","346","297190","0.0-1.0-482.0-0.0","0","0","45448","","342","","","68","53","","","2","53","training","adjacent","CB","3","2","N.jpg","M.jpg","1","0","0","",""
"","feedback","","html-keyboard-response","347","298202","0.0-1.0-483.0-0.0","0","0","45448","","null","","","null","53","","","","","","","","","","","","","","","",""
"","time_out","","html-keyboard-response","348","300213","0.0-1.0-485.0-0.0","0","0","45448","","null","","","null","53","","","","","","","","","","","","","","","",""
"","ITI","","html-keyboard-response","349","301219","0.0-1.0-486.0","0","0","45448","","null","","","null","53","","","","","","","","","","","","","","","NaN",""
"","S1","","html-keyboard-response","350","301479","0.0-1.0-488.0","0","0","45448","","null","","","null","54","","","","","","","","","","","","","","","",""
"","ISI","","html-keyboard-response","351","301635","0.0-1.0-489.0","0","0","45448","","null","","","null","54","NaN","","","","","","","","","","","","","","",""
"","S2","","html-keyboard-response","352","301896","0.0-1.0-490.0","0","0","45448","","null","","","null","54","","NaN","","","","","","","","","","","","","",""
"","response","","html-keyboard-response","353","302497","0.0-1.0-491.0-0.0","0","0","45448","","598","","","75","54","","","2","54","training","adjacent","DE","4","5","L.jpg","P.jpg","0","1","0","",""
"","feedback","","html-keyboard-response","354","303503","0.0-1.0-492.0-0.0","0","0","45448","","null","","","null","54","","","","","","","","","","","","","","","",""
"","time_out","","html-keyboard-response","355","305507","0.0-1.0-494.0-0.0","0","0","45448","","null","","","null","54","","","","","","","","","","","","","","","",""
"","ITI","","html-keyboard-response","356","306512","0.0-1.0-495.0","0","0","45448","","null","","","null","54","","","","","","","","","","","","","","","NaN",""
"","S1","","html-keyboard-response","357","306772","0.0-1.0-497.0","0","0","45448","","null","","","null","55","","","","","","","","","","","","","","","",""
"","ISI","","html-keyboard-response","358","306925","0.0-1.0-498.0","0","0","45448","","null","","","null","55","NaN","","","","","","","","","","","","","","",""
"","S2","","html-keyboard-response","359","307182","0.0-1.0-499.0","0","0","45448","","null","","","null","55","","NaN","","","","","","","","","","","","","",""
"","response","","html-keyboard-response","360","307770","0.0-1.0-500.0-0.0","0","0","45448","","586","","","75","55","","","2","55","training","adjacent","FE","6","5","O.jpg","P.jpg","0","0","1","",""
"","feedback","","html-keyboard-response","361","308774","0.0-1.0-501.0-0.0","0","0","45448","","null","","","null","55","","","","","","","","","","","","","","","",""
"","ITI","","html-keyboard-response","362","309778","0.0-1.0-504.0","0","0","45448","","null","","","null","55","","","","","","","","","","","","","","","NaN",""
"","S1","","html-keyboard-response","363","310031","0.0-1.0-506.0","0","0","45448","","null","","","null","56","","","","","","","","","","","","","","","",""
"","ISI","","html-keyboard-response","364","310190","0.0-1.0-507.0","0","0","45448","","null","","","null","56","NaN","","","","","","","","","","","","","","",""
"","S2","","html-keyboard-response","365","310446","0.0-1.0-508.0","0","0","45448","","null","","","null","56","","NaN","","","","","","","","","","","","","",""
"","response","","html-keyboard-response","366","311137","0.0-1.0-509.0-0.0","0","0","45448","","689","","","68","56","","","2","56","training","adjacent","CB","3","2","N.jpg","M.jpg","1","0","0","",""
"","feedback","","html-keyboard-response","367","312145","0.0-1.0-510.0-0.0","0","0","45448","","null","","","null","56","","","","","","","","","","","","","","","",""
"","time_out","","html-keyboard-response","368","314157","0.0-1.0-512.0-0.0","0","0","45448","","null","","","null","56","","","","","","","","","","","","","","","",""
"","ITI","","html-keyboard-response","369","315161","0.0-1.0-513.0","0","0","45448","","null","","","null","56","","","","","","","","","","","","","","","NaN",""
"","S1","","html-keyboard-response","370","315414","0.0-1.0-515.0","0","0","45448","","null","","","null","57","","","","","","","","","","","","","","","",""
"","ISI","","html-keyboard-response","371","315568","0.0-1.0-516.0","0","0","45448","","null","","","null","57","NaN","","","","","","","","","","","","","","",""
"","S2","","html-keyboard-response","372","315820","0.0-1.0-517.0","0","0","45448","","null","","","null","57","","NaN","","","","","","","","","","","","","",""
"","response","","html-keyboard-response","373","316159","0.0-1.0-518.0-0.0","0","0","45448","","336","","","68","57","","","2","57","training","adjacent","FG","6","7","O.jpg","R.jpg","1","1","1","",""
"","feedback","","html-keyboard-response","374","317171","0.0-1.0-519.0-0.0","0","0","45448","","null","","","null","57","","","","","","","","","","","","","","","",""
"","ITI","","html-keyboard-response","375","318174","0.0-1.0-522.0","0","0","45448","","null","","","null","57","","","","","","","","","","","","","","","NaN",""
"","S1","","html-keyboard-response","376","318434","0.0-1.0-524.0","0","0","45448","","null","","","null","58","","","","","","","","","","","","","","","",""
"","ISI","","html-keyboard-response","377","318593","0.0-1.0-525.0","0","0","45448","","null","","","null","58","NaN","","","","","","","","","","","","","","",""
"","S2","","html-keyboard-response","378","318853","0.0-1.0-526.0","0","0","45448","","null","","","null","58","","NaN","","","","","","","","","","","","","",""
"","response","","html-keyboard-response","379","319625","0.0-1.0-527.0-0.0","0","0","45448","","770","","","75","58","","","2","58","training","adjacent","BA","2","1","M.jpg","Q.jpg","0","0","1","",""
"","feedback","","html-keyboard-response","380","320631","0.0-1.0-528.0-0.0","0","0","45448","","null","","","null","58","","","","","","","","","","","","","","","",""
"","ITI","","html-keyboard-response","381","321633","0.0-1.0-531.0","0","0","45448","","null","","","null","58","","","","","","","","","","","","","","","NaN",""
"","S1","","html-keyboard-response","382","321891","0.0-1.0-533.0","0","0","45448","","null","","","null","59","","","","","","","","","","","","","","","",""
"","ISI","","html-keyboard-response","383","322048","0.0-1.0-534.0","0","0","45448","","null","","","null","59","NaN","","","","","","","","","","","","","","",""
"","S2","","html-keyboard-response","384","322301","0.0-1.0-535.0","0","0","45448","","null","","","null","59","","NaN","","","","","","","","","","","","","",""
"","response","","html-keyboard-response","385","322859","0.0-1.0-536.0-0.0","0","0","45448","","556","","","75","59","","","2","59","training","adjacent","DE","4","5","L.jpg","P.jpg","0","1","0","",""
"","feedback","","html-keyboard-response","386","323864","0.0-1.0-537.0-0.0","0","0","45448","","null","","","null","59","","","","","","","","","","","","","","","",""
"","time_out","","html-keyboard-response","387","325869","0.0-1.0-539.0-0.0","0","0","45448","","null","","","null","59","","","","","","","","","","","","","","","",""
"","ITI","","html-keyboard-response","388","326877","0.0-1.0-540.0","0","0","45448","","null","","","null","59","","","","","","","","","","","","","","","NaN",""
"","S1","","html-keyboard-response","389","327134","0.0-1.0-542.0","0","0","45448","","null","","","null","60","","","","","","","","","","","","","","","",""
"","ISI","","html-keyboard-response","390","327302","0.0-1.0-543.0","0","0","45448","","null","","","null","60","NaN","","","","","","","","","","","","","","",""
"","S2","","html-keyboard-response","391","327566","0.0-1.0-544.0","0","0","45448","","null","","","null","60","","NaN","","","","","","","","","","","","","",""
"","response","","html-keyboard-response","392","327976","0.0-1.0-545.0-0.0","0","0","45448","","408","","","75","60","","","2","60","training","adjacent","CD","3","4","N.jpg","L.jpg","0","1","0","",""
"","feedback","","html-keyboard-response","393","328986","0.0-1.0-546.0-0.0","0","0","45448","","null","","","null","60","","","","","","","","","","","","","","","",""
"","time_out","","html-keyboard-response","394","330990","0.0-1.0-548.0-0.0","0","0","45448","","null","","","null","60","","","","","","","","","","","","","","","",""
"","ITI","","html-keyboard-response","395","332000","0.0-1.0-549.0","0","0","45448","","null","","","null","60","","","","","","","","","","","","","","","NaN",""
"","S1","","html-keyboard-response","396","332257","0.0-1.0-551.0","0","0","45448","","null","","","null","61","","","","","","","","","","","","","","","",""
"","ISI","","html-keyboard-response","397","332410","0.0-1.0-552.0","0","0","45448","","null","","","null","61","NaN","","","","","","","","","","","","","","",""
"","S2","","html-keyboard-response","398","332667","0.0-1.0-553.0","0","0","45448","","null","","","null","61","","NaN","","","","","","","","","","","","","",""
"","response","","html-keyboard-response","399","333902","0.0-1.0-554.0-0.0","0","0","45448","","1232","","","75","61","","","2","61","training","adjacent","CB","3","2","N.jpg","M.jpg","0","0","1","",""
"","feedback","","html-keyboard-response","400","334911","0.0-1.0-555.0-0.0","0","0","45448","","null","","","null","61","","","","","","","","","","","","","","","",""
"","ITI","","html-keyboard-response","401","335914","0.0-1.0-558.0","0","0","45448","","null","","","null","61","","","","","","","","","","","","","","","NaN",""
"","S1","","html-keyboard-response","402","336173","0.0-1.0-560.0","0","0","45448","","null","","","null","62","","","","","","","","","","","","","","","",""
"","ISI","","html-keyboard-response","403","336330","0.0-1.0-561.0","0","0","45448","","null","","","null","62","NaN","","","","","","","","","","","","","","",""
"","S2","","html-keyboard-response","404","336587","0.0-1.0-562.0","0","0","45448","","null","","","null","62","","NaN","","","","","","","","","","","","","",""
"","response","","html-keyboard-response","405","337328","0.0-1.0-563.0-0.0","0","0","45448","","739","","","68","62","","","2","62","training","adjacent","AB","1","2","Q.jpg","M.jpg","1","1","1","",""
"","feedback","","html-keyboard-response","406","338342","0.0-1.0-564.0-0.0","0","0","45448","","null","","","null","62","","","","","","","","","","","","","","","",""
"","ITI","","html-keyboard-response","407","339354","0.0-1.0-567.0","0","0","45448","","null","","","null","62","","","","","","","","","","","","","","","NaN",""
"","S1","","html-keyboard-response","408","339611","0.0-1.0-569.0","0","0","45448","","null","","","null","63","","","","","","","","","","","","","","","",""
"","ISI","","html-keyboard-response","409","339766","0.0-1.0-570.0","0","0","45448","","null","","","null","63","NaN","","","","","","","","","","","","","","",""
"","S2","","html-keyboard-response","410","340030","0.0-1.0-571.0","0","0","45448","","null","","","null","63","","NaN","","","","","","","","","","","","","",""
"","response","","html-keyboard-response","411","340865","0.0-1.0-572.0-0.0","0","0","45448","","833","","","68","63","","","2","63","training","adjacent","EF","5","6","P.jpg","O.jpg","1","1","1","",""
"","feedback","","html-keyboard-response","412","341869","0.0-1.0-573.0-0.0","0","0","45448","","null","","","null","63","","","","","","","","","","","","","","","",""
"","ITI","","html-keyboard-response","413","342875","0.0-1.0-576.0","0","0","45448","","null","","","null","63","","","","","","","","","","","","","","","NaN",""
"","S1","","html-keyboard-response","414","343140","0.0-1.0-578.0","0","0","45448","","null","","","null","64","","","","","","","","","","","","","","","",""
"","ISI","","html-keyboard-response","415","343299","0.0-1.0-579.0","0","0","45448","","null","","","null","64","NaN","","","","","","","","","","","","","","",""
"","S2","","html-keyboard-response","416","343558","0.0-1.0-580.0","0","0","45448","","null","","","null","64","","NaN","","","","","","","","","","","","","",""
"","response","","html-keyboard-response","417","344661","0.0-1.0-581.0-0.0","0","0","45448","","1100","","","75","64","","","2","64","training","adjacent","DC","4","3","L.jpg","N.jpg","0","0","1","",""
"","feedback","","html-keyboard-response","418","345671","0.0-1.0-582.0-0.0","0","0","45448","","null","","","null","64","","","","","","","","","","","","","","","",""
"","ITI","","html-keyboard-response","419","346676","0.0-1.0-585.0","0","0","45448","","null","","","null","64","","","","","","","","","","","","","","","NaN",""
"","S1","","html-keyboard-response","420","346933","0.0-1.0-587.0","0","0","45448","","null","","","null","65","","","","","","","","","","","","","","","",""
"","ISI","","html-keyboard-response","421","347093","0.0-1.0-588.0","0","0","45448","","null","","","null","65","NaN","","","","","","","","","","","","","","",""
"","S2","","html-keyboard-response","422","347346","0.0-1.0-589.0","0","0","45448","","null","","","null","65","","NaN","","","","","","","","","","","","","",""
"","response","","html-keyboard-response","423","347609","0.0-1.0-590.0-0.0","0","0","45448","","260","","","75","65","","","2","65","training","adjacent","GF","7","6","R.jpg","O.jpg","0","0","1","",""
"","feedback","","html-keyboard-response","424","348617","0.0-1.0-591.0-0.0","0","0","45448","","null","","","null","65","","","","","","","","","","","","","","","",""
"","ITI","","html-keyboard-response","425","349624","0.0-1.0-594.0","0","0","45448","","null","","","null","65","","","","","","","","","","","","","","","NaN",""
"","S1","","html-keyboard-response","426","349884","0.0-1.0-596.0","0","0","45448","","null","","","null","66","","","","","","","","","","","","","","","",""
"","ISI","","html-keyboard-response","427","350037","0.0-1.0-597.0","0","0","45448","","null","","","null","66","NaN","","","","","","","","","","","","","","",""
"","S2","","html-keyboard-response","428","350299","0.0-1.0-598.0","0","0","45448","","null","","","null","66","","NaN","","","","","","","","","","","","","",""
"","response","","html-keyboard-response","429","350635","0.0-1.0-599.0-0.0","0","0","45448","","335","","","75","66","","","2","66","training","adjacent","DE","4","5","L.jpg","P.jpg","0","1","0","",""
"","feedback","","html-keyboard-response","430","351647","0.0-1.0-600.0-0.0","0","0","45448","","null","","","null","66","","","","","","","","","","","","","","","",""
"","time_out","","html-keyboard-response","431","353651","0.0-1.0-602.0-0.0","0","0","45448","","null","","","null","66","","","","","","","","","","","","","","","",""
"","ITI","","html-keyboard-response","432","354655","0.0-1.0-603.0","0","0","45448","","null","","","null","66","","","","","","","","","","","","","","","NaN",""
"","S1","","html-keyboard-response","433","354922","0.0-1.0-605.0","0","0","45448","","null","","","null","67","","","","","","","","","","","","","","","",""
"","ISI","","html-keyboard-response","434","355085","0.0-1.0-606.0","0","0","45448","","null","","","null","67","NaN","","","","","","","","","","","","","","",""
"","S2","","html-keyboard-response","435","355345","0.0-1.0-607.0","0","0","45448","","null","","","null","67","","NaN","","","","","","","","","","","","","",""
"","response","","html-keyboard-response","436","355899","0.0-1.0-608.0-0.0","0","0","45448","","552","","","75","67","","","2","67","training","adjacent","FE","6","5","O.jpg","P.jpg","0","0","1","",""
"","feedback","","html-keyboard-response","437","356907","0.0-1.0-609.0-0.0","0","0","45448","","null","","","null","67","","","","","","","","","","","","","","","",""
"","ITI","","html-keyboard-response","438","357910","0.0-1.0-612.0","0","0","45448","","null","","","null","67","","","","","","","","","","","","","","","NaN",""
"","S1","","html-keyboard-response","439","358165","0.0-1.0-614.0","0","0","45448","","null","","","null","68","","","","","","","","","","","","","","","",""
"","ISI","","html-keyboard-response","440","358324","0.0-1.0-615.0","0","0","45448","","null","","","null","68","NaN","","","","","","","","","","","","","","",""
"","S2","","html-keyboard-response","441","358580","0.0-1.0-616.0","0","0","45448","","null","","","null","68","","NaN","","","","","","","","","","","","","",""
"","response","","html-keyboard-response","442","359216","0.0-1.0-617.0-0.0","0","0","45448","","633","","","75","68","","","2","68","training","adjacent","GF","7","6","R.jpg","O.jpg","0","0","1","",""
"","feedback","","html-keyboard-response","443","360225","0.0-1.0-618.0-0.0","0","0","45448","","null","","","null","68","","","","","","","","","","","","","","","",""
"","ITI","","html-keyboard-response","444","361231","0.0-1.0-621.0","0","0","45448","","null","","","null","68","","","","","","","","","","","","","","","NaN",""
"","S1","","html-keyboard-response","445","361485","0.0-1.0-623.0","0","0","45448","","null","","","null","69","","","","","","","","","","","","","","","",""
"","ISI","","html-keyboard-response","446","361640","0.0-1.0-624.0","0","0","45448","","null","","","null","69","NaN","","","","","","","","","","","","","","",""
"","S2","","html-keyboard-response","447","361894","0.0-1.0-625.0","0","0","45448","","null","","","null","69","","NaN","","","","","","","","","","","","","",""
"","response","","html-keyboard-response","448","362899","0.0-1.0-626.0-0.0","0","0","45448","","1003","","","68","69","","","2","69","training","adjacent","CD","3","4","N.jpg","L.jpg","1","1","1","",""
"","feedback","","html-keyboard-response","449","363909","0.0-1.0-627.0-0.0","0","0","45448","","null","","","null","69","","","","","","","","","","","","","","","",""
"","ITI","","html-keyboard-response","450","364915","0.0-1.0-630.0","0","0","45448","","null","","","null","69","","","","","","","","","","","","","","","NaN",""
"","S1","","html-keyboard-response","451","365170","0.0-1.0-632.0","0","0","45448","","null","","","null","70","","","","","","","","","","","","","","","",""
"","ISI","","html-keyboard-response","452","365330","0.0-1.0-633.0","0","0","45448","","null","","","null","70","NaN","","","","","","","","","","","","","","",""
"","S2","","html-keyboard-response","453","365587","0.0-1.0-634.0","0","0","45448","","null","","","null","70","","NaN","","","","","","","","","","","","","",""
"","response","","html-keyboard-response","454","366660","0.0-1.0-635.0-0.0","0","0","45448","","1070","","","75","70","","","2","70","training","adjacent","CB","3","2","N.jpg","M.jpg","0","0","1","",""
"","feedback","","html-keyboard-response","455","367664","0.0-1.0-636.0-0.0","0","0","45448","","null","","","null","70","","","","","","","","","","","","","","","",""
"","ITI","","html-keyboard-response","456","368670","0.0-1.0-639.0","0","0","45448","","null","","","null","70","","","","","","","","","","","","","","","NaN",""
"","S1","","html-keyboard-response","457","368932","0.0-1.0-641.0","0","0","45448","","null","","","null","71","","","","","","","","","","","","","","","",""
"","ISI","","html-keyboard-response","458","369098","0.0-1.0-642.0","0","0","45448","","null","","","null","71","NaN","","","","","","","","","","","","","","",""
"","S2","","html-keyboard-response","459","369352","0.0-1.0-643.0","0","0","45448","","null","","","null","71","","NaN","","","","","","","","","","","","","",""
"","response","","html-keyboard-response","460","369724","0.0-1.0-644.0-0.0","0","0","45448","","370","","","75","71","","","2","71","training","adjacent","BA","2","1","M.jpg","Q.jpg","0","0","1","",""
"","feedback","","html-keyboard-response","461","370729","0.0-1.0-645.0-0.0","0","0","45448","","null","","","null","71","","","","","","","","","","","","","","","",""
"","ITI","","html-keyboard-response","462","371733","0.0-1.0-648.0","0","0","45448","","null","","","null","71","","","","","","","","","","","","","","","NaN",""
"","S1","","html-keyboard-response","463","371992","0.0-1.0-650.0","0","0","45448","","null","","","null","72","","","","","","","","","","","","","","","",""
"","ISI","","html-keyboard-response","464","372153","0.0-1.0-651.0","0","0","45448","","null","","","null","72","NaN","","","","","","","","","","","","","","",""
"","S2","","html-keyboard-response","465","372410","0.0-1.0-652.0","0","0","45448","","null","","","null","72","","NaN","","","","","","","","","","","","","",""
"","response","","html-keyboard-response","466","372571","0.0-1.0-653.0-0.0","0","0","45448","","158","","","75","72","","","2","72","training","adjacent","BA","2","1","M.jpg","Q.jpg","0","0","1","",""
"","feedback","","html-keyboard-response","467","373578","0.0-1.0-654.0-0.0","0","0","45448","","null","","","null","72","","","","","","","","","","","","","","","",""
"","ITI","","html-keyboard-response","468","374587","0.0-1.0-657.0","0","0","45448","","null","","","null","72","","","","","","","","","","","","","","","NaN",""
"","S1","","html-keyboard-response","469","374845","0.0-1.0-659.0","0","0","45448","","null","","","null","73","","","","","","","","","","","","","","","",""
"","ISI","","html-keyboard-response","470","374999","0.0-1.0-660.0","0","0","45448","","null","","","null","73","NaN","","","","","","","","","","","","","","",""
"","S2","","html-keyboard-response","471","375252","0.0-1.0-661.0","0","0","45448","","null","","","null","73","","NaN","","","","","","","","","","","","","",""
"","response","","html-keyboard-response","472","375644","0.0-1.0-662.0-0.0","0","0","45448","","389","","","68","73","","","2","73","training","adjacent","AB","1","2","Q.jpg","M.jpg","1","1","1","",""
"","feedback","","html-keyboard-response","473","376649","0.0-1.0-663.0-0.0","0","0","45448","","null","","","null","73","","","","","","","","","","","","","","","",""
"","ITI","","html-keyboard-response","474","377655","0.0-1.0-666.0","0","0","45448","","null","","","null","73","","","","","","","","","","","","","","","NaN",""
"","S1","","html-keyboard-response","475","377916","0.0-1.0-668.0","0","0","45448","","null","","","null","74","","","","","","","","","","","","","","","",""
"","ISI","","html-keyboard-response","476","378083","0.0-1.0-669.0","0","0","45448","","null","","","null","74","NaN","","","","","","","","","","","","","","",""
"","S2","","html-keyboard-response","477","378340","0.0-1.0-670.0","0","0","45448","","null","","","null","74","","NaN","","","","","","","","","","","","","",""
"","response","","html-keyboard-response","478","378692","0.0-1.0-671.0-0.0","0","0","45448","","350","","","75","74","","","2","74","training","adjacent","EF","5","6","P.jpg","O.jpg","0","1","0","",""
"","feedback","","html-keyboard-response","479","379700","0.0-1.0-672.0-0.0","0","0","45448","","null","","","null","74","","","","","","","","","","","","","","","",""
"","time_out","","html-keyboard-response","480","381709","0.0-1.0-674.0-0.0","0","0","45448","","null","","","null","74","","","","","","","","","","","","","","","",""
"","ITI","","html-keyboard-response","481","382715","0.0-1.0-675.0","0","0","45448","","null","","","null","74","","","","","","","","","","","","","","","NaN",""
"","S1","","html-keyboard-response","482","382970","0.0-1.0-677.0","0","0","45448","","null","","","null","75","","","","","","","","","","","","","","","",""
"","ISI","","html-keyboard-response","483","383130","0.0-1.0-678.0","0","0","45448","","null","","","null","75","NaN","","","","","","","","","","","","","","",""
"","S2","","html-keyboard-response","484","383389","0.0-1.0-679.0","0","0","45448","","null","","","null","75","","NaN","","","","","","","","","","","","","",""
"","response","","html-keyboard-response","485","383779","0.0-1.0-680.0-0.0","0","0","45448","","388","","","75","75","","","2","75","training","adjacent","CD","3","4","N.jpg","L.jpg","0","1","0","",""
"","feedback","","html-keyboard-response","486","384790","0.0-1.0-681.0-0.0","0","0","45448","","null","","","null","75","","","","","","","","","","","","","","","",""
"","time_out","","html-keyboard-response","487","386800","0.0-1.0-683.0-0.0","0","0","45448","","null","","","null","75","","","","","","","","","","","","","","","",""
"","ITI","","html-keyboard-response","488","387809","0.0-1.0-684.0","0","0","45448","","null","","","null","75","","","","","","","","","","","","","","","NaN",""
"","S1","","html-keyboard-response","489","388062","0.0-1.0-686.0","0","0","45448","","null","","","null","76","","","","","","","","","","","","","","","",""
"","ISI","","html-keyboard-response","490","388220","0.0-1.0-687.0","0","0","45448","","null","","","null","76","NaN","","","","","","","","","","","","","","",""
"","S2","","html-keyboard-response","491","388476","0.0-1.0-688.0","0","0","45448","","null","","","null","76","","NaN","","","","","","","","","","","","","",""
"","response","","html-keyboard-response","492","389731","0.0-1.0-689.0-0.0","0","0","45448","","1252","","","68","76","","","2","76","training","adjacent","FG","6","7","O.jpg","R.jpg","1","1","1","",""
"","feedback","","html-keyboard-response","493","390747","0.0-1.0-690.0-0.0","0","0","45448","","null","","","null","76","","","","","","","","","","","","","","","",""
"","ITI","","html-keyboard-response","494","391764","0.0-1.0-693.0","0","0","45448","","null","","","null","76","","","","","","","","","","","","","","","NaN",""
"","S1","","html-keyboard-response","495","392020","0.0-1.0-695.0","0","0","45448","","null","","","null","77","","","","","","","","","","","","","","","",""
"","ISI","","html-keyboard-response","496","392173","0.0-1.0-696.0","0","0","45448","","null","","","null","77","NaN","","","","","","","","","","","","","","",""
"","S2","","html-keyboard-response","497","392440","0.0-1.0-697.0","0","0","45448","","null","","","null","77","","NaN","","","","","","","","","","","","","",""
"","response","","html-keyboard-response","498","393267","0.0-1.0-698.0-0.0","0","0","45448","","826","","","68","77","","","2","77","training","adjacent","BC","2","3","M.jpg","N.jpg","1","1","1","",""
"","feedback","","html-keyboard-response","499","394271","0.0-1.0-699.0-0.0","0","0","45448","","null","","","null","77","","","","","","","","","","","","","","","",""
"","ITI","","html-keyboard-response","500","395278","0.0-1.0-702.0","0","0","45448","","null","","","null","77","","","","","","","","","","","","","","","NaN",""
"","S1","","html-keyboard-response","501","395536","0.0-1.0-704.0","0","0","45448","","null","","","null","78","","","","","","","","","","","","","","","",""
"","ISI","","html-keyboard-response","502","395702","0.0-1.0-705.0","0","0","45448","","null","","","null","78","NaN","","","","","","","","","","","","","","",""
"","S2","","html-keyboard-response","503","395956","0.0-1.0-706.0","0","0","45448","","null","","","null","78","","NaN","","","","","","","","","","","","","",""
"","response","","html-keyboard-response","504","396628","0.0-1.0-707.0-0.0","0","0","45448","","669","","","68","78","","","2","78","training","adjacent","EF","5","6","P.jpg","O.jpg","1","1","1","",""
"","feedback","","html-keyboard-response","505","397640","0.0-1.0-708.0-0.0","0","0","45448","","null","","","null","78","","","","","","","","","","","","","","","",""
"","ITI","","html-keyboard-response","506","398652","0.0-1.0-711.0","0","0","45448","","null","","","null","78","","","","","","","","","","","","","","","NaN",""
"","S1","","html-keyboard-response","507","398916","0.0-1.0-713.0","0","0","45448","","null","","","null","79","","","","","","","","","","","","","","","",""
"","ISI","","html-keyboard-response","508","399085","0.0-1.0-714.0","0","0","45448","","null","","","null","79","NaN","","","","","","","","","","","","","","",""
"","S2","","html-keyboard-response","509","399342","0.0-1.0-715.0","0","0","45448","","null","","","null","79","","NaN","","","","","","","","","","","","","",""
"","response","","html-keyboard-response","510","400159","0.0-1.0-716.0-0.0","0","0","45448","","815","","","68","79","","","2","79","training","adjacent","BC","2","3","M.jpg","N.jpg","1","1","1","",""
"","feedback","","html-keyboard-response","511","401164","0.0-1.0-717.0-0.0","0","0","45448","","null","","","null","79","","","","","","","","","","","","","","","",""
"","ITI","","html-keyboard-response","512","402173","0.0-1.0-720.0","0","0","45448","","null","","","null","79","","","","","","","","","","","","","","","NaN",""
"","S1","","html-keyboard-response","513","402426","0.0-1.0-722.0","0","0","45448","","null","","","null","80","","","","","","","","","","","","","","","",""
"","ISI","","html-keyboard-response","514","402587","0.0-1.0-723.0","0","0","45448","","null","","","null","80","NaN","","","","","","","","","","","","","","",""
"","S2","","html-keyboard-response","515","402842","0.0-1.0-724.0","0","0","45448","","null","","","null","80","","NaN","","","","","","","","","","","","","",""
"","response","","html-keyboard-response","516","403678","0.0-1.0-725.0-0.0","0","0","45448","","834","","","68","80","","","2","80","training","adjacent","DC","4","3","L.jpg","N.jpg","1","0","0","",""
"","feedback","","html-keyboard-response","517","404692","0.0-1.0-726.0-0.0","0","0","45448","","null","","","null","80","","","","","","","","","","","","","","","",""
"","time_out","","html-keyboard-response","518","406707","0.0-1.0-728.0-0.0","0","0","45448","","null","","","null","80","","","","","","","","","","","","","","","",""
"","ITI","","html-keyboard-response","519","407714","0.0-1.0-729.0","0","0","45448","","null","","","null","80","","","","","","","","","","","","","","","NaN",""
"","S1","","html-keyboard-response","520","407974","0.0-1.0-731.0","0","0","45448","","null","","","null","81","","","","","","","","","","","","","","","",""
"","ISI","","html-keyboard-response","521","408133","0.0-1.0-732.0","0","0","45448","","null","","","null","81","NaN","","","","","","","","","","","","","","",""
"","S2","","html-keyboard-response","522","408394","0.0-1.0-733.0","0","0","45448","","null","","","null","81","","NaN","","","","","","","","","","","","","",""
"","response","","html-keyboard-response","523","408590","0.0-1.0-734.0-0.0","0","0","45448","","194","","","75","81","","","2","81","training","adjacent","BA","2","1","M.jpg","Q.jpg","0","0","1","",""
"","feedback","","html-keyboard-response","524","409598","0.0-1.0-735.0-0.0","0","0","45448","","null","","","null","81","","","","","","","","","","","","","","","",""
"","ITI","","html-keyboard-response","525","410606","0.0-1.0-738.0","0","0","45448","","null","","","null","81","","","","","","","","","","","","","","","NaN",""
"","S1","","html-keyboard-response","526","410859","0.0-1.0-740.0","0","0","45448","","null","","","null","82","","","","","","","","","","","","","","","",""
"","ISI","","html-keyboard-response","527","411022","0.0-1.0-741.0","0","0","45448","","null","","","null","82","NaN","","","","","","","","","","","","","","",""
"","S2","","html-keyboard-response","528","411276","0.0-1.0-742.0","0","0","45448","","null","","","null","82","","NaN","","","","","","","","","","","","","",""
"","response","","html-keyboard-response","529","412070","0.0-1.0-743.0-0.0","0","0","45448","","791","","","75","82","","","2","82","training","adjacent","ED","5","4","P.jpg","L.jpg","0","0","1","",""
"","feedback","","html-keyboard-response","530","413078","0.0-1.0-744.0-0.0","0","0","45448","","null","","","null","82","","","","","","","","","","","","","","","",""
"","ITI","","html-keyboard-response","531","414087","0.0-1.0-747.0","0","0","45448","","null","","","null","82","","","","","","","","","","","","","","","NaN",""
"","S1","","html-keyboard-response","532","414339","0.0-1.0-749.0","0","0","45448","","null","","","null","83","","","","","","","","","","","","","","","",""
"","ISI","","html-keyboard-response","533","414499","0.0-1.0-750.0","0","0","45448","","null","","","null","83","NaN","","","","","","","","","","","","","","",""
"","S2","","html-keyboard-response","534","414752","0.0-1.0-751.0","0","0","45448","","null","","","null","83","","NaN","","","","","","","","","","","","","",""
"","response","","html-keyboard-response","535","416508","0.0-1.0-752.0-0.0","0","0","45448","","null","","","null","83","","","2","83","training","adjacent","FE","6","5","O.jpg","P.jpg","NaN","0","0","",""
"","too_slow_prompt","","html-keyboard-response","536","417518","0.0-1.0-754.0-0.0","1","0","45448","","null","","","null","","","","","","","","","","","","","","","","",""
"","time_out","","html-keyboard-response","537","419528","0.0-1.0-755.0-0.0","0","0","45448","","null","","","null","83","","","","","","","","","","","","","","","",""
"","ITI","","html-keyboard-response","538","420531","0.0-1.0-756.0","0","0","45448","","null","","","null","83","","","","","","","","","","","","","","","NaN",""
"","S1","","html-keyboard-response","539","420795","0.0-1.0-758.0","0","0","45448","","null","","","null","84","","","","","","","","","","","","","","","",""
"","ISI","","html-keyboard-response","540","420954","0.0-1.0-759.0","0","0","45448","","null","","","null","84","NaN","","","","","","","","","","","","","","",""
"","S2","","html-keyboard-response","541","421208","0.0-1.0-760.0","0","0","45448","","null","","","null","84","","NaN","","","","","","","","","","","","","",""
"","response","","html-keyboard-response","542","421524","0.0-1.0-761.0-0.0","0","0","45448","","313","","","68","84","","","2","84","training","adjacent","FG","6","7","O.jpg","R.jpg","1","1","1","",""
"","feedback","","html-keyboard-response","543","422536","0.0-1.0-762.0-0.0","0","0","45448","","null","","","null","84","","","","","","","","","","","","","","","",""
"","ITI","","html-keyboard-response","544","423555","0.0-1.0-765.0","0","0","45448","","null","","","null","84","","","","","","","","","","","","","","","NaN",""
"","S1","","html-keyboard-response","545","423815","0.0-1.0-767.0","0","0","45448","","null","","","null","85","","","","","","","","","","","","","","","",""
"","ISI","","html-keyboard-response","546","423977","0.0-1.0-768.0","0","0","45448","","null","","","null","85","NaN","","","","","","","","","","","","","","",""
"","S2","","html-keyboard-response","547","424237","0.0-1.0-769.0","0","0","45448","","null","","","null","85","","NaN","","","","","","","","","","","","","",""
"","response","","html-keyboard-response","548","425080","0.0-1.0-770.0-0.0","0","0","45448","","841","","","68","85","","","2","85","training","adjacent","EF","5","6","P.jpg","O.jpg","1","1","1","",""
"","feedback","","html-keyboard-response","549","426090","0.0-1.0-771.0-0.0","0","0","45448","","null","","","null","85","","","","","","","","","","","","","","","",""
"","ITI","","html-keyboard-response","550","427098","0.0-1.0-774.0","0","0","45448","","null","","","null","85","","","","","","","","","","","","","","","NaN",""
"","S1","","html-keyboard-response","551","427358","0.0-1.0-776.0","0","0","45448","","null","","","null","86","","","","","","","","","","","","","","","",""
"","ISI","","html-keyboard-response","552","427518","0.0-1.0-777.0","0","0","45448","","null","","","null","86","NaN","","","","","","","","","","","","","","",""
"","S2","","html-keyboard-response","553","427779","0.0-1.0-778.0","0","0","45448","","null","","","null","86","","NaN","","","","","","","","","","","","","",""
"","response","","html-keyboard-response","554","428839","0.0-1.0-779.0-0.0","0","0","45448","","1058","","","68","86","","","2","86","training","adjacent","CD","3","4","N.jpg","L.jpg","1","1","1","",""
"","feedback","","html-keyboard-response","555","429846","0.0-1.0-780.0-0.0","0","0","45448","","null","","","null","86","","","","","","","","","","","","","","","",""
"","ITI","","html-keyboard-response","556","430861","0.0-1.0-783.0","0","0","45448","","null","","","null","86","","","","","","","","","","","","","","","NaN",""
"","S1","","html-keyboard-response","557","431120","0.0-1.0-785.0","0","0","45448","","null","","","null","87","","","","","","","","","","","","","","","",""
"","ISI","","html-keyboard-response","558","431277","0.0-1.0-786.0","0","0","45448","","null","","","null","87","NaN","","","","","","","","","","","","","","",""
"","S2","","html-keyboard-response","559","431538","0.0-1.0-787.0","0","0","45448","","null","","","null","87","","NaN","","","","","","","","","","","","","",""
"","response","","html-keyboard-response","560","431990","0.0-1.0-788.0-0.0","0","0","45448","","450","","","75","87","","","2","87","training","adjacent","ED","5","4","P.jpg","L.jpg","0","0","1","",""
"","feedback","","html-keyboard-response","561","432994","0.0-1.0-789.0-0.0","0","0","45448","","null","","","null","87","","","","","","","","","","","","","","","",""
"","ITI","","html-keyboard-response","562","434000","0.0-1.0-792.0","0","0","45448","","null","","","null","87","","","","","","","","","","","","","","","NaN",""
"","S1","","html-keyboard-response","563","434254","0.0-1.0-794.0","0","0","45448","","null","","","null","88","","","","","","","","","","","","","","","",""
"","ISI","","html-keyboard-response","564","434413","0.0-1.0-795.0","0","0","45448","","null","","","null","88","NaN","","","","","","","","","","","","","","",""
"","S2","","html-keyboard-response","565","434669","0.0-1.0-796.0","0","0","45448","","null","","","null","88","","NaN","","","","","","","","","","","","","",""
"","response","","html-keyboard-response","566","434817","0.0-1.0-797.0-0.0","0","0","45448","","145","","","75","88","","","2","88","training","adjacent","ED","5","4","P.jpg","L.jpg","0","0","1","",""
"","feedback","","html-keyboard-response","567","435822","0.0-1.0-798.0-0.0","0","0","45448","","null","","","null","88","","","","","","","","","","","","","","","",""
"","ITI","","html-keyboard-response","568","436833","0.0-1.0-801.0","0","0","45448","","null","","","null","88","","","","","","","","","","","","","","","NaN",""
"","S1","","html-keyboard-response","569","437087","0.0-1.0-803.0","0","0","45448","","null","","","null","89","","","","","","","","","","","","","","","",""
"","ISI","","html-keyboard-response","570","437247","0.0-1.0-804.0","0","0","45448","","null","","","null","89","NaN","","","","","","","","","","","","","","",""
"","S2","","html-keyboard-response","571","437505","0.0-1.0-805.0","0","0","45448","","null","","","null","89","","NaN","","","","","","","","","","","","","",""
"","response","","html-keyboard-response","572","437884","0.0-1.0-806.0-0.0","0","0","45448","","377","","","68","89","","","2","89","training","adjacent","DC","4","3","L.jpg","N.jpg","1","0","0","",""
"","feedback","","html-keyboard-response","573","438892","0.0-1.0-807.0-0.0","0","0","45448","","null","","","null","89","","","","","","","","","","","","","","","",""
"","time_out","","html-keyboard-response","574","440897","0.0-1.0-809.0-0.0","0","0","45448","","null","","","null","89","","","","","","","","","","","","","","","",""
"","ITI","","html-keyboard-response","575","441899","0.0-1.0-810.0","0","0","45448","","null","","","null","89","","","","","","","","","","","","","","","NaN",""
"","S1","","html-keyboard-response","576","442160","0.0-1.0-812.0","0","0","45448","","null","","","null","90","","","","","","","","","","","","","","","",""
"","ISI","","html-keyboard-response","577","442319","0.0-1.0-813.0","0","0","45448","","null","","","null","90","NaN","","","","","","","","","","","","","","",""
"","S2","","html-keyboard-response","578","442574","0.0-1.0-814.0","0","0","45448","","null","","","null","90","","NaN","","","","","","","","","","","","","",""
"","response","","html-keyboard-response","579","443351","0.0-1.0-815.0-0.0","0","0","45448","","775","","","68","90","","","2","90","training","adjacent","BC","2","3","M.jpg","N.jpg","1","1","1","",""
"","feedback","","html-keyboard-response","580","444369","0.0-1.0-816.0-0.0","0","0","45448","","null","","","null","90","","","","","","","","","","","","","","","",""
