"success","ttype","start_time","trial_type","trial_index","time_elapsed","internal_node_id","warning","missed_checkup","PID","view_history","rt","responses","repeat_instructions","key_press","index","keypress_isi","keypress_S2","block","trial_num","phase","group_type","pair_type","S1_stim","S2_stim","S1_img","S2_img","S1_chosen","S1_higher","accuracy","keypress_iti","total_bonus_tally"
"true","full_screen","d03032023hr2052","fullscreen","0","3621","0.0-0.0","0","0","89736","","","","","","","","","","","","","","","","","","","","","",""
"","instructions","","instructions","1","59569","0.0-1.0-0.0-0.0","0","0","89736","[{""page_index"":0,""viewing_time"":1976},{""page_index"":1,""viewing_time"":49403},{""page_index"":2,""viewing_time"":2959},{""page_index"":3,""viewing_time"":1600}]","55940","","","","","","","","","","","","","","","","","","","",""
"","comprehension_check","","survey-multi-choice","2","68281","0.0-1.0-0.0-1.0","0","0","89736","","8701","{""Q0"":""True"",""Q1"":""D"",""Q2"":""Once the second image appears and while the screen 'MAKE A CHOICE' is shown"",""Q3"":""Green mark"",""Q4"":""either D or K""}","0","","","","","","","","","","","","","","","","","",""
"","start_exp","","html-keyboard-response","3","71182","0.0-1.0-1.0","0","0","89736","","2891","","","32","","","","","","","","","","","","","","","","",""
"","S1","","html-keyboard-response","4","71445","0.0-1.0-2.0","0","0","89736","","null","","","null","0","","","","","","","","","","","","","","","",""
"","ISI","","html-keyboard-response","5","71958","0.0-1.0-3.0","0","0","89736","","362","","","68","0","d","","","","","","","","","","","","","","",""
"","S2","","html-keyboard-response","6","72222","0.0-1.0-4.0","0","0","89736","","null","","","null","0","","NaN","","","","","","","","","","","","","",""
"","response","","html-keyboard-response","7","72618","0.0-1.0-5.0-0.0","0","0","89736","","390","","","68","0","","","1","0","training","adjacent","CB","3","2","R.jpg","M.jpg","1","0","0","",""
"","feedback","","html-keyboard-response","8","73626","0.0-1.0-6.0-0.0","0","0","89736","","null","","","null","0","","","","","","","","","","","","","","","",""
"","time_out","","html-keyboard-response","9","75637","0.0-1.0-8.0-0.0","0","0","89736","","null","","","null","0","","","","","","","","","","","","","","","",""
"","ITI","","html-keyboard-response","10","76647","0.0-1.0-9.0","0","0","89736","","null","","","null","0","","","","","","","","","","","","","","","NaN",""
"","S1","","html-keyboard-response","11","76908","0.0-1.0-11.0","0","0","89736","","null","","","null","1","","","","","","","","","","","","","","","",""
"","ISI","","html-keyboard-response","12","77418","0.0-1.0-12.0","0","0","89736","","28","","","68","1","d","","","","","","","","","","","","","","",""
"","S2","","html-keyboard-response","13","77677","0.0-1.0-13.0","0","0","89736","","null","","","null","1","","NaN","","","","","","","","","","","","","",""
"","response","","html-keyboard-response","14","78518","0.0-1.0-14.0-0.0","0","0","89736","","836","","","68","1","","","1","1","training","adjacent","CD","3","4","R.jpg","N.jpg","1","1","1","",""
"","feedback","","html-keyboard-response","15","79533","0.0-1.0-15.0-0.0","0","0","89736","","null","","","null","1","","","","","","","","","","","","","","","",""
"","ITI","","html-keyboard-response","16","80554","0.0-1.0-18.0","0","0","89736","","null","","","null","1","","","","","","","","","","","","","","","NaN",""
"","S1","","html-keyboard-response","17","80816","0.0-1.0-20.0","0","0","89736","","null","","","null","2","","","","","","","","","","","","","","","",""
"","ISI","","html-keyboard-response","18","81325","0.0-1.0-21.0","0","0","89736","","364","","","75","2","k","","","","","","","","","","","","","","",""
"","S2","","html-keyboard-response","19","81586","0.0-1.0-22.0","0","0","89736","","null","","","null","2","","NaN","","","","","","","","","","","","","",""
"","response","","html-keyboard-response","20","82380","0.0-1.0-23.0-0.0","0","0","89736","","789","","","75","2","","","1","2","training","adjacent","FG","6","7","O.jpg","L.jpg","0","1","0","",""
"","feedback","","html-keyboard-response","21","83390","0.0-1.0-24.0-0.0","0","0","89736","","null","","","null","2","","","","","","","","","","","","","","","",""
"","time_out","","html-keyboard-response","22","85400","0.0-1.0-26.0-0.0","0","0","89736","","null","","","null","2","","","","","","","","","","","","","","","",""
"","ITI","","html-keyboard-response","23","86409","0.0-1.0-27.0","0","0","89736","","null","","","null","2","","","","","","","","","","","","","","","NaN",""
"","S1","","html-keyboard-response","24","86672","0.0-1.0-29.0","0","0","89736","","null","","","null","3","","","","","","","","","","","","","","","",""
"","ISI","","html-keyboard-response","25","87184","0.0-1.0-30.0","0","0","89736","","281","","","68","3","d","","","","","","","","","","","","","","",""
"","S2","","html-keyboard-response","26","87440","0.0-1.0-31.0","0","0","89736","","null","","","null","3","","NaN","","","","","","","","","","","","","",""
"","response","","html-keyboard-response","27","87913","0.0-1.0-32.0-0.0","0","0","89736","","468","","","68","3","","","1","3","training","adjacent","GF","7","6","L.jpg","O.jpg","1","0","0","",""
"","feedback","","html-keyboard-response","28","88924","0.0-1.0-33.0-0.0","0","0","89736","","null","","","null","3","","","","","","","","","","","","","","","",""
"","time_out","","html-keyboard-response","29","90934","0.0-1.0-35.0-0.0","0","0","89736","","null","","","null","3","","","","","","","","","","","","","","","",""
"","ITI","","html-keyboard-response","30","91939","0.0-1.0-36.0","0","0","89736","","null","","","null","3","","","","","","","","","","","","","","","NaN",""
"","S1","","html-keyboard-response","31","92197","0.0-1.0-38.0","0","0","89736","","null","","","null","4","","","","","","","","","","","","","","","",""
"","ISI","","html-keyboard-response","32","92707","0.0-1.0-39.0","0","0","89736","","220","","","68","4","d","","","","","","","","","","","","","","",""
"","S2","","html-keyboard-response","33","92904","0.0-1.0-40.0","0","0","89736","","192","","","75","4","","k","1","4","training","adjacent","ED","5","4","Q.jpg","N.jpg","0","0","1","",""
"","feedback","","html-keyboard-response","34","93914","0.0-1.0-42.0-0.0","0","0","89736","","null","","","null","4","","","","","","","","","","","","","","","",""
"","ITI","","html-keyboard-response","35","94930","0.0-1.0-45.0","0","0","89736","","140","","","75","4","","","","","","","","","","","","","","","k",""
"","S1","","html-keyboard-response","36","95185","0.0-1.0-47.0","0","0","89736","","null","","","null","5","","","","","","","","","","","","","","","",""
"","ISI","","html-keyboard-response","37","95698","0.0-1.0-48.0","0","0","89736","","9","","","68","5","d","","","","","","","","","","","","","","",""
"","S2","","html-keyboard-response","38","95720","0.0-1.0-49.0","0","0","89736","","16","","","68","5","","d","1","5","training","adjacent","CB","3","2","R.jpg","M.jpg","1","0","0","",""
"","feedback","","html-keyboard-response","39","96725","0.0-1.0-51.0-0.0","0","0","89736","","null","","","null","5","","","","","","","","","","","","","","","",""
"","time_out","","html-keyboard-response","40","98731","0.0-1.0-53.0-0.0","0","0","89736","","null","","","null","5","","","","","","","","","","","","","","","",""
"","ITI","","html-keyboard-response","41","99739","0.0-1.0-54.0","0","0","89736","","235","","","68","5","","","","","","","","","","","","","","","d",""
"","S1","","html-keyboard-response","42","99996","0.0-1.0-56.0","0","0","89736","","null","","","null","6","","","","","","","","","","","","","","","",""
"","ISI","","html-keyboard-response","43","100504","0.0-1.0-57.0","0","0","89736","","105","","","68","6","d","","","","","","","","","","","","","","",""
"","S2","","html-keyboard-response","44","100594","0.0-1.0-58.0","0","0","89736","","84","","","68","6","","d","1","6","training","adjacent","CD","3","4","R.jpg","N.jpg","1","1","1","",""
"","feedback","","html-keyboard-response","45","101601","0.0-1.0-60.0-0.0","0","0","89736","","null","","","null","6","","","","","","","","","","","","","","","",""
"","ITI","","html-keyboard-response","46","102608","0.0-1.0-63.0","0","0","89736","","214","","","68","6","","","","","","","","","","","","","","","d",""
"","S1","","html-keyboard-response","47","102875","0.0-1.0-65.0","0","0","89736","","null","","","null","7","","","","","","","","","","","","","","","",""
"","ISI","","html-keyboard-response","48","103386","0.0-1.0-66.0","0","0","89736","","202","","","68","7","d","","","","","","","","","","","","","","",""
"","S2","","html-keyboard-response","49","103500","0.0-1.0-67.0","0","0","89736","","107","","","68","7","","d","1","7","training","adjacent","FE","6","5","O.jpg","Q.jpg","1","0","0","",""
"","feedback","","html-keyboard-response","50","104508","0.0-1.0-69.0-0.0","0","0","89736","","null","","","null","7","","","","","","","","","","","","","","","",""
"","time_out","","html-keyboard-response","51","106518","0.0-1.0-71.0-0.0","0","0","89736","","null","","","null","7","","","","","","","","","","","","","","","",""
"","ITI","","html-keyboard-response","52","107527","0.0-1.0-72.0","0","0","89736","","39","","","75","7","","","","","","","","","","","","","","","k",""
"","S1","","html-keyboard-response","53","107786","0.0-1.0-74.0","0","0","89736","","null","","","null","8","","","","","","","","","","","","","","","",""
"","ISI","","html-keyboard-response","54","108297","0.0-1.0-75.0","0","0","89736","","79","","","68","8","d","","","","","","","","","","","","","","",""
"","S2","","html-keyboard-response","55","108453","0.0-1.0-76.0","0","0","89736","","150","","","75","8","","k","1","8","training","adjacent","BA","2","1","M.jpg","P.jpg","0","0","1","",""
"","feedback","","html-keyboard-response","56","109460","0.0-1.0-78.0-0.0","0","0","89736","","null","","","null","8","","","","","","","","","","","","","","","",""
"","ITI","","html-keyboard-response","57","110471","0.0-1.0-81.0","0","0","89736","","53","","","68","8","","","","","","","","","","","","","","","d",""
"","S1","","html-keyboard-response","58","110730","0.0-1.0-83.0","0","0","89736","","null","","","null","9","","","","","","","","","","","","","","","",""
"","ISI","","html-keyboard-response","59","111242","0.0-1.0-84.0","0","0","89736","","54","","","68","9","d","","","","","","","","","","","","","","",""
"","S2","","html-keyboard-response","60","111375","0.0-1.0-85.0","0","0","89736","","128","","","75","9","","k","1","9","training","adjacent","GF","7","6","L.jpg","O.jpg","0","0","1","",""
"","feedback","","html-keyboard-response","61","112387","0.0-1.0-87.0-0.0","0","0","89736","","null","","","null","9","","","","","","","","","","","","","","","",""
"","ITI","","html-keyboard-response","62","113396","0.0-1.0-90.0","0","0","89736","","108","","","68","9","","","","","","","","","","","","","","","d",""
"","S1","","html-keyboard-response","63","113656","0.0-1.0-92.0","0","0","89736","","null","","","null","10","","","","","","","","","","","","","","","",""
"","ISI","","html-keyboard-response","64","114172","0.0-1.0-93.0","0","0","89736","","147","","","68","10","d","","","","","","","","","","","","","","",""
"","S2","","html-keyboard-response","65","114284","0.0-1.0-94.0","0","0","89736","","107","","","68","10","","d","1","10","training","adjacent","EF","5","6","Q.jpg","O.jpg","1","1","1","",""
"","feedback","","html-keyboard-response","66","115294","0.0-1.0-96.0-0.0","0","0","89736","","null","","","null","10","","","","","","","","","","","","","","","",""
"","ITI","","html-keyboard-response","67","116304","0.0-1.0-99.0","0","0","89736","","108","","","75","10","","","","","","","","","","","","","","","k",""
"","S1","","html-keyboard-response","68","116568","0.0-1.0-101.0","0","0","89736","","null","","","null","11","","","","","","","","","","","","","","","",""
"","ISI","","html-keyboard-response","69","117076","0.0-1.0-102.0","0","0","89736","","66","","","68","11","d","","","","","","","","","","","","","","",""
"","S2","","html-keyboard-response","70","117128","0.0-1.0-103.0","0","0","89736","","46","","","68","11","","d","1","11","training","adjacent","FE","6","5","O.jpg","Q.jpg","1","0","0","",""
"","feedback","","html-keyboard-response","71","118141","0.0-1.0-105.0-0.0","0","0","89736","","null","","","null","11","","","","","","","","","","","","","","","",""
"","time_out","","html-keyboard-response","72","120150","0.0-1.0-107.0-0.0","0","0","89736","","null","","","null","11","","","","","","","","","","","","","","","",""
"","ITI","","html-keyboard-response","73","121161","0.0-1.0-108.0","0","0","89736","","null","","","null","11","","","","","","","","","","","","","","","NaN",""
"","S1","","html-keyboard-response","74","121419","0.0-1.0-110.0","0","0","89736","","null","","","null","12","","","","","","","","","","","","","","","",""
"","ISI","","html-keyboard-response","75","121931","0.0-1.0-111.0","0","0","89736","","null","","","null","12","NaN","","","","","","","","","","","","","","",""
"","S2","","html-keyboard-response","76","122190","0.0-1.0-112.0","0","0","89736","","null","","","null","12","","NaN","","","","","","","","","","","","","",""
"","response","","html-keyboard-response","77","122785","0.0-1.0-113.0-0.0","0","0","89736","","589","","","68","12","","","1","12","training","adjacent","ED","5","4","Q.jpg","N.jpg","1","0","0","",""
"","feedback","","html-keyboard-response","78","123795","0.0-1.0-114.0-0.0","0","0","89736","","null","","","null","12","","","","","","","","","","","","","","","",""
"","time_out","","html-keyboard-response","79","125806","0.0-1.0-116.0-0.0","0","0","89736","","null","","","null","12","","","","","","","","","","","","","","","",""
"","ITI","","html-keyboard-response","80","126817","0.0-1.0-117.0","0","0","89736","","null","","","null","12","","","","","","","","","","","","","","","NaN",""
"","S1","","html-keyboard-response","81","127075","0.0-1.0-119.0","0","0","89736","","null","","","null","13","","","","","","","","","","","","","","","",""
"","ISI","","html-keyboard-response","82","127583","0.0-1.0-120.0","0","0","89736","","null","","","null","13","NaN","","","","","","","","","","","","","","",""
"","S2","","html-keyboard-response","83","127841","0.0-1.0-121.0","0","0","89736","","null","","","null","13","","NaN","","","","","","","","","","","","","",""
"","response","","html-keyboard-response","84","128162","0.0-1.0-122.0-0.0","0","0","89736","","316","","","75","13","","","1","13","training","adjacent","CB","3","2","R.jpg","M.jpg","0","0","1","",""
"","feedback","","html-keyboard-response","85","129172","0.0-1.0-123.0-0.0","0","0","89736","","null","","","null","13","","","","","","","","","","","","","","","",""
"","ITI","","html-keyboard-response","86","130181","0.0-1.0-126.0","0","0","89736","","null","","","null","13","","","","","","","","","","","","","","","NaN",""
"","S1","","html-keyboard-response","87","130437","0.0-1.0-128.0","0","0","89736","","null","","","null","14","","","","","","","","","","","","","","","",""
"","ISI","","html-keyboard-response","88","130943","0.0-1.0-129.0","0","0","89736","","null","","","null","14","NaN","","","","","","","","","","","","","","",""
"","S2","","html-keyboard-response","89","131203","0.0-1.0-130.0","0","0","89736","","null","","","null","14","","NaN","","","","","","","","","","","","","",""
"","response","","html-keyboard-response","90","131527","0.0-1.0-131.0-0.0","0","0","89736","","318","","","75","14","","","1","14","training","adjacent","DE","4","5","N.jpg","Q.jpg","0","1","0","",""
"","feedback","","html-keyboard-response","91","132540","0.0-1.0-132.0-0.0","0","0","89736","","null","","","null","14","","","","","","","","","","","","","","","",""
"","time_out","","html-keyboard-response","92","134547","0.0-1.0-134.0-0.0","0","0","89736","","null","","","null","14","","","","","","","","","","","","","","","",""
"","ITI","","html-keyboard-response","93","135561","0.0-1.0-135.0","0","0","89736","","null","","","null","14","","","","","","","","","","","","","","","NaN",""
"","S1","","html-keyboard-response","94","135819","0.0-1.0-137.0","0","0","89736","","null","","","null","15","","","","","","","","","","","","","","","",""
"","ISI","","html-keyboard-response","95","136328","0.0-1.0-138.0","0","0","89736","","null","","","null","15","NaN","","","","","","","","","","","","","","",""
"","S2","","html-keyboard-response","96","136588","0.0-1.0-139.0","0","0","89736","","null","","","null","15","","NaN","","","","","","","","","","","","","",""
"","response","","html-keyboard-response","97","136918","0.0-1.0-140.0-0.0","0","0","89736","","325","","","68","15","","","1","15","training","adjacent","BC","2","3","M.jpg","R.jpg","1","1","1","",""
"","feedback","","html-keyboard-response","98","137928","0.0-1.0-141.0-0.0","0","0","89736","","null","","","null","15","","","","","","","","","","","","","","","",""
"","ITI","","html-keyboard-response","99","138937","0.0-1.0-144.0","0","0","89736","","null","","","null","15","","","","","","","","","","","","","","","NaN",""
"","S1","","html-keyboard-response","100","139196","0.0-1.0-146.0","0","0","89736","","null","","","null","16","","","","","","","","","","","","","","","",""
"","ISI","","html-keyboard-response","101","139703","0.0-1.0-147.0","0","0","89736","","null","","","null","16","NaN","","","","","","","","","","","","","","",""
"","S2","","html-keyboard-response","102","139967","0.0-1.0-148.0","0","0","89736","","null","","","null","16","","NaN","","","","","","","","","","","","","",""
"","response","","html-keyboard-response","103","140279","0.0-1.0-149.0-0.0","0","0","89736","","308","","","68","16","","","1","16","training","adjacent","CD","3","4","R.jpg","N.jpg","1","1","1","",""
"","feedback","","html-keyboard-response","104","141295","0.0-1.0-150.0-0.0","0","0","89736","","null","","","null","16","","","","","","","","","","","","","","","",""
"","ITI","","html-keyboard-response","105","142308","0.0-1.0-153.0","0","0","89736","","null","","","null","16","","","","","","","","","","","","","","","NaN",""
"","S1","","html-keyboard-response","106","142571","0.0-1.0-155.0","0","0","89736","","null","","","null","17","","","","","","","","","","","","","","","",""
"","ISI","","html-keyboard-response","107","143078","0.0-1.0-156.0","0","0","89736","","null","","","null","17","NaN","","","","","","","","","","","","","","",""
"","S2","","html-keyboard-response","108","143336","0.0-1.0-157.0","0","0","89736","","null","","","null","17","","NaN","","","","","","","","","","","","","",""
"","response","","html-keyboard-response","109","143688","0.0-1.0-158.0-0.0","0","0","89736","","348","","","68","17","","","1","17","training","adjacent","DE","4","5","N.jpg","Q.jpg","1","1","1","",""
"","feedback","","html-keyboard-response","110","144700","0.0-1.0-159.0-0.0","0","0","89736","","null","","","null","17","","","","","","","","","","","","","","","",""
"","ITI","","html-keyboard-response","111","145710","0.0-1.0-162.0","0","0","89736","","null","","","null","17","","","","","","","","","","","","","","","NaN",""
"","S1","","html-keyboard-response","112","145968","0.0-1.0-164.0","0","0","89736","","null","","","null","18","","","","","","","","","","","","","","","",""
"","ISI","","html-keyboard-response","113","146476","0.0-1.0-165.0","0","0","89736","","null","","","null","18","NaN","","","","","","","","","","","","","","",""
"","S2","","html-keyboard-response","114","146737","0.0-1.0-166.0","0","0","89736","","null","","","null","18","","NaN","","","","","","","","","","","","","",""
"","response","","html-keyboard-response","115","147108","0.0-1.0-167.0-0.0","0","0","89736","","367","","","75","18","","","1","18","training","adjacent","FG","6","7","O.jpg","L.jpg","0","1","0","",""
"","feedback","","html-keyboard-response","116","148121","0.0-1.0-168.0-0.0","0","0","89736","","null","","","null","18","","","","","","","","","","","","","","","",""
"","time_out","","html-keyboard-response","117","150126","0.0-1.0-170.0-0.0","0","0","89736","","null","","","null","18","","","","","","","","","","","","","","","",""
"","ITI","","html-keyboard-response","118","151141","0.0-1.0-171.0","0","0","89736","","null","","","null","18","","","","","","","","","","","","","","","NaN",""
"","S1","","html-keyboard-response","119","151402","0.0-1.0-173.0","0","0","89736","","null","","","null","19","","","","","","","","","","","","","","","",""
"","ISI","","html-keyboard-response","120","151916","0.0-1.0-174.0","0","0","89736","","null","","","null","19","NaN","","","","","","","","","","","","","","",""
"","S2","","html-keyboard-response","121","152173","0.0-1.0-175.0","0","0","89736","","null","","","null","19","","NaN","","","","","","","","","","","","","",""
"","response","","html-keyboard-response","122","152364","0.0-1.0-176.0-0.0","0","0","89736","","186","","","68","19","","","1","19","training","adjacent","DC","4","3","N.jpg","R.jpg","1","0","0","",""
"","feedback","","html-keyboard-response","123","153376","0.0-1.0-177.0-0.0","0","0","89736","","null","","","null","19","","","","","","","","","","","","","","","",""
"","time_out","","html-keyboard-response","124","155388","0.0-1.0-179.0-0.0","0","0","89736","","null","","","null","19","","","","","","","","","","","","","","","",""
"","ITI","","html-keyboard-response","125","156400","0.0-1.0-180.0","0","0","89736","","null","","","null","19","","","","","","","","","","","","","","","NaN",""
"","S1","","html-keyboard-response","126","156656","0.0-1.0-182.0","0","0","89736","","null","","","null","20","","","","","","","","","","","","","","","",""
"","ISI","","html-keyboard-response","127","157167","0.0-1.0-183.0","0","0","89736","","null","","","null","20","NaN","","","","","","","","","","","","","","",""
"","S2","","html-keyboard-response","128","157424","0.0-1.0-184.0","0","0","89736","","null","","","null","20","","NaN","","","","","","","","","","","","","",""
"","response","","html-keyboard-response","129","157721","0.0-1.0-185.0-0.0","0","0","89736","","292","","","75","20","","","1","20","training","adjacent","FG","6","7","O.jpg","L.jpg","0","1","0","",""
"","feedback","","html-keyboard-response","130","158729","0.0-1.0-186.0-0.0","0","0","89736","","null","","","null","20","","","","","","","","","","","","","","","",""
"","time_out","","html-keyboard-response","131","160735","0.0-1.0-188.0-0.0","0","0","89736","","null","","","null","20","","","","","","","","","","","","","","","",""
"","ITI","","html-keyboard-response","132","161749","0.0-1.0-189.0","0","0","89736","","null","","","null","20","","","","","","","","","","","","","","","NaN",""
"","S1","","html-keyboard-response","133","162006","0.0-1.0-191.0","0","0","89736","","null","","","null","21","","","","","","","","","","","","","","","",""
"","ISI","","html-keyboard-response","134","162513","0.0-1.0-192.0","0","0","89736","","null","","","null","21","NaN","","","","","","","","","","","","","","",""
"","S2","","html-keyboard-response","135","162776","0.0-1.0-193.0","0","0","89736","","null","","","null","21","","NaN","","","","","","","","","","","","","",""
"","response","","html-keyboard-response","136","162989","0.0-1.0-194.0-0.0","0","0","89736","","209","","","68","21","","","1","21","training","adjacent","BC","2","3","M.jpg","R.jpg","1","1","1","",""
"","feedback","","html-keyboard-response","137","163997","0.0-1.0-195.0-0.0","0","0","89736","","null","","","null","21","","","","","","","","","","","","","","","",""
"","ITI","","html-keyboard-response","138","165005","0.0-1.0-198.0","0","0","89736","","null","","","null","21","","","","","","","","","","","","","","","NaN",""
"","S1","","html-keyboard-response","139","165262","0.0-1.0-200.0","0","0","89736","","null","","","null","22","","","","","","","","","","","","","","","",""
"","ISI","","html-keyboard-response","140","165772","0.0-1.0-201.0","0","0","89736","","null","","","null","22","NaN","","","","","","","","","","","","","","",""
"","S2","","html-keyboard-response","141","166020","0.0-1.0-202.0","0","0","89736","","241","","","68","22","","d","1","22","training","adjacent","FE","6","5","O.jpg","Q.jpg","1","0","0","",""
"","feedback","","html-keyboard-response","142","167034","0.0-1.0-204.0-0.0","0","0","89736","","null","","","null","22","","","","","","","","","","","","","","","",""
"","time_out","","html-keyboard-response","143","169046","0.0-1.0-206.0-0.0","0","0","89736","","null","","","null","22","","","","","","","","","","","","","","","",""
"","ITI","","html-keyboard-response","144","170055","0.0-1.0-207.0","0","0","89736","","null","","","null","22","","","","","","","","","","","","","","","NaN",""
"","S1","","html-keyboard-response","145","170316","0.0-1.0-209.0","0","0","89736","","null","","","null","23","","","","","","","","","","","","","","","",""
"","ISI","","html-keyboard-response","146","170827","0.0-1.0-210.0","0","0","89736","","null","","","null","23","NaN","","","","","","","","","","","","","","",""
"","S2","","html-keyboard-response","147","171043","0.0-1.0-211.0","0","0","89736","","211","","","68","23","","d","1","23","training","adjacent","ED","5","4","Q.jpg","N.jpg","1","0","0","",""
"","feedback","","html-keyboard-response","148","172051","0.0-1.0-213.0-0.0","0","0","89736","","null","","","null","23","","","","","","","","","","","","","","","",""
"","time_out","","html-keyboard-response","149","174058","0.0-1.0-215.0-0.0","0","0","89736","","null","","","null","23","","","","","","","","","","","","","","","",""
"","ITI","","html-keyboard-response","150","175070","0.0-1.0-216.0","0","0","89736","","null","","","null","23","","","","","","","","","","","","","","","NaN",""
"","S1","","html-keyboard-response","151","175327","0.0-1.0-218.0","0","0","89736","","null","","","null","24","","","","","","","","","","","","","","","",""
"","ISI","","html-keyboard-response","152","175837","0.0-1.0-219.0","0","0","89736","","null","","","null","24","NaN","","","","","","","","","","","","","","",""
"","S2","","html-keyboard-response","153","175988","0.0-1.0-220.0","0","0","89736","","146","","","68","24","","d","1","24","training","adjacent","EF","5","6","Q.jpg","O.jpg","1","1","1","",""
"","feedback","","html-keyboard-response","154","176999","0.0-1.0-222.0-0.0","0","0","89736","","null","","","null","24","","","","","","","","","","","","","","","",""
"","ITI","","html-keyboard-response","155","178009","0.0-1.0-225.0","0","0","89736","","null","","","null","24","","","","","","","","","","","","","","","NaN",""
"","S1","","html-keyboard-response","156","178267","0.0-1.0-227.0","0","0","89736","","null","","","null","25","","","","","","","","","","","","","","","",""
"","ISI","","html-keyboard-response","157","178785","0.0-1.0-228.0","0","0","89736","","null","","","null","25","NaN","","","","","","","","","","","","","","",""
"","S2","","html-keyboard-response","158","179042","0.0-1.0-229.0","0","0","89736","","null","","","null","25","","NaN","","","","","","","","","","","","","",""
"","response","","html-keyboard-response","159","179111","0.0-1.0-230.0-0.0","0","0","89736","","64","","","68","25","","","1","25","training","adjacent","AB","1","2","P.jpg","M.jpg","1","1","1","",""
"","feedback","","html-keyboard-response","160","180124","0.0-1.0-231.0-0.0","0","0","89736","","null","","","null","25","","","","","","","","","","","","","","","",""
"","ITI","","html-keyboard-response","161","181135","0.0-1.0-234.0","0","0","89736","","null","","","null","25","","","","","","","","","","","","","","","NaN",""
"","S1","","html-keyboard-response","162","181395","0.0-1.0-236.0","0","0","89736","","null","","","null","26","","","","","","","","","","","","","","","",""
"","ISI","","html-keyboard-response","163","181902","0.0-1.0-237.0","0","0","89736","","null","","","null","26","NaN","","","","","","","","","","","","","","",""
"","S2","","html-keyboard-response","164","181954","0.0-1.0-238.0","0","0","89736","","47","","","68","26","","d","1","26","training","adjacent","BC","2","3","M.jpg","R.jpg","1","1","1","",""
"","feedback","","html-keyboard-response","165","182966","0.0-1.0-240.0-0.0","0","0","89736","","null","","","null","26","","","","","","","","","","","","","","","",""
"","ITI","","html-keyboard-response","166","183976","0.0-1.0-243.0","0","0","89736","","null","","","null","26","","","","","","","","","","","","","","","NaN",""
"","S1","","html-keyboard-response","167","184235","0.0-1.0-245.0","0","0","89736","","null","","","null","27","","","","","","","","","","","","","","","",""
"","ISI","","html-keyboard-response","168","184752","0.0-1.0-246.0","0","0","89736","","null","","","null","27","NaN","","","","","","","","","","","","","","",""
"","S2","","html-keyboard-response","169","185004","0.0-1.0-247.0","0","0","89736","","247","","","68","27","","d","1","27","training","adjacent","AB","1","2","P.jpg","M.jpg","1","1","1","",""
"","feedback","","html-keyboard-response","170","186012","0.0-1.0-249.0-0.0","0","0","89736","","null","","","null","27","","","","","","","","","","","","","","","",""
"","ITI","","html-keyboard-response","171","187025","0.0-1.0-252.0","0","0","89736","","null","","","null","27","","","","","","","","","","","","","","","NaN",""
"","S1","","html-keyboard-response","172","187282","0.0-1.0-254.0","0","0","89736","","null","","","null","28","","","","","","","","","","","","","","","",""
"","ISI","","html-keyboard-response","173","187794","0.0-1.0-255.0","0","0","89736","","null","","","null","28","NaN","","","","","","","","","","","","","","",""
"","S2","","html-keyboard-response","174","188053","0.0-1.0-256.0","0","0","89736","","null","","","null","28","","NaN","","","","","","","","","","","","","",""
"","response","","html-keyboard-response","175","188075","0.0-1.0-257.0-0.0","0","0","89736","","17","","","68","28","","","1","28","training","adjacent","GF","7","6","L.jpg","O.jpg","1","0","0","",""
"","feedback","","html-keyboard-response","176","189095","0.0-1.0-258.0-0.0","0","0","89736","","null","","","null","28","","","","","","","","","","","","","","","",""
"","time_out","","html-keyboard-response","177","191103","0.0-1.0-260.0-0.0","0","0","89736","","null","","","null","28","","","","","","","","","","","","","","","",""
"","ITI","","html-keyboard-response","178","192111","0.0-1.0-261.0","0","0","89736","","null","","","null","28","","","","","","","","","","","","","","","NaN",""
"","S1","","html-keyboard-response","179","192376","0.0-1.0-263.0","0","0","89736","","null","","","null","29","","","","","","","","","","","","","","","",""
"","ISI","","html-keyboard-response","180","192883","0.0-1.0-264.0","0","0","89736","","null","","","null","29","NaN","","","","","","","","","","","","","","",""
"","S2","","html-keyboard-response","181","193148","0.0-1.0-265.0","0","0","89736","","null","","","null","29","","NaN","","","","","","","","","","","","","",""
"","response","","html-keyboard-response","182","193247","0.0-1.0-266.0-0.0","0","0","89736","","93","","","68","29","","","1","29","training","adjacent","DC","4","3","N.jpg","R.jpg","1","0","0","",""
"","feedback","","html-keyboard-response","183","194261","0.0-1.0-267.0-0.0","0","0","89736","","null","","","null","29","","","","","","","","","","","","","","","",""
"","time_out","","html-keyboard-response","184","196269","0.0-1.0-269.0-0.0","0","0","89736","","null","","","null","29","","","","","","","","","","","","","","","",""
"","ITI","","html-keyboard-response","185","197281","0.0-1.0-270.0","0","0","89736","","null","","","null","29","","","","","","","","","","","","","","","NaN",""
"","S1","","html-keyboard-response","186","197546","0.0-1.0-272.0","0","0","89736","","null","","","null","30","","","","","","","","","","","","","","","",""
"","ISI","","html-keyboard-response","187","198055","0.0-1.0-273.0","0","0","89736","","null","","","null","30","NaN","","","","","","","","","","","","","","",""
"","S2","","html-keyboard-response","188","198127","0.0-1.0-274.0","0","0","89736","","67","","","68","30","","d","1","30","training","adjacent","ED","5","4","Q.jpg","N.jpg","1","0","0","",""
"","feedback","","html-keyboard-response","189","199135","0.0-1.0-276.0-0.0","0","0","89736","","null","","","null","30","","","","","","","","","","","","","","","",""
"","time_out","","html-keyboard-response","190","201147","0.0-1.0-278.0-0.0","0","0","89736","","null","","","null","30","","","","","","","","","","","","","","","",""
"","ITI","","html-keyboard-response","191","202156","0.0-1.0-279.0","0","0","89736","","null","","","null","30","","","","","","","","","","","","","","","NaN",""
"","S1","","html-keyboard-response","192","202421","0.0-1.0-281.0","0","0","89736","","null","","","null","31","","","","","","","","","","","","","","","",""
"","ISI","","html-keyboard-response","193","202935","0.0-1.0-282.0","0","0","89736","","null","","","null","31","NaN","","","","","","","","","","","","","","",""
"","S2","","html-keyboard-response","194","203192","0.0-1.0-283.0","0","0","89736","","null","","","null","31","","NaN","","","","","","","","","","","","","",""
"","response","","html-keyboard-response","195","203472","0.0-1.0-284.0-0.0","0","0","89736","","275","","","75","31","","","1","31","training","adjacent","EF","5","6","Q.jpg","O.jpg","0","1","0","",""
"","feedback","","html-keyboard-response","196","204483","0.0-1.0-285.0-0.0","0","0","89736","","null","","","null","31","","","","","","","","","","","","","","","",""
"","time_out","","html-keyboard-response","197","206496","0.0-1.0-287.0-0.0","0","0","89736","","null","","","null","31","","","","","","","","","","","","","","","",""
"","ITI","","html-keyboard-response","198","207507","0.0-1.0-288.0","0","0","89736","","null","","","null","31","","","","","","","","","","","","","","","NaN",""
"","S1","","html-keyboard-response","199","207772","0.0-1.0-290.0","0","0","89736","","null","","","null","32","","","","","","","","","","","","","","","",""
"","ISI","","html-keyboard-response","200","208282","0.0-1.0-291.0","0","0","89736","","null","","","null","32","NaN","","","","","","","","","","","","","","",""
"","S2","","html-keyboard-response","201","208541","0.0-1.0-292.0","0","0","89736","","null","","","null","32","","NaN","","","","","","","","","","","","","",""
"","response","","html-keyboard-response","202","208546","0.0-1.0-293.0-0.0","0","0","89736","","0","","","68","32","","","1","32","training","adjacent","AB","1","2","P.jpg","M.jpg","1","1","1","",""
"","feedback","","html-keyboard-response","203","209558","0.0-1.0-294.0-0.0","0","0","89736","","null","","","null","32","","","","","","","","","","","","","","","",""
"","ITI","","html-keyboard-response","204","210565","0.0-1.0-297.0","0","0","89736","","null","","","null","32","","","","","","","","","","","","","","","NaN",""
"","S1","","html-keyboard-response","205","210824","0.0-1.0-299.0","0","0","89736","","null","","","null","33","","","","","","","","","","","","","","","",""
"","ISI","","html-keyboard-response","206","211335","0.0-1.0-300.0","0","0","89736","","null","","","null","33","NaN","","","","","","","","","","","","","","",""
"","S2","","html-keyboard-response","207","211579","0.0-1.0-301.0","0","0","89736","","238","","","68","33","","d","1","33","training","adjacent","DE","4","5","N.jpg","Q.jpg","1","1","1","",""
"","feedback","","html-keyboard-response","208","212591","0.0-1.0-303.0-0.0","0","0","89736","","null","","","null","33","","","","","","","","","","","","","","","",""
"","ITI","","html-keyboard-response","209","213605","0.0-1.0-306.0","0","0","89736","","null","","","null","33","","","","","","","","","","","","","","","NaN",""
"","S1","","html-keyboard-response","210","213869","0.0-1.0-308.0","0","0","89736","","null","","","null","34","","","","","","","","","","","","","","","",""
"","ISI","","html-keyboard-response","211","214381","0.0-1.0-309.0","0","0","89736","","null","","","null","34","NaN","","","","","","","","","","","","","","",""
"","S2","","html-keyboard-response","212","214642","0.0-1.0-310.0","0","0","89736","","null","","","null","34","","NaN","","","","","","","","","","","","","",""
"","response","","html-keyboard-response","213","214923","0.0-1.0-311.0-0.0","0","0","89736","","276","","","68","34","","","1","34","training","adjacent","EF","5","6","Q.jpg","O.jpg","1","1","1","",""
"","feedback","","html-keyboard-response","214","215932","0.0-1.0-312.0-0.0","0","0","89736","","null","","","null","34","","","","","","","","","","","","","","","",""
"","ITI","","html-keyboard-response","215","216949","0.0-1.0-315.0","0","0","89736","","null","","","null","34","","","","","","","","","","","","","","","NaN",""
"","S1","","html-keyboard-response","216","217207","0.0-1.0-317.0","0","0","89736","","null","","","null","35","","","","","","","","","","","","","","","",""
"","ISI","","html-keyboard-response","217","217718","0.0-1.0-318.0","0","0","89736","","null","","","null","35","NaN","","","","","","","","","","","","","","",""
"","S2","","html-keyboard-response","218","217978","0.0-1.0-319.0","0","0","89736","","null","","","null","35","","NaN","","","","","","","","","","","","","",""
"","response","","html-keyboard-response","219","217996","0.0-1.0-320.0-0.0","0","0","89736","","13","","","68","35","","","1","35","training","adjacent","GF","7","6","L.jpg","O.jpg","1","0","0","",""
"","feedback","","html-keyboard-response","220","219012","0.0-1.0-321.0-0.0","0","0","89736","","null","","","null","35","","","","","","","","","","","","","","","",""
"","time_out","","html-keyboard-response","221","221025","0.0-1.0-323.0-0.0","0","0","89736","","null","","","null","35","","","","","","","","","","","","","","","",""
"","ITI","","html-keyboard-response","222","222031","0.0-1.0-324.0","0","0","89736","","null","","","null","35","","","","","","","","","","","","","","","NaN",""
"","S1","","html-keyboard-response","223","222287","0.0-1.0-326.0","0","0","89736","","null","","","null","36","","","","","","","","","","","","","","","",""
"","ISI","","html-keyboard-response","224","222797","0.0-1.0-327.0","0","0","89736","","null","","","null","36","NaN","","","","","","","","","","","","","","",""
"","S2","","html-keyboard-response","225","223040","0.0-1.0-328.0","0","0","89736","","238","","","68","36","","d","1","36","training","adjacent","BA","2","1","M.jpg","P.jpg","1","0","0","",""
"","feedback","","html-keyboard-response","226","224050","0.0-1.0-330.0-0.0","0","0","89736","","null","","","null","36","","","","","","","","","","","","","","","",""
"","time_out","","html-keyboard-response","227","226056","0.0-1.0-332.0-0.0","0","0","89736","","null","","","null","36","","","","","","","","","","","","","","","",""
"","ITI","","html-keyboard-response","228","227067","0.0-1.0-333.0","0","0","89736","","null","","","null","36","","","","","","","","","","","","","","","NaN",""
"","S1","","html-keyboard-response","229","227325","0.0-1.0-335.0","0","0","89736","","null","","","null","37","","","","","","","","","","","","","","","",""
"","ISI","","html-keyboard-response","230","227836","0.0-1.0-336.0","0","0","89736","","null","","","null","37","NaN","","","","","","","","","","","","","","",""
"","S2","","html-keyboard-response","231","228096","0.0-1.0-337.0","0","0","89736","","null","","","null","37","","NaN","","","","","","","","","","","","","",""
"","response","","html-keyboard-response","232","228160","0.0-1.0-338.0-0.0","0","0","89736","","59","","","68","37","","","1","37","training","adjacent","CB","3","2","R.jpg","M.jpg","1","0","0","",""
"","feedback","","html-keyboard-response","233","229173","0.0-1.0-339.0-0.0","0","0","89736","","null","","","null","37","","","","","","","","","","","","","","","",""
"","time_out","","html-keyboard-response","234","231184","0.0-1.0-341.0-0.0","0","0","89736","","null","","","null","37","","","","","","","","","","","","","","","",""
"","ITI","","html-keyboard-response","235","232195","0.0-1.0-342.0","0","0","89736","","null","","","null","37","","","","","","","","","","","","","","","NaN",""
"","S1","","html-keyboard-response","236","232451","0.0-1.0-344.0","0","0","89736","","null","","","null","38","","","","","","","","","","","","","","","",""
"","ISI","","html-keyboard-response","237","232962","0.0-1.0-345.0","0","0","89736","","null","","","null","38","NaN","","","","","","","","","","","","","","",""
"","S2","","html-keyboard-response","238","233214","0.0-1.0-346.0","0","0","89736","","246","","","75","38","","k","1","38","training","adjacent","BA","2","1","M.jpg","P.jpg","0","0","1","",""
"","feedback","","html-keyboard-response","239","234223","0.0-1.0-348.0-0.0","0","0","89736","","null","","","null","38","","","","","","","","","","","","","","","",""
"","ITI","","html-keyboard-response","240","235231","0.0-1.0-351.0","0","0","89736","","null","","","null","38","","","","","","","","","","","","","","","NaN",""
"","S1","","html-keyboard-response","241","235489","0.0-1.0-353.0","0","0","89736","","null","","","null","39","","","","","","","","","","","","","","","",""
"","ISI","","html-keyboard-response","242","235996","0.0-1.0-354.0","0","0","89736","","null","","","null","39","NaN","","","","","","","","","","","","","","",""
"","S2","","html-keyboard-response","243","236261","0.0-1.0-355.0","0","0","89736","","null","","","null","39","","NaN","","","","","","","","","","","","","",""
"","response","","html-keyboard-response","244","236565","0.0-1.0-356.0-0.0","0","0","89736","","299","","","68","39","","","1","39","training","adjacent","DC","4","3","N.jpg","R.jpg","1","0","0","",""
"","feedback","","html-keyboard-response","245","237574","0.0-1.0-357.0-0.0","0","0","89736","","null","","","null","39","","","","","","","","","","","","","","","",""
"","time_out","","html-keyboard-response","246","239585","0.0-1.0-359.0-0.0","0","0","89736","","null","","","null","39","","","","","","","","","","","","","","","",""
"","ITI","","html-keyboard-response","247","240592","0.0-1.0-360.0","0","0","89736","","448","","","75","39","","","","","","","","","","","","","","","k",""
"","S1","","html-keyboard-response","248","240849","0.0-1.0-362.0","0","0","89736","","null","","","null","40","","","","","","","","","","","","","","","",""
"","ISI","","html-keyboard-response","249","241358","0.0-1.0-363.0","0","0","89736","","65","","","68","40","d","","","","","","","","","","","","","","",""
"","S2","","html-keyboard-response","250","241525","0.0-1.0-364.0","0","0","89736","","162","","","75","40","","k","1","40","training","adjacent","DE","4","5","N.jpg","Q.jpg","0","1","0","",""
"","feedback","","html-keyboard-response","251","242540","0.0-1.0-366.0-0.0","0","0","89736","","null","","","null","40","","","","","","","","","","","","","","","",""
"","time_out","","html-keyboard-response","252","244548","0.0-1.0-368.0-0.0","0","0","89736","","null","","","null","40","","","","","","","","","","","","","","","",""
"","ITI","","html-keyboard-response","253","245555","0.0-1.0-369.0","0","0","89736","","220","","","75","40","","","","","","","","","","","","","","","k",""
"","S1","","html-keyboard-response","254","245813","0.0-1.0-371.0","0","0","89736","","null","","","null","41","","","","","","","","","","","","","","","",""
"","ISI","","html-keyboard-response","255","246319","0.0-1.0-372.0","0","0","89736","","null","","","null","41","NaN","","","","","","","","","","","","","","",""
"","S2","","html-keyboard-response","256","246454","0.0-1.0-373.0","0","0","89736","","129","","","75","41","","k","1","41","training","adjacent","BC","2","3","M.jpg","R.jpg","0","1","0","",""
"","feedback","","html-keyboard-response","257","247468","0.0-1.0-375.0-0.0","0","0","89736","","null","","","null","41","","","","","","","","","","","","","","","",""
"","time_out","","html-keyboard-response","258","249482","0.0-1.0-377.0-0.0","0","0","89736","","null","","","null","41","","","","","","","","","","","","","","","",""
"","ITI","","html-keyboard-response","259","250495","0.0-1.0-378.0","0","0","89736","","null","","","null","41","","","","","","","","","","","","","","","NaN",""
"","S1","","html-keyboard-response","260","250753","0.0-1.0-380.0","0","0","89736","","null","","","null","42","","","","","","","","","","","","","","","",""
"","ISI","","html-keyboard-response","261","251263","0.0-1.0-381.0","0","0","89736","","null","","","null","42","NaN","","","","","","","","","","","","","","",""
"","S2","","html-keyboard-response","262","251408","0.0-1.0-382.0","0","0","89736","","139","","","68","42","","d","1","42","training","adjacent","CD","3","4","R.jpg","N.jpg","1","1","1","",""
"","feedback","","html-keyboard-response","263","252422","0.0-1.0-384.0-0.0","0","0","89736","","null","","","null","42","","","","","","","","","","","","","","","",""
"","ITI","","html-keyboard-response","264","253439","0.0-1.0-387.0","0","0","89736","","null","","","null","42","","","","","","","","","","","","","","","NaN",""
"","S1","","html-keyboard-response","265","253696","0.0-1.0-389.0","0","0","89736","","null","","","null","43","","","","","","","","","","","","","","","",""
"","ISI","","html-keyboard-response","266","254206","0.0-1.0-390.0","0","0","89736","","null","","","null","43","NaN","","","","","","","","","","","","","","",""
"","S2","","html-keyboard-response","267","254456","0.0-1.0-391.0","0","0","89736","","244","","","75","43","","k","1","43","training","adjacent","DC","4","3","N.jpg","R.jpg","0","0","1","",""
"","feedback","","html-keyboard-response","268","255477","0.0-1.0-393.0-0.0","0","0","89736","","null","","","null","43","","","","","","","","","","","","","","","",""
"","ITI","","html-keyboard-response","269","256487","0.0-1.0-396.0","0","0","89736","","null","","","null","43","","","","","","","","","","","","","","","NaN",""
"","S1","","html-keyboard-response","270","256748","0.0-1.0-398.0","0","0","89736","","null","","","null","44","","","","","","","","","","","","","","","",""
"","ISI","","html-keyboard-response","271","257262","0.0-1.0-399.0","0","0","89736","","null","","","null","44","NaN","","","","","","","","","","","","","","",""
"","S2","","html-keyboard-response","272","257482","0.0-1.0-400.0","0","0","89736","","214","","","75","44","","k","1","44","training","adjacent","AB","1","2","P.jpg","M.jpg","0","1","0","",""
"","feedback","","html-keyboard-response","273","258504","0.0-1.0-402.0-0.0","0","0","89736","","null","","","null","44","","","","","","","","","","","","","","","",""
"","time_out","","html-keyboard-response","274","260514","0.0-1.0-404.0-0.0","0","0","89736","","null","","","null","44","","","","","","","","","","","","","","","",""
"","ITI","","html-keyboard-response","275","261523","0.0-1.0-405.0","0","0","89736","","null","","","null","44","","","","","","","","","","","","","","","NaN",""
"","S1","","html-keyboard-response","276","261780","0.0-1.0-407.0","0","0","89736","","null","","","null","45","","","","","","","","","","","","","","","",""
"","ISI","","html-keyboard-response","277","262291","0.0-1.0-408.0","0","0","89736","","0","","","75","45","k","","","","","","","","","","","","","","",""
"","S2","","html-keyboard-response","278","262367","0.0-1.0-409.0","0","0","89736","","71","","","75","45","","k","1","45","training","adjacent","BA","2","1","M.jpg","P.jpg","0","0","1","",""
"","feedback","","html-keyboard-response","279","263380","0.0-1.0-411.0-0.0","0","0","89736","","null","","","null","45","","","","","","","","","","","","","","","",""
"","ITI","","html-keyboard-response","280","264397","0.0-1.0-414.0","0","0","89736","","null","","","null","45","","","","","","","","","","","","","","","NaN",""
"","S1","","html-keyboard-response","281","264662","0.0-1.0-416.0","0","0","89736","","null","","","null","46","","","","","","","","","","","","","","","",""
"","ISI","","html-keyboard-response","282","265169","0.0-1.0-417.0","0","0","89736","","null","","","null","46","NaN","","","","","","","","","","","","","","",""
"","S2","","html-keyboard-response","283","265429","0.0-1.0-418.0","0","0","89736","","null","","","null","46","","NaN","","","","","","","","","","","","","",""
"","response","","html-keyboard-response","284","265616","0.0-1.0-419.0-0.0","0","0","89736","","182","","","75","46","","","1","46","training","adjacent","FE","6","5","O.jpg","Q.jpg","0","0","1","",""
"","feedback","","html-keyboard-response","285","266623","0.0-1.0-420.0-0.0","0","0","89736","","null","","","null","46","","","","","","","","","","","","","","","",""
"","ITI","","html-keyboard-response","286","267636","0.0-1.0-423.0","0","0","89736","","null","","","null","46","","","","","","","","","","","","","","","NaN",""
"","S1","","html-keyboard-response","287","267899","0.0-1.0-425.0","0","0","89736","","null","","","null","47","","","","","","","","","","","","","","","",""
"","ISI","","html-keyboard-response","288","268412","0.0-1.0-426.0","0","0","89736","","null","","","null","47","NaN","","","","","","","","","","","","","","",""
"","S2","","html-keyboard-response","289","268675","0.0-1.0-427.0","0","0","89736","","null","","","null","47","","NaN","","","","","","","","","","","","","",""
"","response","","html-keyboard-response","290","269293","0.0-1.0-428.0-0.0","0","0","89736","","612","","","75","47","","","1","47","training","adjacent","FG","6","7","O.jpg","L.jpg","0","1","0","",""
"","feedback","","html-keyboard-response","291","270313","0.0-1.0-429.0-0.0","0","0","89736","","null","","","null","47","","","","","","","","","","","","","","","",""
"","time_out","","html-keyboard-response","292","272321","0.0-1.0-431.0-0.0","0","0","89736","","null","","","null","47","","","","","","","","","","","","","","","",""
"","ITI","","html-keyboard-response","293","273332","0.0-1.0-432.0","0","0","89736","","null","","","null","47","","","","","","","","","","","","","","","NaN",""
"","block_over","","html-keyboard-response","294","279888","0.0-1.0-433.0-0.0","0","0","89736","","6549","","","32","47","","","","","","","","","","","","","","","",""
"","S1","","html-keyboard-response","295","280146","0.0-1.0-434.0","0","0","89736","","null","","","null","48","","","","","","","","","","","","","","","",""
"","ISI","","html-keyboard-response","296","280657","0.0-1.0-435.0","0","0","89736","","null","","","null","48","NaN","","","","","","","","","","","","","","",""
"","S2","","html-keyboard-response","297","280913","0.0-1.0-436.0","0","0","89736","","null","","","null","48","","NaN","","","","","","","","","","","","","",""
"","response","","html-keyboard-response","298","280980","0.0-1.0-437.0-0.0","0","0","89736","","59","","","68","48","","","2","48","training","adjacent","ED","5","4","Q.jpg","N.jpg","1","0","0","",""
"","feedback","","html-keyboard-response","299","281990","0.0-1.0-438.0-0.0","0","0","89736","","null","","","null","48","","","","","","","","","","","","","","","",""
"","time_out","","html-keyboard-response","300","284001","0.0-1.0-440.0-0.0","0","0","89736","","null","","","null","48","","","","","","","","","","","","","","","",""
"","ITI","","html-keyboard-response","301","285011","0.0-1.0-441.0","0","0","89736","","null","","","null","48","","","","","","","","","","","","","","","NaN",""
"","S1","","html-keyboard-response","302","285269","0.0-1.0-443.0","0","0","89736","","null","","","null","49","","","","","","","","","","","","","","","",""
"","ISI","","html-keyboard-response","303","285783","0.0-1.0-444.0","0","0","89736","","null","","","null","49","NaN","","","","","","","","","","","","","","",""
"","S2","","html-keyboard-response","304","286040","0.0-1.0-445.0","0","0","89736","","null","","","null","49","","NaN","","","","","","","","","","","","","",""
"","response","","html-keyboard-response","305","286127","0.0-1.0-446.0-0.0","0","0","89736","","81","","","75","49","","","2","49","training","adjacent","AB","1","2","P.jpg","M.jpg","0","1","0","",""
"","feedback","","html-keyboard-response","306","287134","0.0-1.0-447.0-0.0","0","0","89736","","null","","","null","49","","","","","","","","","","","","","","","",""
"","time_out","","html-keyboard-response","307","289141","0.0-1.0-449.0-0.0","0","0","89736","","null","","","null","49","","","","","","","","","","","","","","","",""
"","ITI","","html-keyboard-response","308","290151","0.0-1.0-450.0","0","0","89736","","null","","","null","49","","","","","","","","","","","","","","","NaN",""
"","S1","","html-keyboard-response","309","290413","0.0-1.0-452.0","0","0","89736","","null","","","null","50","","","","","","","","","","","","","","","",""
"","ISI","","html-keyboard-response","310","290921","0.0-1.0-453.0","0","0","89736","","null","","","null","50","NaN","","","","","","","","","","","","","","",""
"","S2","","html-keyboard-response","311","290942","0.0-1.0-454.0","0","0","89736","","16","","","68","50","","d","2","50","training","adjacent","CD","3","4","R.jpg","N.jpg","1","1","1","",""
"","feedback","","html-keyboard-response","312","291954","0.0-1.0-456.0-0.0","0","0","89736","","null","","","null","50","","","","","","","","","","","","","","","",""
"","ITI","","html-keyboard-response","313","292965","0.0-1.0-459.0","0","0","89736","","null","","","null","50","","","","","","","","","","","","","","","NaN",""
"","S1","","html-keyboard-response","314","293224","0.0-1.0-461.0","0","0","89736","","null","","","null","51","","","","","","","","","","","","","","","",""
"","ISI","","html-keyboard-response","315","293732","0.0-1.0-462.0","0","0","89736","","null","","","null","51","NaN","","","","","","","","","","","","","","",""
"","S2","","html-keyboard-response","316","293992","0.0-1.0-463.0","0","0","89736","","null","","","null","51","","NaN","","","","","","","","","","","","","",""
"","response","","html-keyboard-response","317","294017","0.0-1.0-464.0-0.0","0","0","89736","","15","","","75","51","","","2","51","training","adjacent","CB","3","2","R.jpg","M.jpg","0","0","1","",""
"","feedback","","html-keyboard-response","318","295036","0.0-1.0-465.0-0.0","0","0","89736","","null","","","null","51","","","","","","","","","","","","","","","",""
"","ITI","","html-keyboard-response","319","296042","0.0-1.0-468.0","0","0","89736","","null","","","null","51","","","","","","","","","","","","","","","NaN",""
"","S1","","html-keyboard-response","320","296299","0.0-1.0-470.0","0","0","89736","","null","","","null","52","","","","","","","","","","","","","","","",""
"","ISI","","html-keyboard-response","321","296807","0.0-1.0-471.0","0","0","89736","","null","","","null","52","NaN","","","","","","","","","","","","","","",""
"","S2","","html-keyboard-response","322","296916","0.0-1.0-472.0","0","0","89736","","104","","","75","52","","k","2","52","training","adjacent","BA","2","1","M.jpg","P.jpg","0","0","1","",""
"","feedback","","html-keyboard-response","323","297933","0.0-1.0-474.0-0.0","0","0","89736","","null","","","null","52","","","","","","","","","","","","","","","",""
"","ITI","","html-keyboard-response","324","298943","0.0-1.0-477.0","0","0","89736","","null","","","null","52","","","","","","","","","","","","","","","NaN",""
"","S1","","html-keyboard-response","325","299207","0.0-1.0-479.0","0","0","89736","","null","","","null","53","","","","","","","","","","","","","","","",""
"","ISI","","html-keyboard-response","326","299718","0.0-1.0-480.0","0","0","89736","","null","","","null","53","NaN","","","","","","","","","","","","","","",""
"","S2","","html-keyboard-response","327","299941","0.0-1.0-481.0","0","0","89736","","217","","","68","53","","d","2","53","training","adjacent","DC","4","3","N.jpg","R.jpg","1","0","0","",""
"","feedback","","html-keyboard-response","328","300951","0.0-1.0-483.0-0.0","0","0","89736","","null","","","null","53","","","","","","","","","","","","","","","",""
"","time_out","","html-keyboard-response","329","302966","0.0-1.0-485.0-0.0","0","0","89736","","null","","","null","53","","","","","","","","","","","","","","","",""
"","ITI","","html-keyboard-response","330","303986","0.0-1.0-486.0","0","0","89736","","null","","","null","53","","","","","","","","","","","","","","","NaN",""
"","S1","","html-keyboard-response","331","304246","0.0-1.0-488.0","0","0","89736","","null","","","null","54","","","","","","","","","","","","","","","",""
"","ISI","","html-keyboard-response","332","304756","0.0-1.0-489.0","0","0","89736","","null","","","null","54","NaN","","","","","","","","","","","","","","",""
"","S2","","html-keyboard-response","333","305013","0.0-1.0-490.0","0","0","89736","","null","","","null","54","","NaN","","","","","","","","","","","","","",""
"","response","","html-keyboard-response","334","305108","0.0-1.0-491.0-0.0","0","0","89736","","89","","","68","54","","","2","54","training","adjacent","GF","7","6","L.jpg","O.jpg","1","0","0","",""
"","feedback","","html-keyboard-response","335","306116","0.0-1.0-492.0-0.0","0","0","89736","","null","","","null","54","","","","","","","","","","","","","","","",""
"","time_out","","html-keyboard-response","336","308124","0.0-1.0-494.0-0.0","0","0","89736","","null","","","null","54","","","","","","","","","","","","","","","",""
"","ITI","","html-keyboard-response","337","309132","0.0-1.0-495.0","0","0","89736","","null","","","null","54","","","","","","","","","","","","","","","NaN",""
"","S1","","html-keyboard-response","338","309391","0.0-1.0-497.0","0","0","89736","","null","","","null","55","","","","","","","","","","","","","","","",""
"","ISI","","html-keyboard-response","339","309901","0.0-1.0-498.0","0","0","89736","","3","","","75","55","k","","","","","","","","","","","","","","",""
"","S2","","html-keyboard-response","340","310163","0.0-1.0-499.0","0","0","89736","","null","","","null","55","","NaN","","","","","","","","","","","","","",""
"","response","","html-keyboard-response","341","310329","0.0-1.0-500.0-0.0","0","0","89736","","161","","","75","55","","","2","55","training","adjacent","BC","2","3","M.jpg","R.jpg","0","1","0","",""
"","feedback","","html-keyboard-response","342","311341","0.0-1.0-501.0-0.0","0","0","89736","","null","","","null","55","","","","","","","","","","","","","","","",""
"","time_out","","html-keyboard-response","343","313353","0.0-1.0-503.0-0.0","0","0","89736","","null","","","null","55","","","","","","","","","","","","","","","",""
"","ITI","","html-keyboard-response","344","314362","0.0-1.0-504.0","0","0","89736","","null","","","null","55","","","","","","","","","","","","","","","NaN",""
"","S1","","html-keyboard-response","345","314620","0.0-1.0-506.0","0","0","89736","","null","","","null","56","","","","","","","","","","","","","","","",""
"","ISI","","html-keyboard-response","346","315129","0.0-1.0-507.0","0","0","89736","","null","","","null","56","NaN","","","","","","","","","","","","","","",""
"","S2","","html-keyboard-response","347","315387","0.0-1.0-508.0","0","0","89736","","253","","","68","56","","d","2","56","training","adjacent","CD","3","4","R.jpg","N.jpg","1","1","1","",""
"","feedback","","html-keyboard-response","348","316395","0.0-1.0-510.0-0.0","0","0","89736","","null","","","null","56","","","","","","","","","","","","","","","",""
"","ITI","","html-keyboard-response","349","317404","0.0-1.0-513.0","0","0","89736","","null","","","null","56","","","","","","","","","","","","","","","NaN",""
"","S1","","html-keyboard-response","350","317662","0.0-1.0-515.0","0","0","89736","","null","","","null","57","","","","","","","","","","","","","","","",""
"","ISI","","html-keyboard-response","351","318170","0.0-1.0-516.0","0","0","89736","","null","","","null","57","NaN","","","","","","","","","","","","","","",""
"","S2","","html-keyboard-response","352","318430","0.0-1.0-517.0","0","0","89736","","null","","","null","57","","NaN","","","","","","","","","","","","","",""
"","response","","html-keyboard-response","353","318473","0.0-1.0-518.0-0.0","0","0","89736","","38","","","75","57","","","2","57","training","adjacent","ED","5","4","Q.jpg","N.jpg","0","0","1","",""
"","feedback","","html-keyboard-response","354","319481","0.0-1.0-519.0-0.0","0","0","89736","","null","","","null","57","","","","","","","","","","","","","","","",""
"","ITI","","html-keyboard-response","355","320489","0.0-1.0-522.0","0","0","89736","","null","","","null","57","","","","","","","","","","","","","","","NaN",""
"","S1","","html-keyboard-response","356","320745","0.0-1.0-524.0","0","0","89736","","null","","","null","58","","","","","","","","","","","","","","","",""
"","ISI","","html-keyboard-response","357","321257","0.0-1.0-525.0","0","0","89736","","null","","","null","58","NaN","","","","","","","","","","","","","","",""
"","S2","","html-keyboard-response","358","321514","0.0-1.0-526.0","0","0","89736","","null","","","null","58","","NaN","","","","","","","","","","","","","",""
"","response","","html-keyboard-response","359","321727","0.0-1.0-527.0-0.0","0","0","89736","","207","","","68","58","","","2","58","training","adjacent","ED","5","4","Q.jpg","N.jpg","1","0","0","",""
"","feedback","","html-keyboard-response","360","322735","0.0-1.0-528.0-0.0","0","0","89736","","null","","","null","58","","","","","","","","","","","","","","","",""
"","time_out","","html-keyboard-response","361","324741","0.0-1.0-530.0-0.0","0","0","89736","","null","","","null","58","","","","","","","","","","","","","","","",""
"","ITI","","html-keyboard-response","362","325760","0.0-1.0-531.0","0","0","89736","","null","","","null","58","","","","","","","","","","","","","","","NaN",""
"","S1","","html-keyboard-response","363","326016","0.0-1.0-533.0","0","0","89736","","null","","","null","59","","","","","","","","","","","","","","","",""
"","ISI","","html-keyboard-response","364","326526","0.0-1.0-534.0","0","0","89736","","null","","","null","59","NaN","","","","","","","","","","","","","","",""
"","S2","","html-keyboard-response","365","326783","0.0-1.0-535.0","0","0","89736","","null","","","null","59","","NaN","","","","","","","","","","","","","",""
"","response","","html-keyboard-response","366","326946","0.0-1.0-536.0-0.0","0","0","89736","","158","","","68","59","","","2","59","training","adjacent","GF","7","6","L.jpg","O.jpg","1","0","0","",""
"","feedback","","html-keyboard-response","367","327961","0.0-1.0-537.0-0.0","0","0","89736","","null","","","null","59","","","","","","","","","","","","","","","",""
"","time_out","","html-keyboard-response","368","329973","0.0-1.0-539.0-0.0","0","0","89736","","null","","","null","59","","","","","","","","","","","","","","","",""
"","ITI","","html-keyboard-response","369","330978","0.0-1.0-540.0","0","0","89736","","null","","","null","59","","","","","","","","","","","","","","","NaN",""
"","S1","","html-keyboard-response","370","331239","0.0-1.0-542.0","0","0","89736","","null","","","null","60","","","","","","","","","","","","","","","",""
"","ISI","","html-keyboard-response","371","331746","0.0-1.0-543.0","0","0","89736","","null","","","null","60","NaN","","","","","","","","","","","","","","",""
"","S2","","html-keyboard-response","372","332004","0.0-1.0-544.0","0","0","89736","","null","","","null","60","","NaN","","","","","","","","","","","","","",""
"","response","","html-keyboard-response","373","332036","0.0-1.0-545.0-0.0","0","0","89736","","27","","","75","60","","","2","60","training","adjacent","AB","1","2","P.jpg","M.jpg","0","1","0","",""
"","feedback","","html-keyboard-response","374","333052","0.0-1.0-546.0-0.0","0","0","89736","","null","","","null","60","","","","","","","","","","","","","","","",""
"","time_out","","html-keyboard-response","375","335066","0.0-1.0-548.0-0.0","0","0","89736","","null","","","null","60","","","","","","","","","","","","","","","",""
"","ITI","","html-keyboard-response","376","336076","0.0-1.0-549.0","0","0","89736","","null","","","null","60","","","","","","","","","","","","","","","NaN",""
"","S1","","html-keyboard-response","377","336334","0.0-1.0-551.0","0","0","89736","","null","","","null","61","","","","","","","","","","","","","","","",""
"","ISI","","html-keyboard-response","378","336839","0.0-1.0-552.0","0","0","89736","","null","","","null","61","NaN","","","","","","","","","","","","","","",""
"","S2","","html-keyboard-response","379","337098","0.0-1.0-553.0","0","0","89736","","null","","","null","61","","NaN","","","","","","","","","","","","","",""
"","response","","html-keyboard-response","380","337185","0.0-1.0-554.0-0.0","0","0","89736","","82","","","75","61","","","2","61","training","adjacent","BC","2","3","M.jpg","R.jpg","0","1","0","",""
"","feedback","","html-keyboard-response","381","338195","0.0-1.0-555.0-0.0","0","0","89736","","null","","","null","61","","","","","","","","","","","","","","","",""
"","time_out","","html-keyboard-response","382","340204","0.0-1.0-557.0-0.0","0","0","89736","","null","","","null","61","","","","","","","","","","","","","","","",""
"","ITI","","html-keyboard-response","383","341214","0.0-1.0-558.0","0","0","89736","","null","","","null","61","","","","","","","","","","","","","","","NaN",""
"","S1","","html-keyboard-response","384","341472","0.0-1.0-560.0","0","0","89736","","null","","","null","62","","","","","","","","","","","","","","","",""
"","ISI","","html-keyboard-response","385","341984","0.0-1.0-561.0","0","0","89736","","null","","","null","62","NaN","","","","","","","","","","","","","","",""
"","S2","","html-keyboard-response","386","342067","0.0-1.0-562.0","0","0","89736","","77","","","68","62","","d","2","62","training","adjacent","EF","5","6","Q.jpg","O.jpg","1","1","1","",""
"","feedback","","html-keyboard-response","387","343081","0.0-1.0-564.0-0.0","0","0","89736","","null","","","null","62","","","","","","","","","","","","","","","",""
"","ITI","","html-keyboard-response","388","344088","0.0-1.0-567.0","0","0","89736","","null","","","null","62","","","","","","","","","","","","","","","NaN",""
"","S1","","html-keyboard-response","389","344345","0.0-1.0-569.0","0","0","89736","","null","","","null","63","","","","","","","","","","","","","","","",""
"","ISI","","html-keyboard-response","390","344857","0.0-1.0-570.0","0","0","89736","","null","","","null","63","NaN","","","","","","","","","","","","","","",""
"","S2","","html-keyboard-response","391","344910","0.0-1.0-571.0","0","0","89736","","48","","","75","63","","k","2","63","training","adjacent","EF","5","6","Q.jpg","O.jpg","0","1","0","",""
"","feedback","","html-keyboard-response","392","345917","0.0-1.0-573.0-0.0","0","0","89736","","null","","","null","63","","","","","","","","","","","","","","","",""
"","time_out","","html-keyboard-response","393","347930","0.0-1.0-575.0-0.0","0","0","89736","","null","","","null","63","","","","","","","","","","","","","","","",""
"","ITI","","html-keyboard-response","394","348935","0.0-1.0-576.0","0","0","89736","","null","","","null","63","","","","","","","","","","","","","","","NaN",""
"","S1","","html-keyboard-response","395","349193","0.0-1.0-578.0","0","0","89736","","null","","","null","64","","","","","","","","","","","","","","","",""
"","ISI","","html-keyboard-response","396","349704","0.0-1.0-579.0","0","0","89736","","null","","","null","64","NaN","","","","","","","","","","","","","","",""
"","S2","","html-keyboard-response","397","349962","0.0-1.0-580.0","0","0","89736","","null","","","null","64","","NaN","","","","","","","","","","","","","",""
"","response","","html-keyboard-response","398","349999","0.0-1.0-581.0-0.0","0","0","89736","","28","","","68","64","","","2","64","training","adjacent","FE","6","5","O.jpg","Q.jpg","1","0","0","",""
"","feedback","","html-keyboard-response","399","351009","0.0-1.0-582.0-0.0","0","0","89736","","null","","","null","64","","","","","","","","","","","","","","","",""
"","time_out","","html-keyboard-response","400","353017","0.0-1.0-584.0-0.0","0","0","89736","","null","","","null","64","","","","","","","","","","","","","","","",""
"","ITI","","html-keyboard-response","401","354031","0.0-1.0-585.0","0","0","89736","","null","","","null","64","","","","","","","","","","","","","","","NaN",""
"","S1","","html-keyboard-response","402","354290","0.0-1.0-587.0","0","0","89736","","null","","","null","65","","","","","","","","","","","","","","","",""
"","ISI","","html-keyboard-response","403","354801","0.0-1.0-588.0","0","0","89736","","null","","","null","65","NaN","","","","","","","","","","","","","","",""
"","S2","","html-keyboard-response","404","355040","0.0-1.0-589.0","0","0","89736","","232","","","68","65","","d","2","65","training","adjacent","EF","5","6","Q.jpg","O.jpg","1","1","1","",""
"","feedback","","html-keyboard-response","405","356062","0.0-1.0-591.0-0.0","0","0","89736","","null","","","null","65","","","","","","","","","","","","","","","",""
"","ITI","","html-keyboard-response","406","357085","0.0-1.0-594.0","0","0","89736","","null","","","null","65","","","","","","","","","","","","","","","NaN",""
"","S1","","html-keyboard-response","407","357346","0.0-1.0-596.0","0","0","89736","","null","","","null","66","","","","","","","","","","","","","","","",""
"","ISI","","html-keyboard-response","408","357858","0.0-1.0-597.0","0","0","89736","","null","","","null","66","NaN","","","","","","","","","","","","","","",""
"","S2","","html-keyboard-response","409","358121","0.0-1.0-598.0","0","0","89736","","null","","","null","66","","NaN","","","","","","","","","","","","","",""
"","response","","html-keyboard-response","410","358214","0.0-1.0-599.0-0.0","0","0","89736","","88","","","68","66","","","2","66","training","adjacent","CB","3","2","R.jpg","M.jpg","1","0","0","",""
"","feedback","","html-keyboard-response","411","359222","0.0-1.0-600.0-0.0","0","0","89736","","null","","","null","66","","","","","","","","","","","","","","","",""
"","time_out","","html-keyboard-response","412","361229","0.0-1.0-602.0-0.0","0","0","89736","","null","","","null","66","","","","","","","","","","","","","","","",""
"","ITI","","html-keyboard-response","413","362238","0.0-1.0-603.0","0","0","89736","","null","","","null","66","","","","","","","","","","","","","","","NaN",""
"","S1","","html-keyboard-response","414","362497","0.0-1.0-605.0","0","0","89736","","null","","","null","67","","","","","","","","","","","","","","","",""
"","ISI","","html-keyboard-response","415","363006","0.0-1.0-606.0","0","0","89736","","380","","","68","67","d","","","","","","","","","","","","","","",""
"","S2","","html-keyboard-response","416","363268","0.0-1.0-607.0","0","0","89736","","null","","","null","67","","NaN","","","","","","","","","","","","","",""
"","response","","html-keyboard-response","417","363539","0.0-1.0-608.0-0.0","0","0","89736","","265","","","68","67","","","2","67","training","adjacent","FE","6","5","O.jpg","Q.jpg","1","0","0","",""
"","feedback","","html-keyboard-response","418","364549","0.0-1.0-609.0-0.0","0","0","89736","","null","","","null","67","","","","","","","","","","","","","","","",""
"","time_out","","html-keyboard-response","419","366561","0.0-1.0-611.0-0.0","0","0","89736","","null","","","null","67","","","","","","","","","","","","","","","",""
"","ITI","","html-keyboard-response","420","367575","0.0-1.0-612.0","0","0","89736","","null","","","null","67","","","","","","","","","","","","","","","NaN",""
"","S1","","html-keyboard-response","421","367836","0.0-1.0-614.0","0","0","89736","","null","","","null","68","","","","","","","","","","","","","","","",""
"","ISI","","html-keyboard-response","422","368344","0.0-1.0-615.0","0","0","89736","","null","","","null","68","NaN","","","","","","","","","","","","","","",""
"","S2","","html-keyboard-response","423","368602","0.0-1.0-616.0","0","0","89736","","null","","","null","68","","NaN","","","","","","","","","","","","","",""
"","response","","html-keyboard-response","424","369220","0.0-1.0-617.0-0.0","0","0","89736","","612","","","75","68","","","2","68","training","adjacent","BC","2","3","M.jpg","R.jpg","0","1","0","",""
"","feedback","","html-keyboard-response","425","370232","0.0-1.0-618.0-0.0","0","0","89736","","null","","","null","68","","","","","","","","","","","","","","","",""
"","time_out","","html-keyboard-response","426","372243","0.0-1.0-620.0-0.0","0","0","89736","","null","","","null","68","","","","","","","","","","","","","","","",""
"","ITI","","html-keyboard-response","427","373251","0.0-1.0-621.0","0","0","89736","","null","","","null","68","","","","","","","","","","","","","","","NaN",""
"","S1","","html-keyboard-response","428","373511","0.0-1.0-623.0","0","0","89736","","null","","","null","69","","","","","","","","","","","","","","","",""
"","ISI","","html-keyboard-response","429","374021","0.0-1.0-624.0","0","0","89736","","null","","","null","69","NaN","","","","","","","","","","","","","","",""
"","S2","","html-keyboard-response","430","374250","0.0-1.0-625.0","0","0","89736","","221","","","68","69","","d","2","69","training","adjacent","FG","6","7","O.jpg","L.jpg","1","1","1","",""
"","feedback","","html-keyboard-response","431","375271","0.0-1.0-627.0-0.0","0","0","89736","","null","","","null","69","","","","","","","","","","","","","","","",""
"","ITI","","html-keyboard-response","432","376286","0.0-1.0-630.0","0","0","89736","","null","","","null","69","","","","","","","","","","","","","","","NaN",""
"","S1","","html-keyboard-response","433","376545","0.0-1.0-632.0","0","0","89736","","null","","","null","70","","","","","","","","","","","","","","","",""
"","ISI","","html-keyboard-response","434","377051","0.0-1.0-633.0","0","0","89736","","null","","","null","70","NaN","","","","","","","","","","","","","","",""
"","S2","","html-keyboard-response","435","377208","0.0-1.0-634.0","0","0","89736","","151","","","75","70","","k","2","70","training","adjacent","AB","1","2","P.jpg","M.jpg","0","1","0","",""
"","feedback","","html-keyboard-response","436","378217","0.0-1.0-636.0-0.0","0","0","89736","","null","","","null","70","","","","","","","","","","","","","","","",""
"","time_out","","html-keyboard-response","437","380228","0.0-1.0-638.0-0.0","0","0","89736","","null","","","null","70","","","","","","","","","","","","","","","",""
"","ITI","","html-keyboard-response","438","381236","0.0-1.0-639.0","0","0","89736","","null","","","null","70","","","","","","","","","","","","","","","NaN",""
"","S1","","html-keyboard-response","439","381493","0.0-1.0-641.0","0","0","89736","","null","","","null","71","","","","","","","","","","","","","","","",""
"","ISI","","html-keyboard-response","440","382003","0.0-1.0-642.0","0","0","89736","","null","","","null","71","NaN","","","","","","","","","","","","","","",""
"","S2","","html-keyboard-response","441","382198","0.0-1.0-643.0","0","0","89736","","189","","","68","71","","d","2","71","training","adjacent","FG","6","7","O.jpg","L.jpg","1","1","1","",""
"","feedback","","html-keyboard-response","442","383210","0.0-1.0-645.0-0.0","0","0","89736","","null","","","null","71","","","","","","","","","","","","","","","",""
"","ITI","","html-keyboard-response","443","384222","0.0-1.0-648.0","0","0","89736","","null","","","null","71","","","","","","","","","","","","","","","NaN",""
"","S1","","html-keyboard-response","444","384480","0.0-1.0-650.0","0","0","89736","","null","","","null","72","","","","","","","","","","","","","","","",""
"","ISI","","html-keyboard-response","445","384990","0.0-1.0-651.0","0","0","89736","","null","","","null","72","NaN","","","","","","","","","","","","","","",""
"","S2","","html-keyboard-response","446","385196","0.0-1.0-652.0","0","0","89736","","200","","","75","72","","k","2","72","training","adjacent","CB","3","2","R.jpg","M.jpg","0","0","1","",""
"","feedback","","html-keyboard-response","447","386204","0.0-1.0-654.0-0.0","0","0","89736","","null","","","null","72","","","","","","","","","","","","","","","",""
"","ITI","","html-keyboard-response","448","387213","0.0-1.0-657.0","0","0","89736","","null","","","null","72","","","","","","","","","","","","","","","NaN",""
"","S1","","html-keyboard-response","449","387470","0.0-1.0-659.0","0","0","89736","","null","","","null","73","","","","","","","","","","","","","","","",""
"","ISI","","html-keyboard-response","450","387982","0.0-1.0-660.0","0","0","89736","","null","","","null","73","NaN","","","","","","","","","","","","","","",""
"","S2","","html-keyboard-response","451","388240","0.0-1.0-661.0","0","0","89736","","null","","","null","73","","NaN","","","","","","","","","","","","","",""
"","response","","html-keyboard-response","452","388291","0.0-1.0-662.0-0.0","0","0","89736","","46","","","75","73","","","2","73","training","adjacent","FE","6","5","O.jpg","Q.jpg","0","0","1","",""
"","feedback","","html-keyboard-response","453","389306","0.0-1.0-663.0-0.0","0","0","89736","","null","","","null","73","","","","","","","","","","","","","","","",""
"","ITI","","html-keyboard-response","454","390318","0.0-1.0-666.0","0","0","89736","","null","","","null","73","","","","","","","","","","","","","","","NaN",""
"","S1","","html-keyboard-response","455","390576","0.0-1.0-668.0","0","0","89736","","null","","","null","74","","","","","","","","","","","","","","","",""
"","ISI","","html-keyboard-response","456","391084","0.0-1.0-669.0","0","0","89736","","null","","","null","74","NaN","","","","","","","","","","","","","","",""
"","S2","","html-keyboard-response","457","391310","0.0-1.0-670.0","0","0","89736","","220","","","75","74","","k","2","74","training","adjacent","FE","6","5","O.jpg","Q.jpg","0","0","1","",""
"","feedback","","html-keyboard-response","458","392319","0.0-1.0-672.0-0.0","0","0","89736","","null","","","null","74","","","","","","","","","","","","","","","",""
"","ITI","","html-keyboard-response","459","393326","0.0-1.0-675.0","0","0","89736","","null","","","null","74","","","","","","","","","","","","","","","NaN",""
"","S1","","html-keyboard-response","460","393592","0.0-1.0-677.0","0","0","89736","","null","","","null","75","","","","","","","","","","","","","","","",""
"","ISI","","html-keyboard-response","461","394104","0.0-1.0-678.0","0","0","89736","","null","","","null","75","NaN","","","","","","","","","","","","","","",""
"","S2","","html-keyboard-response","462","394350","0.0-1.0-679.0","0","0","89736","","241","","","75","75","","k","2","75","training","adjacent","FG","6","7","O.jpg","L.jpg","0","1","0","",""
"","feedback","","html-keyboard-response","463","395362","0.0-1.0-681.0-0.0","0","0","89736","","null","","","null","75","","","","","","","","","","","","","","","",""
"","time_out","","html-keyboard-response","464","397371","0.0-1.0-683.0-0.0","0","0","89736","","null","","","null","75","","","","","","","","","","","","","","","",""
"","ITI","","html-keyboard-response","465","398386","0.0-1.0-684.0","0","0","89736","","null","","","null","75","","","","","","","","","","","","","","","NaN",""
"","S1","","html-keyboard-response","466","398650","0.0-1.0-686.0","0","0","89736","","null","","","null","76","","","","","","","","","","","","","","","",""
"","ISI","","html-keyboard-response","467","399162","0.0-1.0-687.0","0","0","89736","","null","","","null","76","NaN","","","","","","","","","","","","","","",""
"","S2","","html-keyboard-response","468","399389","0.0-1.0-688.0","0","0","89736","","222","","","75","76","","k","2","76","training","adjacent","DE","4","5","N.jpg","Q.jpg","0","1","0","",""
"","feedback","","html-keyboard-response","469","400401","0.0-1.0-690.0-0.0","0","0","89736","","null","","","null","76","","","","","","","","","","","","","","","",""
"","time_out","","html-keyboard-response","470","402414","0.0-1.0-692.0-0.0","0","0","89736","","null","","","null","76","","","","","","","","","","","","","","","",""
"","ITI","","html-keyboard-response","471","403428","0.0-1.0-693.0","0","0","89736","","null","","","null","76","","","","","","","","","","","","","","","NaN",""
"","S1","","html-keyboard-response","472","403686","0.0-1.0-695.0","0","0","89736","","null","","","null","77","","","","","","","","","","","","","","","",""
"","ISI","","html-keyboard-response","473","404194","0.0-1.0-696.0","0","0","89736","","null","","","null","77","NaN","","","","","","","","","","","","","","",""
"","S2","","html-keyboard-response","474","404401","0.0-1.0-697.0","0","0","89736","","200","","","68","77","","d","2","77","training","adjacent","DE","4","5","N.jpg","Q.jpg","1","1","1","",""
"","feedback","","html-keyboard-response","475","405414","0.0-1.0-699.0-0.0","0","0","89736","","null","","","null","77","","","","","","","","","","","","","","","",""
"","ITI","","html-keyboard-response","476","406421","0.0-1.0-702.0","0","0","89736","","null","","","null","77","","","","","","","","","","","","","","","NaN",""
"","S1","","html-keyboard-response","477","406678","0.0-1.0-704.0","0","0","89736","","null","","","null","78","","","","","","","","","","","","","","","",""
"","ISI","","html-keyboard-response","478","407185","0.0-1.0-705.0","0","0","89736","","null","","","null","78","NaN","","","","","","","","","","","","","","",""
"","S2","","html-keyboard-response","479","407328","0.0-1.0-706.0","0","0","89736","","137","","","68","78","","d","2","78","training","adjacent","GF","7","6","L.jpg","O.jpg","1","0","0","",""
"","feedback","","html-keyboard-response","480","408351","0.0-1.0-708.0-0.0","0","0","89736","","null","","","null","78","","","","","","","","","","","","","","","",""
"","time_out","","html-keyboard-response","481","410362","0.0-1.0-710.0-0.0","0","0","89736","","null","","","null","78","","","","","","","","","","","","","","","",""
"","ITI","","html-keyboard-response","482","411375","0.0-1.0-711.0","0","0","89736","","null","","","null","78","","","","","","","","","","","","","","","NaN",""
"","S1","","html-keyboard-response","483","411633","0.0-1.0-713.0","0","0","89736","","null","","","null","79","","","","","","","","","","","","","","","",""
"","ISI","","html-keyboard-response","484","412147","0.0-1.0-714.0","0","0","89736","","null","","","null","79","NaN","","","","","","","","","","","","","","",""
"","S2","","html-keyboard-response","485","412406","0.0-1.0-715.0","0","0","89736","","null","","","null","79","","NaN","","","","","","","","","","","","","",""
"","response","","html-keyboard-response","486","412451","0.0-1.0-716.0-0.0","0","0","89736","","39","","","68","79","","","2","79","training","adjacent","DC","4","3","N.jpg","R.jpg","1","0","0","",""
"","feedback","","html-keyboard-response","487","413462","0.0-1.0-717.0-0.0","0","0","89736","","null","","","null","79","","","","","","","","","","","","","","","",""
"","time_out","","html-keyboard-response","488","415472","0.0-1.0-719.0-0.0","0","0","89736","","null","","","null","79","","","","","","","","","","","","","","","",""
"","ITI","","html-keyboard-response","489","416483","0.0-1.0-720.0","0","0","89736","","null","","","null","79","","","","","","","","","","","","","","","NaN",""
"","S1","","html-keyboard-response","490","416743","0.0-1.0-722.0","0","0","89736","","null","","","null","80","","","","","","","","","","","","","","","",""
"","ISI","","html-keyboard-response","491","417260","0.0-1.0-723.0","0","0","89736","","null","","","null","80","NaN","","","","","","","","","","","","","","",""
"","S2","","html-keyboard-response","492","417520","0.0-1.0-724.0","0","0","89736","","null","","","null","80","","NaN","","","","","","","","","","","","","",""
"","response","","html-keyboard-response","493","417548","0.0-1.0-725.0-0.0","0","0","89736","","16","","","75","80","","","2","80","training","adjacent","DE","4","5","N.jpg","Q.jpg","0","1","0","",""
"","feedback","","html-keyboard-response","494","418564","0.0-1.0-726.0-0.0","0","0","89736","","null","","","null","80","","","","","","","","","","","","","","","",""
"","time_out","","html-keyboard-response","495","420573","0.0-1.0-728.0-0.0","0","0","89736","","null","","","null","80","","","","","","","","","","","","","","","",""
"","ITI","","html-keyboard-response","496","421579","0.0-1.0-729.0","0","0","89736","","null","","","null","80","","","","","","","","","","","","","","","NaN",""
"","S1","","html-keyboard-response","497","421838","0.0-1.0-731.0","0","0","89736","","null","","","null","81","","","","","","","","","","","","","","","",""
"","ISI","","html-keyboard-response","498","422346","0.0-1.0-732.0","0","0","89736","","null","","","null","81","NaN","","","","","","","","","","","","","","",""
"","S2","","html-keyboard-response","499","422608","0.0-1.0-733.0","0","0","89736","","null","","","null","81","","NaN","","","","","","","","","","","","","",""
"","response","","html-keyboard-response","500","422758","0.0-1.0-734.0-0.0","0","0","89736","","145","","","68","81","","","2","81","training","adjacent","CB","3","2","R.jpg","M.jpg","1","0","0","",""
"","feedback","","html-keyboard-response","501","423773","0.0-1.0-735.0-0.0","0","0","89736","","null","","","null","81","","","","","","","","","","","","","","","",""
"","time_out","","html-keyboard-response","502","425784","0.0-1.0-737.0-0.0","0","0","89736","","null","","","null","81","","","","","","","","","","","","","","","",""
"","ITI","","html-keyboard-response","503","426797","0.0-1.0-738.0","0","0","89736","","null","","","null","81","","","","","","","","","","","","","","","NaN",""
"","S1","","html-keyboard-response","504","427062","0.0-1.0-740.0","0","0","89736","","null","","","null","82","","","","","","","","","","","","","","","",""
"","ISI","","html-keyboard-response","505","427571","0.0-1.0-741.0","0","0","89736","","null","","","null","82","NaN","","","","","","","","","","","","","","",""
"","S2","","html-keyboard-response","506","427830","0.0-1.0-742.0","0","0","89736","","null","","","null","82","","NaN","","","","","","","","","","","","","",""
"","response","","html-keyboard-response","507","427837","0.0-1.0-743.0-0.0","0","0","89736","","0","","","75","82","","","2","82","training","adjacent","DE","4","5","N.jpg","Q.jpg","0","1","0","",""
"","feedback","","html-keyboard-response","508","428852","0.0-1.0-744.0-0.0","0","0","89736","","null","","","null","82","","","","","","","","","","","","","","","",""
"","time_out","","html-keyboard-response","509","430865","0.0-1.0-746.0-0.0","0","0","89736","","null","","","null","82","","","","","","","","","","","","","","","",""
"","ITI","","html-keyboard-response","510","431876","0.0-1.0-747.0","0","0","89736","","null","","","null","82","","","","","","","","","","","","","","","NaN",""
"","S1","","html-keyboard-response","511","432135","0.0-1.0-749.0","0","0","89736","","null","","","null","83","","","","","","","","","","","","","","","",""
"","ISI","","html-keyboard-response","512","432644","0.0-1.0-750.0","0","0","89736","","454","","","68","83","d","","","","","","","","","","","","","","",""
"","S2","","html-keyboard-response","513","432903","0.0-1.0-751.0","0","0","89736","","null","","","null","83","","NaN","","","","","","","","","","","","","",""
"","response","","html-keyboard-response","514","433473","0.0-1.0-752.0-0.0","0","0","89736","","564","","","68","83","","","2","83","training","adjacent","EF","5","6","Q.jpg","O.jpg","1","1","1","",""
"","feedback","","html-keyboard-response","515","434483","0.0-1.0-753.0-0.0","0","0","89736","","null","","","null","83","","","","","","","","","","","","","","","",""
"","ITI","","html-keyboard-response","516","435510","0.0-1.0-756.0","0","0","89736","","null","","","null","83","","","","","","","","","","","","","","","NaN",""
"","S1","","html-keyboard-response","517","435772","0.0-1.0-758.0","0","0","89736","","null","","","null","84","","","","","","","","","","","","","","","",""
"","ISI","","html-keyboard-response","518","436279","0.0-1.0-759.0","0","0","89736","","394","","","68","84","d","","","","","","","","","","","","","","",""
"","S2","","html-keyboard-response","519","436536","0.0-1.0-760.0","0","0","89736","","null","","","null","84","","NaN","","","","","","","","","","","","","",""
"","response","","html-keyboard-response","520","436655","0.0-1.0-761.0-0.0","0","0","89736","","115","","","68","84","","","2","84","training","adjacent","ED","5","4","Q.jpg","N.jpg","1","0","0","",""
"","feedback","","html-keyboard-response","521","437664","0.0-1.0-762.0-0.0","0","0","89736","","null","","","null","84","","","","","","","","","","","","","","","",""
"","time_out","","html-keyboard-response","522","439688","0.0-1.0-764.0-0.0","0","0","89736","","null","","","null","84","","","","","","","","","","","","","","","",""
"","ITI","","html-keyboard-response","523","440701","0.0-1.0-765.0","0","0","89736","","null","","","null","84","","","","","","","","","","","","","","","NaN",""
"","S1","","html-keyboard-response","524","440958","0.0-1.0-767.0","0","0","89736","","null","","","null","85","","","","","","","","","","","","","","","",""
"","ISI","","html-keyboard-response","525","441470","0.0-1.0-768.0","0","0","89736","","null","","","null","85","NaN","","","","","","","","","","","","","","",""
"","S2","","html-keyboard-response","526","441624","0.0-1.0-769.0","0","0","89736","","149","","","75","85","","k","2","85","training","adjacent","BA","2","1","M.jpg","P.jpg","0","0","1","",""
"","feedback","","html-keyboard-response","527","442634","0.0-1.0-771.0-0.0","0","0","89736","","null","","","null","85","","","","","","","","","","","","","","","",""
"","ITI","","html-keyboard-response","528","443643","0.0-1.0-774.0","0","0","89736","","null","","","null","85","","","","","","","","","","","","","","","NaN",""
"","S1","","html-keyboard-response","529","443902","0.0-1.0-776.0","0","0","89736","","null","","","null","86","","","","","","","","","","","","","","","",""
"","ISI","","html-keyboard-response","530","444414","0.0-1.0-777.0","0","0","89736","","425","","","75","86","k","","","","","","","","","","","","","","",""
"","S2","","html-keyboard-response","531","444677","0.0-1.0-778.0","0","0","89736","","null","","","null","86","","NaN","","","","","","","","","","","","","",""
"","response","","html-keyboard-response","532","444757","0.0-1.0-779.0-0.0","0","0","89736","","75","","","75","86","","","2","86","training","adjacent","BA","2","1","M.jpg","P.jpg","0","0","1","",""
"","feedback","","html-keyboard-response","533","445767","0.0-1.0-780.0-0.0","0","0","89736","","null","","","null","86","","","","","","","","","","","","","","","",""
"","ITI","","html-keyboard-response","534","446779","0.0-1.0-783.0","0","0","89736","","null","","","null","86","","","","","","","","","","","","","","","NaN",""
"","S1","","html-keyboard-response","535","447037","0.0-1.0-785.0","0","0","89736","","null","","","null","87","","","","","","","","","","","","","","","",""
"","ISI","","html-keyboard-response","536","447544","0.0-1.0-786.0","0","0","89736","","null","","","null","87","NaN","","","","","","","","","","","","","","",""
"","S2","","html-keyboard-response","537","447805","0.0-1.0-787.0","0","0","89736","","null","","","null","87","","NaN","","","","","","","","","","","","","",""
"","response","","html-keyboard-response","538","448205","0.0-1.0-788.0-0.0","0","0","89736","","395","","","68","87","","","2","87","training","adjacent","CD","3","4","R.jpg","N.jpg","1","1","1","",""
"","feedback","","html-keyboard-response","539","449212","0.0-1.0-789.0-0.0","0","0","89736","","null","","","null","87","","","","","","","","","","","","","","","",""
"","ITI","","html-keyboard-response","540","450223","0.0-1.0-792.0","0","0","89736","","null","","","null","87","","","","","","","","","","","","","","","NaN",""
"","S1","","html-keyboard-response","541","450484","0.0-1.0-794.0","0","0","89736","","null","","","null","88","","","","","","","","","","","","","","","",""
"","ISI","","html-keyboard-response","542","450992","0.0-1.0-795.0","0","0","89736","","null","","","null","88","NaN","","","","","","","","","","","","","","",""
"","S2","","html-keyboard-response","543","451258","0.0-1.0-796.0","0","0","89736","","null","","","null","88","","NaN","","","","","","","","","","","","","",""
"","response","","html-keyboard-response","544","451476","0.0-1.0-797.0-0.0","0","0","89736","","213","","","68","88","","","2","88","training","adjacent","BC","2","3","M.jpg","R.jpg","1","1","1","",""
"","feedback","","html-keyboard-response","545","452487","0.0-1.0-798.0-0.0","0","0","89736","","null","","","null","88","","","","","","","","","","","","","","","",""
"","ITI","","html-keyboard-response","546","453497","0.0-1.0-801.0","0","0","89736","","null","","","null","88","","","","","","","","","","","","","","","NaN",""
"","S1","","html-keyboard-response","547","453755","0.0-1.0-803.0","0","0","89736","","null","","","null","89","","","","","","","","","","","","","","","",""
"","ISI","","html-keyboard-response","548","454266","0.0-1.0-804.0","0","0","89736","","null","","","null","89","NaN","","","","","","","","","","","","","","",""
"","S2","","html-keyboard-response","549","454529","0.0-1.0-805.0","0","0","89736","","null","","","null","89","","NaN","","","","","","","","","","","","","",""
"","response","","html-keyboard-response","550","454745","0.0-1.0-806.0-0.0","0","0","89736","","210","","","75","89","","","2","89","training","adjacent","DC","4","3","N.jpg","R.jpg","0","0","1","",""
"","feedback","","html-keyboard-response","551","455755","0.0-1.0-807.0-0.0","0","0","89736","","null","","","null","89","","","","","","","","","","","","","","","",""
"","ITI","","html-keyboard-response","552","456768","0.0-1.0-810.0","0","0","89736","","null","","","null","89","","","","","","","","","","","","","","","NaN",""
"","S1","","html-keyboard-response","553","457028","0.0-1.0-812.0","0","0","89736","","null","","","null","90","","","","","","","","","","","","","","","",""
"","ISI","","html-keyboard-response","554","457534","0.0-1.0-813.0","0","0","89736","","null","","","null","90","NaN","","","","","","","","","","","","","","",""
"","S2","","html-keyboard-response","555","457793","0.0-1.0-814.0","0","0","89736","","null","","","null","90","","NaN","","","","","","","","","","","","","",""
"","response","","html-keyboard-response","556","458355","0.0-1.0-815.0-0.0","0","0","89736","","557","","","68","90","","","2","90","training","adjacent","BA","2","1","M.jpg","P.jpg","1","0","0","",""
"","feedback","","html-keyboard-response","557","459377","0.0-1.0-816.0-0.0","0","0","89736","","null","","","null","90","","","","","","","","","","","","","","","",""
"","time_out","","html-keyboard-response","558","461393","0.0-1.0-818.0-0.0","0","0","89736","","null","","","null","90","","","","","","","","","","","","","","","",""
"","ITI","","html-keyboard-response","559","462404","0.0-1.0-819.0","0","0","89736","","null","","","null","90","","","","","","","","","","","","","","","NaN",""
"","S1","","html-keyboard-response","560","462661","0.0-1.0-821.0","0","0","89736","","null","","","null","91","","","","","","","","","","","","","","","",""
"","ISI","","html-keyboard-response","561","463169","0.0-1.0-822.0","0","0","89736","","null","","","null","91","NaN","","","","","","","","","","","","","","",""
"","S2","","html-keyboard-response","562","463426","0.0-1.0-823.0","0","0","89736","","null","","","null","91","","NaN","","","","","","","","","","","","","",""
"","response","","html-keyboard-response","563","463697","0.0-1.0-824.0-0.0","0","0","89736","","266","","","75","91","","","2","91","training","adjacent","GF","7","6","L.jpg","O.jpg","0","0","1","",""
"","feedback","","html-keyboard-response","564","464707","0.0-1.0-825.0-0.0","0","0","89736","","null","","","null","91","","","","","","","","","","","","","","","",""
"","ITI","","html-keyboard-response","565","465718","0.0-1.0-828.0","0","0","89736","","null","","","null","91","","","","","","","","","","","","","","","NaN",""
"","S1","","html-keyboard-response","566","465976","0.0-1.0-830.0","0","0","89736","","null","","","null","92","","","","","","","","","","","","","","","",""
"","ISI","","html-keyboard-response","567","466486","0.0-1.0-831.0","0","0","89736","","null","","","null","92","NaN","","","","","","","","","","","","","","",""
"","S2","","html-keyboard-response","568","466743","0.0-1.0-832.0","0","0","89736","","null","","","null","92","","NaN","","","","","","","","","","","","","",""
"","response","","html-keyboard-response","569","466932","0.0-1.0-833.0-0.0","0","0","89736","","183","","","75","92","","","2","92","training","adjacent","DC","4","3","N.jpg","R.jpg","0","0","1","",""
"","feedback","","html-keyboard-response","570","467946","0.0-1.0-834.0-0.0","0","0","89736","","null","","","null","92","","","","","","","","","","","","","","","",""
"","ITI","","html-keyboard-response","571","468958","0.0-1.0-837.0","0","0","89736","","null","","","null","92","","","","","","","","","","","","","","","NaN",""
"","S1","","html-keyboard-response","572","469216","0.0-1.0-839.0","0","0","89736","","null","","","null","93","","","","","","","","","","","","","","","",""
"","ISI","","html-keyboard-response","573","469726","0.0-1.0-840.0","0","0","89736","","null","","","null","93","NaN","","","","","","","","","","","","","","",""
"","S2","","html-keyboard-response","574","469985","0.0-1.0-841.0","0","0","89736","","null","","","null","93","","NaN","","","","","","","","","","","","","",""
"","response","","html-keyboard-response","575","470305","0.0-1.0-842.0-0.0","0","0","89736","","314","","","75","93","","","2","93","training","adjacent","FG","6","7","O.jpg","L.jpg","0","1","0","",""
"","feedback","","html-keyboard-response","576","471322","0.0-1.0-843.0-0.0","0","0","89736","","null","","","null","93","","","","","","","","","","","","","","","",""
"","time_out","","html-keyboard-response","577","473336","0.0-1.0-845.0-0.0","0","0","89736","","null","","","null","93","","","","","","","","","","","","","","","",""
"","ITI","","html-keyboard-response","578","474348","0.0-1.0-846.0","0","0","89736","","null","","","null","93","","","","","","","","","","","","","","","NaN",""
"","S1","","html-keyboard-response","579","474604","0.0-1.0-848.0","0","0","89736","","null","","","null","94","","","","","","","","","","","","","","","",""
"","ISI","","html-keyboard-response","580","475113","0.0-1.0-849.0","0","0","89736","","null","","","null","94","NaN","","","","","","","","","","","","","","",""
"","S2","","html-keyboard-response","581","475371","0.0-1.0-850.0","0","0","89736","","null","","","null","94","","NaN","","","","","","","","","","","","","",""
"","response","","html-keyboard-response","582","475747","0.0-1.0-851.0-0.0","0","0","89736","","371","","","68","94","","","2","94","training","adjacent","CD","3","4","R.jpg","N.jpg","1","1","1","",""
"","feedback","","html-keyboard-response","583","476764","0.0-1.0-852.0-0.0","0","0","89736","","null","","","null","94","","","","","","","","","","","","","","","",""
"","ITI","","html-keyboard-response","584","477776","0.0-1.0-855.0","0","0","89736","","null","","","null","94","","","","","","","","","","","","","","","NaN",""
