"success","ttype","start_time","trial_type","trial_index","time_elapsed","internal_node_id","warning","missed_checkup","PID","view_history","rt","responses","repeat_instructions","key_press","index","keypress_isi","keypress_S2","block","trial_num","phase","group_type","pair_type","S1_stim","S2_stim","S1_img","S2_img","S1_chosen","S1_higher","accuracy","keypress_iti","total_bonus_tally"
"true","full_screen","d08012022hr1512","fullscreen","0","21122","0.0-0.0","0","0","62175","","","","","","","","","","","","","","","","","","","","","",""
"","instructions","","instructions","1","94858","0.0-1.0-0.0-0.0","0","0","62175","[{""page_index"":0,""viewing_time"":12812},{""page_index"":1,""viewing_time"":33656},{""page_index"":2,""viewing_time"":26061},{""page_index"":3,""viewing_time"":1202}]","73732","","","","","","","","","","","","","","","","","","","",""
"","comprehension_check","","survey-multi-choice","2","115178","0.0-1.0-0.0-1.0","0","0","62175","","20306","{""Q0"":""True"",""Q1"":""K"",""Q2"":""When you see the prompt 'MAKE A CHOICE' after the second image was presented"",""Q3"":""Green mark"",""Q4"":""either D or K""}","0","","","","","","","","","","","","","","","","","",""
"","start_exp","","html-keyboard-response","3","116594","0.0-1.0-1.0","0","0","62175","","1411","","","32","","","","","","","","","","","","","","","","",""
"","S1","","html-keyboard-response","4","116848","0.0-1.0-2.0","0","0","62175","","null","","","null","0","","","","","","","","","","","","","","","",""
"","ISI","","html-keyboard-response","5","118851","0.0-1.0-3.0","0","0","62175","","null","","","null","0","NaN","","","","","","","","","","","","","","",""
"","S2","","html-keyboard-response","6","119105","0.0-1.0-4.0","0","0","62175","","null","","","null","0","","NaN","","","","","","","","","","","","","",""
"","response","","html-keyboard-response","7","120345","0.0-1.0-5.0","0","0","62175","","1237","","","75","0","","","1","0","training","adjacent","ED","5","4","L.jpg","M.jpg","1","0","0","",""
"","feedback","","html-keyboard-response","8","121349","0.0-1.0-6.0-0.0","0","0","62175","","null","","","null","0","","","","","","","","","","","","","","","",""
"","time_out","","html-keyboard-response","9","123351","0.0-1.0-8.0-0.0","0","0","62175","","null","","","null","0","","","","","","","","","","","","","","","",""
"","ITI","","html-keyboard-response","10","124355","0.0-1.0-9.0","0","0","62175","","null","","","null","0","","","","","","","","","","","","","","","NaN",""
"","S1","","html-keyboard-response","11","124609","0.0-1.0-11.0","0","0","62175","","null","","","null","1","","","","","","","","","","","","","","","",""
"","ISI","","html-keyboard-response","12","126611","0.0-1.0-12.0","0","0","62175","","null","","","null","1","NaN","","","","","","","","","","","","","","",""
"","S2","","html-keyboard-response","13","126865","0.0-1.0-13.0","0","0","62175","","null","","","null","1","","NaN","","","","","","","","","","","","","",""
"","response","","html-keyboard-response","14","127641","0.0-1.0-14.0","0","0","62175","","774","","","68","1","","","1","1","training","adjacent","FG","6","7","R.jpg","Q.jpg","0","1","0","",""
"","feedback","","html-keyboard-response","15","128645","0.0-1.0-15.0-0.0","0","0","62175","","null","","","null","1","","","","","","","","","","","","","","","",""
"","time_out","","html-keyboard-response","16","130648","0.0-1.0-17.0-0.0","0","0","62175","","null","","","null","1","","","","","","","","","","","","","","","",""
"","ITI","","html-keyboard-response","17","131651","0.0-1.0-18.0","0","0","62175","","null","","","null","1","","","","","","","","","","","","","","","NaN",""
"","S1","","html-keyboard-response","18","131904","0.0-1.0-20.0","0","0","62175","","null","","","null","2","","","","","","","","","","","","","","","",""
"","ISI","","html-keyboard-response","19","133908","0.0-1.0-21.0","0","0","62175","","null","","","null","2","NaN","","","","","","","","","","","","","","",""
"","S2","","html-keyboard-response","20","134162","0.0-1.0-22.0","0","0","62175","","null","","","null","2","","NaN","","","","","","","","","","","","","",""
"","response","","html-keyboard-response","21","134433","0.0-1.0-23.0","0","0","62175","","268","","","75","2","","","1","2","training","adjacent","FG","6","7","R.jpg","Q.jpg","1","1","1","",""
"","feedback","","html-keyboard-response","22","135437","0.0-1.0-24.0-0.0","0","0","62175","","null","","","null","2","","","","","","","","","","","","","","","",""
"","ITI","","html-keyboard-response","23","136440","0.0-1.0-27.0","0","0","62175","","null","","","null","2","","","","","","","","","","","","","","","NaN",""
"","S1","","html-keyboard-response","24","136694","0.0-1.0-29.0","0","0","62175","","null","","","null","3","","","","","","","","","","","","","","","",""
"","ISI","","html-keyboard-response","25","138697","0.0-1.0-30.0","0","0","62175","","null","","","null","3","NaN","","","","","","","","","","","","","","",""
"","S2","","html-keyboard-response","26","138950","0.0-1.0-31.0","0","0","62175","","null","","","null","3","","NaN","","","","","","","","","","","","","",""
"","response","","html-keyboard-response","27","139109","0.0-1.0-32.0","0","0","62175","","157","","","75","3","","","1","3","training","adjacent","CD","3","4","P.jpg","M.jpg","1","1","1","",""
"","feedback","","html-keyboard-response","28","140113","0.0-1.0-33.0-0.0","0","0","62175","","null","","","null","3","","","","","","","","","","","","","","","",""
"","ITI","","html-keyboard-response","29","141116","0.0-1.0-36.0","0","0","62175","","null","","","null","3","","","","","","","","","","","","","","","NaN",""
"","S1","","html-keyboard-response","30","141370","0.0-1.0-38.0","0","0","62175","","null","","","null","4","","","","","","","","","","","","","","","",""
"","ISI","","html-keyboard-response","31","143372","0.0-1.0-39.0","0","0","62175","","null","","","null","4","NaN","","","","","","","","","","","","","","",""
"","S2","","html-keyboard-response","32","143625","0.0-1.0-40.0","0","0","62175","","null","","","null","4","","NaN","","","","","","","","","","","","","",""
"","response","","html-keyboard-response","33","144118","0.0-1.0-41.0","0","0","62175","","489","","","75","4","","","1","4","training","adjacent","BC","2","3","N.jpg","P.jpg","1","1","1","",""
"","feedback","","html-keyboard-response","34","145136","0.0-1.0-42.0-0.0","0","0","62175","","null","","","null","4","","","","","","","","","","","","","","","",""
"","ITI","","html-keyboard-response","35","146140","0.0-1.0-45.0","0","0","62175","","null","","","null","4","","","","","","","","","","","","","","","NaN",""
"","S1","","html-keyboard-response","36","146394","0.0-1.0-47.0","0","0","62175","","null","","","null","5","","","","","","","","","","","","","","","",""
"","ISI","","html-keyboard-response","37","148397","0.0-1.0-48.0","0","0","62175","","null","","","null","5","NaN","","","","","","","","","","","","","","",""
"","S2","","html-keyboard-response","38","148649","0.0-1.0-49.0","0","0","62175","","null","","","null","5","","NaN","","","","","","","","","","","","","",""
"","response","","html-keyboard-response","39","149265","0.0-1.0-50.0","0","0","62175","","613","","","68","5","","","1","5","training","adjacent","GF","7","6","Q.jpg","R.jpg","0","0","1","",""
"","feedback","","html-keyboard-response","40","150268","0.0-1.0-51.0-0.0","0","0","62175","","null","","","null","5","","","","","","","","","","","","","","","",""
"","ITI","","html-keyboard-response","41","151271","0.0-1.0-54.0","0","0","62175","","null","","","null","5","","","","","","","","","","","","","","","NaN",""
"","S1","","html-keyboard-response","42","151525","0.0-1.0-56.0","0","0","62175","","null","","","null","6","","","","","","","","","","","","","","","",""
"","ISI","","html-keyboard-response","43","153527","0.0-1.0-57.0","0","0","62175","","null","","","null","6","NaN","","","","","","","","","","","","","","",""
"","S2","","html-keyboard-response","44","153781","0.0-1.0-58.0","0","0","62175","","null","","","null","6","","NaN","","","","","","","","","","","","","",""
"","response","","html-keyboard-response","45","154370","0.0-1.0-59.0","0","0","62175","","586","","","68","6","","","1","6","training","adjacent","DE","4","5","M.jpg","L.jpg","0","1","0","",""
"","feedback","","html-keyboard-response","46","155374","0.0-1.0-60.0-0.0","0","0","62175","","null","","","null","6","","","","","","","","","","","","","","","",""
"","time_out","","html-keyboard-response","47","157377","0.0-1.0-62.0-0.0","0","0","62175","","null","","","null","6","","","","","","","","","","","","","","","",""
"","ITI","","html-keyboard-response","48","158381","0.0-1.0-63.0","0","0","62175","","null","","","null","6","","","","","","","","","","","","","","","NaN",""
"","S1","","html-keyboard-response","49","158634","0.0-1.0-65.0","0","0","62175","","null","","","null","7","","","","","","","","","","","","","","","",""
"","ISI","","html-keyboard-response","50","160637","0.0-1.0-66.0","0","0","62175","","null","","","null","7","NaN","","","","","","","","","","","","","","",""
"","S2","","html-keyboard-response","51","160892","0.0-1.0-67.0","0","0","62175","","null","","","null","7","","NaN","","","","","","","","","","","","","",""
"","response","","html-keyboard-response","52","161217","0.0-1.0-68.0","0","0","62175","","323","","","75","7","","","1","7","training","adjacent","FE","6","5","R.jpg","L.jpg","1","0","0","",""
"","feedback","","html-keyboard-response","53","162232","0.0-1.0-69.0-0.0","0","0","62175","","null","","","null","7","","","","","","","","","","","","","","","",""
"","time_out","","html-keyboard-response","54","164236","0.0-1.0-71.0-0.0","0","0","62175","","null","","","null","7","","","","","","","","","","","","","","","",""
"","ITI","","html-keyboard-response","55","165239","0.0-1.0-72.0","0","0","62175","","null","","","null","7","","","","","","","","","","","","","","","NaN",""
"","S1","","html-keyboard-response","56","165492","0.0-1.0-74.0","0","0","62175","","null","","","null","8","","","","","","","","","","","","","","","",""
"","ISI","","html-keyboard-response","57","167495","0.0-1.0-75.0","0","0","62175","","null","","","null","8","NaN","","","","","","","","","","","","","","",""
"","S2","","html-keyboard-response","58","167748","0.0-1.0-76.0","0","0","62175","","null","","","null","8","","NaN","","","","","","","","","","","","","",""
"","response","","html-keyboard-response","59","168425","0.0-1.0-77.0","0","0","62175","","674","","","68","8","","","1","8","training","adjacent","CB","3","2","P.jpg","N.jpg","0","0","1","",""
"","feedback","","html-keyboard-response","60","169428","0.0-1.0-78.0-0.0","0","0","62175","","null","","","null","8","","","","","","","","","","","","","","","",""
"","ITI","","html-keyboard-response","61","170431","0.0-1.0-81.0","0","0","62175","","null","","","null","8","","","","","","","","","","","","","","","NaN",""
"","S1","","html-keyboard-response","62","170684","0.0-1.0-83.0","0","0","62175","","null","","","null","9","","","","","","","","","","","","","","","",""
"","ISI","","html-keyboard-response","63","172686","0.0-1.0-84.0","0","0","62175","","null","","","null","9","NaN","","","","","","","","","","","","","","",""
"","S2","","html-keyboard-response","64","172939","0.0-1.0-85.0","0","0","62175","","null","","","null","9","","NaN","","","","","","","","","","","","","",""
"","response","","html-keyboard-response","65","173410","0.0-1.0-86.0","0","0","62175","","467","","","75","9","","","1","9","training","adjacent","EF","5","6","L.jpg","R.jpg","1","1","1","",""
"","feedback","","html-keyboard-response","66","174413","0.0-1.0-87.0-0.0","0","0","62175","","null","","","null","9","","","","","","","","","","","","","","","",""
"","ITI","","html-keyboard-response","67","175417","0.0-1.0-90.0","0","0","62175","","null","","","null","9","","","","","","","","","","","","","","","NaN",""
"","S1","","html-keyboard-response","68","175670","0.0-1.0-92.0","0","0","62175","","null","","","null","10","","","","","","","","","","","","","","","",""
"","ISI","","html-keyboard-response","69","177672","0.0-1.0-93.0","0","0","62175","","null","","","null","10","NaN","","","","","","","","","","","","","","",""
"","S2","","html-keyboard-response","70","177925","0.0-1.0-94.0","0","0","62175","","null","","","null","10","","NaN","","","","","","","","","","","","","",""
"","response","","html-keyboard-response","71","178833","0.0-1.0-95.0","0","0","62175","","905","","","75","10","","","1","10","training","adjacent","DE","4","5","M.jpg","L.jpg","1","1","1","",""
"","feedback","","html-keyboard-response","72","179840","0.0-1.0-96.0-0.0","0","0","62175","","null","","","null","10","","","","","","","","","","","","","","","",""
"","ITI","","html-keyboard-response","73","180843","0.0-1.0-99.0","0","0","62175","","null","","","null","10","","","","","","","","","","","","","","","NaN",""
"","S1","","html-keyboard-response","74","181099","0.0-1.0-101.0","0","0","62175","","null","","","null","11","","","","","","","","","","","","","","","",""
"","ISI","","html-keyboard-response","75","183102","0.0-1.0-102.0","0","0","62175","","null","","","null","11","NaN","","","","","","","","","","","","","","",""
"","S2","","html-keyboard-response","76","183355","0.0-1.0-103.0","0","0","62175","","null","","","null","11","","NaN","","","","","","","","","","","","","",""
"","response","","html-keyboard-response","77","183993","0.0-1.0-104.0","0","0","62175","","635","","","75","11","","","1","11","training","adjacent","DE","4","5","M.jpg","L.jpg","1","1","1","",""
"","feedback","","html-keyboard-response","78","184997","0.0-1.0-105.0-0.0","0","0","62175","","null","","","null","11","","","","","","","","","","","","","","","",""
"","ITI","","html-keyboard-response","79","186001","0.0-1.0-108.0","0","0","62175","","null","","","null","11","","","","","","","","","","","","","","","NaN",""
"","S1","","html-keyboard-response","80","186259","0.0-1.0-110.0","0","0","62175","","null","","","null","12","","","","","","","","","","","","","","","",""
"","ISI","","html-keyboard-response","81","188263","0.0-1.0-111.0","0","0","62175","","null","","","null","12","NaN","","","","","","","","","","","","","","",""
"","S2","","html-keyboard-response","82","188517","0.0-1.0-112.0","0","0","62175","","null","","","null","12","","NaN","","","","","","","","","","","","","",""
"","response","","html-keyboard-response","83","189065","0.0-1.0-113.0","0","0","62175","","546","","","75","12","","","1","12","training","adjacent","AB","1","2","O.jpg","N.jpg","1","1","1","",""
"","feedback","","html-keyboard-response","84","190068","0.0-1.0-114.0-0.0","0","0","62175","","null","","","null","12","","","","","","","","","","","","","","","",""
"","ITI","","html-keyboard-response","85","191071","0.0-1.0-117.0","0","0","62175","","null","","","null","12","","","","","","","","","","","","","","","NaN",""
"","S1","","html-keyboard-response","86","191325","0.0-1.0-119.0","0","0","62175","","null","","","null","13","","","","","","","","","","","","","","","",""
"","ISI","","html-keyboard-response","87","193328","0.0-1.0-120.0","0","0","62175","","null","","","null","13","NaN","","","","","","","","","","","","","","",""
"","S2","","html-keyboard-response","88","193581","0.0-1.0-121.0","0","0","62175","","null","","","null","13","","NaN","","","","","","","","","","","","","",""
"","response","","html-keyboard-response","89","194177","0.0-1.0-122.0","0","0","62175","","594","","","75","13","","","1","13","training","adjacent","FG","6","7","R.jpg","Q.jpg","1","1","1","",""
"","feedback","","html-keyboard-response","90","195180","0.0-1.0-123.0-0.0","0","0","62175","","null","","","null","13","","","","","","","","","","","","","","","",""
"","ITI","","html-keyboard-response","91","196183","0.0-1.0-126.0","0","0","62175","","null","","","null","13","","","","","","","","","","","","","","","NaN",""
"","S1","","html-keyboard-response","92","196436","0.0-1.0-128.0","0","0","62175","","null","","","null","14","","","","","","","","","","","","","","","",""
"","ISI","","html-keyboard-response","93","198440","0.0-1.0-129.0","0","0","62175","","null","","","null","14","NaN","","","","","","","","","","","","","","",""
"","S2","","html-keyboard-response","94","198693","0.0-1.0-130.0","0","0","62175","","null","","","null","14","","NaN","","","","","","","","","","","","","",""
"","response","","html-keyboard-response","95","199480","0.0-1.0-131.0","0","0","62175","","784","","","75","14","","","1","14","training","adjacent","CB","3","2","P.jpg","N.jpg","1","0","0","",""
"","feedback","","html-keyboard-response","96","200482","0.0-1.0-132.0-0.0","0","0","62175","","null","","","null","14","","","","","","","","","","","","","","","",""
"","time_out","","html-keyboard-response","97","202485","0.0-1.0-134.0-0.0","0","0","62175","","null","","","null","14","","","","","","","","","","","","","","","",""
"","ITI","","html-keyboard-response","98","203488","0.0-1.0-135.0","0","0","62175","","null","","","null","14","","","","","","","","","","","","","","","NaN",""
"","S1","","html-keyboard-response","99","203742","0.0-1.0-137.0","0","0","62175","","null","","","null","15","","","","","","","","","","","","","","","",""
"","ISI","","html-keyboard-response","100","205744","0.0-1.0-138.0","0","0","62175","","null","","","null","15","NaN","","","","","","","","","","","","","","",""
"","S2","","html-keyboard-response","101","205997","0.0-1.0-139.0","0","0","62175","","null","","","null","15","","NaN","","","","","","","","","","","","","",""
"","response","","html-keyboard-response","102","206345","0.0-1.0-140.0","0","0","62175","","345","","","68","15","","","1","15","training","adjacent","BA","2","1","N.jpg","O.jpg","0","0","1","",""
"","feedback","","html-keyboard-response","103","207348","0.0-1.0-141.0-0.0","0","0","62175","","null","","","null","15","","","","","","","","","","","","","","","",""
"","ITI","","html-keyboard-response","104","208351","0.0-1.0-144.0","0","0","62175","","null","","","null","15","","","","","","","","","","","","","","","NaN",""
"","S1","","html-keyboard-response","105","208603","0.0-1.0-146.0","0","0","62175","","null","","","null","16","","","","","","","","","","","","","","","",""
"","ISI","","html-keyboard-response","106","210607","0.0-1.0-147.0","0","0","62175","","null","","","null","16","NaN","","","","","","","","","","","","","","",""
"","S2","","html-keyboard-response","107","210860","0.0-1.0-148.0","0","0","62175","","null","","","null","16","","NaN","","","","","","","","","","","","","",""
"","response","","html-keyboard-response","108","211177","0.0-1.0-149.0","0","0","62175","","315","","","68","16","","","1","16","training","adjacent","ED","5","4","L.jpg","M.jpg","0","0","1","",""
"","feedback","","html-keyboard-response","109","212181","0.0-1.0-150.0-0.0","0","0","62175","","null","","","null","16","","","","","","","","","","","","","","","",""
"","ITI","","html-keyboard-response","110","213184","0.0-1.0-153.0","0","0","62175","","null","","","null","16","","","","","","","","","","","","","","","NaN",""
"","S1","","html-keyboard-response","111","213442","0.0-1.0-155.0","0","0","62175","","null","","","null","17","","","","","","","","","","","","","","","",""
"","ISI","","html-keyboard-response","112","215446","0.0-1.0-156.0","0","0","62175","","null","","","null","17","NaN","","","","","","","","","","","","","","",""
"","S2","","html-keyboard-response","113","215700","0.0-1.0-157.0","0","0","62175","","null","","","null","17","","NaN","","","","","","","","","","","","","",""
"","response","","html-keyboard-response","114","216118","0.0-1.0-158.0","0","0","62175","","414","","","75","17","","","1","17","training","adjacent","FG","6","7","R.jpg","Q.jpg","1","1","1","",""
"","feedback","","html-keyboard-response","115","217132","0.0-1.0-159.0-0.0","0","0","62175","","null","","","null","17","","","","","","","","","","","","","","","",""
"","ITI","","html-keyboard-response","116","218135","0.0-1.0-162.0","0","0","62175","","null","","","null","17","","","","","","","","","","","","","","","NaN",""
"","S1","","html-keyboard-response","117","218390","0.0-1.0-164.0","0","0","62175","","null","","","null","18","","","","","","","","","","","","","","","",""
"","ISI","","html-keyboard-response","118","220394","0.0-1.0-165.0","0","0","62175","","null","","","null","18","NaN","","","","","","","","","","","","","","",""
"","S2","","html-keyboard-response","119","220647","0.0-1.0-166.0","0","0","62175","","null","","","null","18","","NaN","","","","","","","","","","","","","",""
"","response","","html-keyboard-response","120","220865","0.0-1.0-167.0","0","0","62175","","216","","","68","18","","","1","18","training","adjacent","EF","5","6","L.jpg","R.jpg","0","1","0","",""
"","feedback","","html-keyboard-response","121","221869","0.0-1.0-168.0-0.0","0","0","62175","","null","","","null","18","","","","","","","","","","","","","","","",""
"","time_out","","html-keyboard-response","122","223872","0.0-1.0-170.0-0.0","0","0","62175","","null","","","null","18","","","","","","","","","","","","","","","",""
"","ITI","","html-keyboard-response","123","224875","0.0-1.0-171.0","0","0","62175","","null","","","null","18","","","","","","","","","","","","","","","NaN",""
"","S1","","html-keyboard-response","124","225129","0.0-1.0-173.0","0","0","62175","","null","","","null","19","","","","","","","","","","","","","","","",""
"","ISI","","html-keyboard-response","125","227132","0.0-1.0-174.0","0","0","62175","","null","","","null","19","NaN","","","","","","","","","","","","","","",""
"","S2","","html-keyboard-response","126","227385","0.0-1.0-175.0","0","0","62175","","null","","","null","19","","NaN","","","","","","","","","","","","","",""
"","response","","html-keyboard-response","127","227425","0.0-1.0-176.0","0","0","62175","","37","","","68","19","","","1","19","training","adjacent","GF","7","6","Q.jpg","R.jpg","0","0","1","",""
"","feedback","","html-keyboard-response","128","228428","0.0-1.0-177.0-0.0","0","0","62175","","null","","","null","19","","","","","","","","","","","","","","","",""
"","ITI","","html-keyboard-response","129","229432","0.0-1.0-180.0","0","0","62175","","null","","","null","19","","","","","","","","","","","","","","","NaN",""
"","S1","","html-keyboard-response","130","229685","0.0-1.0-182.0","0","0","62175","","null","","","null","20","","","","","","","","","","","","","","","",""
"","ISI","","html-keyboard-response","131","231688","0.0-1.0-183.0","0","0","62175","","null","","","null","20","NaN","","","","","","","","","","","","","","",""
"","S2","","html-keyboard-response","132","231941","0.0-1.0-184.0","0","0","62175","","null","","","null","20","","NaN","","","","","","","","","","","","","",""
"","response","","html-keyboard-response","133","232369","0.0-1.0-185.0","0","0","62175","","425","","","75","20","","","1","20","training","adjacent","CD","3","4","P.jpg","M.jpg","1","1","1","",""
"","feedback","","html-keyboard-response","134","233373","0.0-1.0-186.0-0.0","0","0","62175","","null","","","null","20","","","","","","","","","","","","","","","",""
"","ITI","","html-keyboard-response","135","234375","0.0-1.0-189.0","0","0","62175","","null","","","null","20","","","","","","","","","","","","","","","NaN",""
"","S1","","html-keyboard-response","136","234630","0.0-1.0-191.0","0","0","62175","","null","","","null","21","","","","","","","","","","","","","","","",""
"","ISI","","html-keyboard-response","137","236632","0.0-1.0-192.0","0","0","62175","","null","","","null","21","NaN","","","","","","","","","","","","","","",""
"","S2","","html-keyboard-response","138","236885","0.0-1.0-193.0","0","0","62175","","null","","","null","21","","NaN","","","","","","","","","","","","","",""
"","response","","html-keyboard-response","139","237153","0.0-1.0-194.0","0","0","62175","","265","","","75","21","","","1","21","training","adjacent","AB","1","2","O.jpg","N.jpg","1","1","1","",""
"","feedback","","html-keyboard-response","140","238158","0.0-1.0-195.0-0.0","0","0","62175","","null","","","null","21","","","","","","","","","","","","","","","",""
"","ITI","","html-keyboard-response","141","239161","0.0-1.0-198.0","0","0","62175","","null","","","null","21","","","","","","","","","","","","","","","NaN",""
"","S1","","html-keyboard-response","142","239414","0.0-1.0-200.0","0","0","62175","","null","","","null","22","","","","","","","","","","","","","","","",""
"","ISI","","html-keyboard-response","143","241425","0.0-1.0-201.0","0","0","62175","","null","","","null","22","NaN","","","","","","","","","","","","","","",""
"","S2","","html-keyboard-response","144","241678","0.0-1.0-202.0","0","0","62175","","null","","","null","22","","NaN","","","","","","","","","","","","","",""
"","response","","html-keyboard-response","145","241944","0.0-1.0-203.0","0","0","62175","","264","","","75","22","","","1","22","training","adjacent","FE","6","5","R.jpg","L.jpg","1","0","0","",""
"","feedback","","html-keyboard-response","146","242948","0.0-1.0-204.0-0.0","0","0","62175","","null","","","null","22","","","","","","","","","","","","","","","",""
"","time_out","","html-keyboard-response","147","244951","0.0-1.0-206.0-0.0","0","0","62175","","null","","","null","22","","","","","","","","","","","","","","","",""
"","ITI","","html-keyboard-response","148","245953","0.0-1.0-207.0","0","0","62175","","null","","","null","22","","","","","","","","","","","","","","","NaN",""
"","S1","","html-keyboard-response","149","246206","0.0-1.0-209.0","0","0","62175","","null","","","null","23","","","","","","","","","","","","","","","",""
"","ISI","","html-keyboard-response","150","248209","0.0-1.0-210.0","0","0","62175","","null","","","null","23","NaN","","","","","","","","","","","","","","",""
"","S2","","html-keyboard-response","151","248463","0.0-1.0-211.0","0","0","62175","","null","","","null","23","","NaN","","","","","","","","","","","","","",""
"","response","","html-keyboard-response","152","248472","0.0-1.0-212.0","0","0","62175","","8","","","68","23","","","1","23","training","adjacent","ED","5","4","L.jpg","M.jpg","0","0","1","",""
"","feedback","","html-keyboard-response","153","249475","0.0-1.0-213.0-0.0","0","0","62175","","null","","","null","23","","","","","","","","","","","","","","","",""
"","ITI","","html-keyboard-response","154","250479","0.0-1.0-216.0","0","0","62175","","null","","","null","23","","","","","","","","","","","","","","","NaN",""
"","S1","","html-keyboard-response","155","250733","0.0-1.0-218.0","0","0","62175","","null","","","null","24","","","","","","","","","","","","","","","",""
"","ISI","","html-keyboard-response","156","252737","0.0-1.0-219.0","0","0","62175","","null","","","null","24","NaN","","","","","","","","","","","","","","",""
"","S2","","html-keyboard-response","157","252990","0.0-1.0-220.0","0","0","62175","","null","","","null","24","","NaN","","","","","","","","","","","","","",""
"","response","","html-keyboard-response","158","253232","0.0-1.0-221.0","0","0","62175","","241","","","68","24","","","1","24","training","adjacent","BC","2","3","N.jpg","P.jpg","0","1","0","",""
"","feedback","","html-keyboard-response","159","254236","0.0-1.0-222.0-0.0","0","0","62175","","null","","","null","24","","","","","","","","","","","","","","","",""
"","time_out","","html-keyboard-response","160","256239","0.0-1.0-224.0-0.0","0","0","62175","","null","","","null","24","","","","","","","","","","","","","","","",""
"","ITI","","html-keyboard-response","161","257242","0.0-1.0-225.0","0","0","62175","","null","","","null","24","","","","","","","","","","","","","","","NaN",""
"","S1","","html-keyboard-response","162","257494","0.0-1.0-227.0","0","0","62175","","null","","","null","25","","","","","","","","","","","","","","","",""
"","ISI","","html-keyboard-response","163","259498","0.0-1.0-228.0","0","0","62175","","null","","","null","25","NaN","","","","","","","","","","","","","","",""
"","S2","","html-keyboard-response","164","259750","0.0-1.0-229.0","0","0","62175","","null","","","null","25","","NaN","","","","","","","","","","","","","",""
"","response","","html-keyboard-response","165","260016","0.0-1.0-230.0","0","0","62175","","264","","","75","25","","","1","25","training","adjacent","DC","4","3","M.jpg","P.jpg","1","0","0","",""
"","feedback","","html-keyboard-response","166","261032","0.0-1.0-231.0-0.0","0","0","62175","","null","","","null","25","","","","","","","","","","","","","","","",""
"","time_out","","html-keyboard-response","167","263034","0.0-1.0-233.0-0.0","0","0","62175","","null","","","null","25","","","","","","","","","","","","","","","",""
"","ITI","","html-keyboard-response","168","264038","0.0-1.0-234.0","0","0","62175","","null","","","null","25","","","","","","","","","","","","","","","NaN",""
"","S1","","html-keyboard-response","169","264291","0.0-1.0-236.0","0","0","62175","","null","","","null","26","","","","","","","","","","","","","","","",""
"","ISI","","html-keyboard-response","170","266293","0.0-1.0-237.0","0","0","62175","","null","","","null","26","NaN","","","","","","","","","","","","","","",""
"","S2","","html-keyboard-response","171","266546","0.0-1.0-238.0","0","0","62175","","null","","","null","26","","NaN","","","","","","","","","","","","","",""
"","response","","html-keyboard-response","172","267089","0.0-1.0-239.0","0","0","62175","","540","","","75","26","","","1","26","training","adjacent","DE","4","5","M.jpg","L.jpg","1","1","1","",""
"","feedback","","html-keyboard-response","173","268091","0.0-1.0-240.0-0.0","0","0","62175","","null","","","null","26","","","","","","","","","","","","","","","",""
"","ITI","","html-keyboard-response","174","269094","0.0-1.0-243.0","0","0","62175","","null","","","null","26","","","","","","","","","","","","","","","NaN",""
"","S1","","html-keyboard-response","175","269348","0.0-1.0-245.0","0","0","62175","","null","","","null","27","","","","","","","","","","","","","","","",""
"","ISI","","html-keyboard-response","176","271351","0.0-1.0-246.0","0","0","62175","","null","","","null","27","NaN","","","","","","","","","","","","","","",""
"","S2","","html-keyboard-response","177","271603","0.0-1.0-247.0","0","0","62175","","null","","","null","27","","NaN","","","","","","","","","","","","","",""
"","response","","html-keyboard-response","178","271896","0.0-1.0-248.0","0","0","62175","","291","","","75","27","","","1","27","training","adjacent","CD","3","4","P.jpg","M.jpg","1","1","1","",""
"","feedback","","html-keyboard-response","179","272899","0.0-1.0-249.0-0.0","0","0","62175","","null","","","null","27","","","","","","","","","","","","","","","",""
"","ITI","","html-keyboard-response","180","273903","0.0-1.0-252.0","0","0","62175","","null","","","null","27","","","","","","","","","","","","","","","NaN",""
"","S1","","html-keyboard-response","181","274157","0.0-1.0-254.0","0","0","62175","","null","","","null","28","","","","","","","","","","","","","","","",""
"","ISI","","html-keyboard-response","182","276160","0.0-1.0-255.0","0","0","62175","","null","","","null","28","NaN","","","","","","","","","","","","","","",""
"","S2","","html-keyboard-response","183","276413","0.0-1.0-256.0","0","0","62175","","null","","","null","28","","NaN","","","","","","","","","","","","","",""
"","response","","html-keyboard-response","184","278417","0.0-1.0-257.0","0","0","62175","","null","","","null","28","","","1","28","training","adjacent","CB","3","2","P.jpg","N.jpg","NaN","0","0","",""
"","too_slow_prompt","","html-keyboard-response","185","279419","0.0-1.0-259.0-0.0","1","0","62175","","null","","","null","","","","","","","","","","","","","","","","",""
"","time_out","","html-keyboard-response","186","281422","0.0-1.0-260.0-0.0","0","0","62175","","null","","","null","28","","","","","","","","","","","","","","","",""
"","ITI","","html-keyboard-response","187","282426","0.0-1.0-261.0","0","0","62175","","null","","","null","28","","","","","","","","","","","","","","","NaN",""
"","S1","","html-keyboard-response","188","282679","0.0-1.0-263.0","0","0","62175","","null","","","null","29","","","","","","","","","","","","","","","",""
"","ISI","","html-keyboard-response","189","284681","0.0-1.0-264.0","0","0","62175","","null","","","null","29","NaN","","","","","","","","","","","","","","",""
"","S2","","html-keyboard-response","190","284935","0.0-1.0-265.0","0","0","62175","","null","","","null","29","","NaN","","","","","","","","","","","","","",""
"","response","","html-keyboard-response","191","285008","0.0-1.0-266.0","0","0","62175","","72","","","68","29","","","1","29","training","adjacent","GF","7","6","Q.jpg","R.jpg","0","0","1","",""
"","feedback","","html-keyboard-response","192","286026","0.0-1.0-267.0-0.0","0","0","62175","","null","","","null","29","","","","","","","","","","","","","","","",""
"","ITI","","html-keyboard-response","193","287030","0.0-1.0-270.0","0","0","62175","","null","","","null","29","","","","","","","","","","","","","","","NaN",""
"","S1","","html-keyboard-response","194","287284","0.0-1.0-272.0","0","0","62175","","null","","","null","30","","","","","","","","","","","","","","","",""
"","ISI","","html-keyboard-response","195","289288","0.0-1.0-273.0","0","0","62175","","null","","","null","30","NaN","","","","","","","","","","","","","","",""
"","S2","","html-keyboard-response","196","289541","0.0-1.0-274.0","0","0","62175","","null","","","null","30","","NaN","","","","","","","","","","","","","",""
"","response","","html-keyboard-response","197","290192","0.0-1.0-275.0","0","0","62175","","649","","","75","30","","","1","30","training","adjacent","BC","2","3","N.jpg","P.jpg","1","1","1","",""
"","feedback","","html-keyboard-response","198","291200","0.0-1.0-276.0-0.0","0","0","62175","","null","","","null","30","","","","","","","","","","","","","","","",""
"","ITI","","html-keyboard-response","199","292202","0.0-1.0-279.0","0","0","62175","","null","","","null","30","","","","","","","","","","","","","","","NaN",""
"","S1","","html-keyboard-response","200","292457","0.0-1.0-281.0","0","0","62175","","null","","","null","31","","","","","","","","","","","","","","","",""
"","ISI","","html-keyboard-response","201","294459","0.0-1.0-282.0","0","0","62175","","null","","","null","31","NaN","","","","","","","","","","","","","","",""
"","S2","","html-keyboard-response","202","294713","0.0-1.0-283.0","0","0","62175","","null","","","null","31","","NaN","","","","","","","","","","","","","",""
"","response","","html-keyboard-response","203","295224","0.0-1.0-284.0","0","0","62175","","509","","","75","31","","","1","31","training","adjacent","DC","4","3","M.jpg","P.jpg","1","0","0","",""
"","feedback","","html-keyboard-response","204","296228","0.0-1.0-285.0-0.0","0","0","62175","","null","","","null","31","","","","","","","","","","","","","","","",""
"","time_out","","html-keyboard-response","205","298231","0.0-1.0-287.0-0.0","0","0","62175","","null","","","null","31","","","","","","","","","","","","","","","",""
"","ITI","","html-keyboard-response","206","299234","0.0-1.0-288.0","0","0","62175","","null","","","null","31","","","","","","","","","","","","","","","NaN",""
"","S1","","html-keyboard-response","207","299487","0.0-1.0-290.0","0","0","62175","","null","","","null","32","","","","","","","","","","","","","","","",""
"","ISI","","html-keyboard-response","208","301490","0.0-1.0-291.0","0","0","62175","","null","","","null","32","NaN","","","","","","","","","","","","","","",""
"","S2","","html-keyboard-response","209","301743","0.0-1.0-292.0","0","0","62175","","null","","","null","32","","NaN","","","","","","","","","","","","","",""
"","response","","html-keyboard-response","210","301793","0.0-1.0-293.0","0","0","62175","","48","","","75","32","","","1","32","training","adjacent","AB","1","2","O.jpg","N.jpg","1","1","1","",""
"","feedback","","html-keyboard-response","211","302796","0.0-1.0-294.0-0.0","0","0","62175","","null","","","null","32","","","","","","","","","","","","","","","",""
"","ITI","","html-keyboard-response","212","303800","0.0-1.0-297.0","0","0","62175","","null","","","null","32","","","","","","","","","","","","","","","NaN",""
"","S1","","html-keyboard-response","213","304053","0.0-1.0-299.0","0","0","62175","","null","","","null","33","","","","","","","","","","","","","","","",""
"","ISI","","html-keyboard-response","214","306057","0.0-1.0-300.0","0","0","62175","","null","","","null","33","NaN","","","","","","","","","","","","","","",""
"","S2","","html-keyboard-response","215","306309","0.0-1.0-301.0","0","0","62175","","null","","","null","33","","NaN","","","","","","","","","","","","","",""
"","response","","html-keyboard-response","216","308312","0.0-1.0-302.0","0","0","62175","","null","","","null","33","","","1","33","training","adjacent","BA","2","1","N.jpg","O.jpg","NaN","0","0","",""
"","too_slow_prompt","","html-keyboard-response","217","309314","0.0-1.0-304.0-0.0","1","0","62175","","null","","","null","","","","","","","","","","","","","","","","",""
"","time_out","","html-keyboard-response","218","311317","0.0-1.0-305.0-0.0","0","0","62175","","null","","","null","33","","","","","","","","","","","","","","","",""
"","ITI","","html-keyboard-response","219","312321","0.0-1.0-306.0","0","0","62175","","null","","","null","33","","","","","","","","","","","","","","","NaN",""
"","S1","","html-keyboard-response","220","312573","0.0-1.0-308.0","0","0","62175","","null","","","null","34","","","","","","","","","","","","","","","",""
"","ISI","","html-keyboard-response","221","314575","0.0-1.0-309.0","0","0","62175","","null","","","null","34","NaN","","","","","","","","","","","","","","",""
"","S2","","html-keyboard-response","222","314829","0.0-1.0-310.0","0","0","62175","","null","","","null","34","","NaN","","","","","","","","","","","","","",""
"","response","","html-keyboard-response","223","315065","0.0-1.0-311.0","0","0","62175","","233","","","68","34","","","1","34","training","adjacent","BA","2","1","N.jpg","O.jpg","0","0","1","",""
"","feedback","","html-keyboard-response","224","316069","0.0-1.0-312.0-0.0","0","0","62175","","null","","","null","34","","","","","","","","","","","","","","","",""
"","ITI","","html-keyboard-response","225","317073","0.0-1.0-315.0","0","0","62175","","null","","","null","34","","","","","","","","","","","","","","","NaN",""
"","S1","","html-keyboard-response","226","317326","0.0-1.0-317.0","0","0","62175","","null","","","null","35","","","","","","","","","","","","","","","",""
"","ISI","","html-keyboard-response","227","319329","0.0-1.0-318.0","0","0","62175","","null","","","null","35","NaN","","","","","","","","","","","","","","",""
"","S2","","html-keyboard-response","228","319582","0.0-1.0-319.0","0","0","62175","","null","","","null","35","","NaN","","","","","","","","","","","","","",""
"","response","","html-keyboard-response","229","319673","0.0-1.0-320.0","0","0","62175","","88","","","68","35","","","1","35","training","adjacent","CB","3","2","P.jpg","N.jpg","0","0","1","",""
"","feedback","","html-keyboard-response","230","320677","0.0-1.0-321.0-0.0","0","0","62175","","null","","","null","35","","","","","","","","","","","","","","","",""
"","ITI","","html-keyboard-response","231","321679","0.0-1.0-324.0","0","0","62175","","null","","","null","35","","","","","","","","","","","","","","","NaN",""
"","S1","","html-keyboard-response","232","321932","0.0-1.0-326.0","0","0","62175","","null","","","null","36","","","","","","","","","","","","","","","",""
"","ISI","","html-keyboard-response","233","323935","0.0-1.0-327.0","0","0","62175","","null","","","null","36","NaN","","","","","","","","","","","","","","",""
"","S2","","html-keyboard-response","234","324187","0.0-1.0-328.0","0","0","62175","","null","","","null","36","","NaN","","","","","","","","","","","","","",""
"","response","","html-keyboard-response","235","324354","0.0-1.0-329.0","0","0","62175","","163","","","75","36","","","1","36","training","adjacent","FE","6","5","R.jpg","L.jpg","1","0","0","",""
"","feedback","","html-keyboard-response","236","325357","0.0-1.0-330.0-0.0","0","0","62175","","null","","","null","36","","","","","","","","","","","","","","","",""
"","time_out","","html-keyboard-response","237","327360","0.0-1.0-332.0-0.0","0","0","62175","","null","","","null","36","","","","","","","","","","","","","","","",""
"","ITI","","html-keyboard-response","238","328364","0.0-1.0-333.0","0","0","62175","","null","","","null","36","","","","","","","","","","","","","","","NaN",""
"","S1","","html-keyboard-response","239","328617","0.0-1.0-335.0","0","0","62175","","null","","","null","37","","","","","","","","","","","","","","","",""
"","ISI","","html-keyboard-response","240","330619","0.0-1.0-336.0","0","0","62175","","null","","","null","37","NaN","","","","","","","","","","","","","","",""
"","S2","","html-keyboard-response","241","330872","0.0-1.0-337.0","0","0","62175","","null","","","null","37","","NaN","","","","","","","","","","","","","",""
"","response","","html-keyboard-response","242","331057","0.0-1.0-338.0","0","0","62175","","182","","","68","37","","","1","37","training","adjacent","BA","2","1","N.jpg","O.jpg","0","0","1","",""
"","feedback","","html-keyboard-response","243","332060","0.0-1.0-339.0-0.0","0","0","62175","","null","","","null","37","","","","","","","","","","","","","","","",""
"","ITI","","html-keyboard-response","244","333062","0.0-1.0-342.0","0","0","62175","","null","","","null","37","","","","","","","","","","","","","","","NaN",""
"","S1","","html-keyboard-response","245","333317","0.0-1.0-344.0","0","0","62175","","null","","","null","38","","","","","","","","","","","","","","","",""
"","ISI","","html-keyboard-response","246","335319","0.0-1.0-345.0","0","0","62175","","null","","","null","38","NaN","","","","","","","","","","","","","","",""
"","S2","","html-keyboard-response","247","335573","0.0-1.0-346.0","0","0","62175","","null","","","null","38","","NaN","","","","","","","","","","","","","",""
"","response","","html-keyboard-response","248","335849","0.0-1.0-347.0","0","0","62175","","273","","","75","38","","","1","38","training","adjacent","DC","4","3","M.jpg","P.jpg","1","0","0","",""
"","feedback","","html-keyboard-response","249","336852","0.0-1.0-348.0-0.0","0","0","62175","","null","","","null","38","","","","","","","","","","","","","","","",""
"","time_out","","html-keyboard-response","250","338854","0.0-1.0-350.0-0.0","0","0","62175","","null","","","null","38","","","","","","","","","","","","","","","",""
"","ITI","","html-keyboard-response","251","339858","0.0-1.0-351.0","0","0","62175","","null","","","null","38","","","","","","","","","","","","","","","NaN",""
"","S1","","html-keyboard-response","252","340110","0.0-1.0-353.0","0","0","62175","","null","","","null","39","","","","","","","","","","","","","","","",""
"","ISI","","html-keyboard-response","253","342114","0.0-1.0-354.0","0","0","62175","","null","","","null","39","NaN","","","","","","","","","","","","","","",""
"","S2","","html-keyboard-response","254","342366","0.0-1.0-355.0","0","0","62175","","null","","","null","39","","NaN","","","","","","","","","","","","","",""
"","response","","html-keyboard-response","255","342473","0.0-1.0-356.0","0","0","62175","","104","","","68","39","","","1","39","training","adjacent","GF","7","6","Q.jpg","R.jpg","0","0","1","",""
"","feedback","","html-keyboard-response","256","343477","0.0-1.0-357.0-0.0","0","0","62175","","null","","","null","39","","","","","","","","","","","","","","","",""
"","ITI","","html-keyboard-response","257","344479","0.0-1.0-360.0","0","0","62175","","null","","","null","39","","","","","","","","","","","","","","","NaN",""
"","S1","","html-keyboard-response","258","344732","0.0-1.0-362.0","0","0","62175","","null","","","null","40","","","","","","","","","","","","","","","",""
"","ISI","","html-keyboard-response","259","346736","0.0-1.0-363.0","0","0","62175","","null","","","null","40","NaN","","","","","","","","","","","","","","",""
"","S2","","html-keyboard-response","260","346989","0.0-1.0-364.0","0","0","62175","","null","","","null","40","","NaN","","","","","","","","","","","","","",""
"","response","","html-keyboard-response","261","347328","0.0-1.0-365.0","0","0","62175","","337","","","75","40","","","1","40","training","adjacent","EF","5","6","L.jpg","R.jpg","1","1","1","",""
"","feedback","","html-keyboard-response","262","348331","0.0-1.0-366.0-0.0","0","0","62175","","null","","","null","40","","","","","","","","","","","","","","","",""
"","ITI","","html-keyboard-response","263","349334","0.0-1.0-369.0","0","0","62175","","null","","","null","40","","","","","","","","","","","","","","","NaN",""
"","S1","","html-keyboard-response","264","349588","0.0-1.0-371.0","0","0","62175","","null","","","null","41","","","","","","","","","","","","","","","",""
"","ISI","","html-keyboard-response","265","351591","0.0-1.0-372.0","0","0","62175","","null","","","null","41","NaN","","","","","","","","","","","","","","",""
"","S2","","html-keyboard-response","266","351843","0.0-1.0-373.0","0","0","62175","","null","","","null","41","","NaN","","","","","","","","","","","","","",""
"","response","","html-keyboard-response","267","352321","0.0-1.0-374.0","0","0","62175","","475","","","75","41","","","1","41","training","adjacent","ED","5","4","L.jpg","M.jpg","1","0","0","",""
"","feedback","","html-keyboard-response","268","353324","0.0-1.0-375.0-0.0","0","0","62175","","null","","","null","41","","","","","","","","","","","","","","","",""
"","time_out","","html-keyboard-response","269","355328","0.0-1.0-377.0-0.0","0","0","62175","","null","","","null","41","","","","","","","","","","","","","","","",""
"","ITI","","html-keyboard-response","270","356331","0.0-1.0-378.0","0","0","62175","","null","","","null","41","","","","","","","","","","","","","","","NaN",""
"","S1","","html-keyboard-response","271","356583","0.0-1.0-380.0","0","0","62175","","null","","","null","42","","","","","","","","","","","","","","","",""
"","ISI","","html-keyboard-response","272","358586","0.0-1.0-381.0","0","0","62175","","null","","","null","42","NaN","","","","","","","","","","","","","","",""
"","S2","","html-keyboard-response","273","358839","0.0-1.0-382.0","0","0","62175","","null","","","null","42","","NaN","","","","","","","","","","","","","",""
"","response","","html-keyboard-response","274","359152","0.0-1.0-383.0","0","0","62175","","310","","","75","42","","","1","42","training","adjacent","FE","6","5","R.jpg","L.jpg","1","0","0","",""
"","feedback","","html-keyboard-response","275","360156","0.0-1.0-384.0-0.0","0","0","62175","","null","","","null","42","","","","","","","","","","","","","","","",""
"","time_out","","html-keyboard-response","276","362159","0.0-1.0-386.0-0.0","0","0","62175","","null","","","null","42","","","","","","","","","","","","","","","",""
"","ITI","","html-keyboard-response","277","363162","0.0-1.0-387.0","0","0","62175","","null","","","null","42","","","","","","","","","","","","","","","NaN",""
"","S1","","html-keyboard-response","278","363414","0.0-1.0-389.0","0","0","62175","","null","","","null","43","","","","","","","","","","","","","","","",""
"","ISI","","html-keyboard-response","279","365417","0.0-1.0-390.0","0","0","62175","","null","","","null","43","NaN","","","","","","","","","","","","","","",""
"","S2","","html-keyboard-response","280","365671","0.0-1.0-391.0","0","0","62175","","null","","","null","43","","NaN","","","","","","","","","","","","","",""
"","response","","html-keyboard-response","281","366673","0.0-1.0-392.0","0","0","62175","","998","","","68","43","","","1","43","training","adjacent","EF","5","6","L.jpg","R.jpg","0","1","0","",""
"","feedback","","html-keyboard-response","282","367676","0.0-1.0-393.0-0.0","0","0","62175","","null","","","null","43","","","","","","","","","","","","","","","",""
"","time_out","","html-keyboard-response","283","369679","0.0-1.0-395.0-0.0","0","0","62175","","null","","","null","43","","","","","","","","","","","","","","","",""
"","ITI","","html-keyboard-response","284","370682","0.0-1.0-396.0","0","0","62175","","null","","","null","43","","","","","","","","","","","","","","","NaN",""
"","S1","","html-keyboard-response","285","370935","0.0-1.0-398.0","0","0","62175","","null","","","null","44","","","","","","","","","","","","","","","",""
"","ISI","","html-keyboard-response","286","372938","0.0-1.0-399.0","0","0","62175","","null","","","null","44","NaN","","","","","","","","","","","","","","",""
"","S2","","html-keyboard-response","287","373190","0.0-1.0-400.0","0","0","62175","","null","","","null","44","","NaN","","","","","","","","","","","","","",""
"","response","","html-keyboard-response","288","373656","0.0-1.0-401.0","0","0","62175","","464","","","75","44","","","1","44","training","adjacent","BC","2","3","N.jpg","P.jpg","1","1","1","",""
"","feedback","","html-keyboard-response","289","374672","0.0-1.0-402.0-0.0","0","0","62175","","null","","","null","44","","","","","","","","","","","","","","","",""
"","ITI","","html-keyboard-response","290","375675","0.0-1.0-405.0","0","0","62175","","null","","","null","44","","","","","","","","","","","","","","","NaN",""
"","S1","","html-keyboard-response","291","375928","0.0-1.0-407.0","0","0","62175","","null","","","null","45","","","","","","","","","","","","","","","",""
"","ISI","","html-keyboard-response","292","377931","0.0-1.0-408.0","0","0","62175","","null","","","null","45","NaN","","","","","","","","","","","","","","",""
"","S2","","html-keyboard-response","293","378183","0.0-1.0-409.0","0","0","62175","","null","","","null","45","","NaN","","","","","","","","","","","","","",""
"","response","","html-keyboard-response","294","378576","0.0-1.0-410.0","0","0","62175","","391","","","68","45","","","1","45","training","adjacent","AB","1","2","O.jpg","N.jpg","0","1","0","",""
"","feedback","","html-keyboard-response","295","379579","0.0-1.0-411.0-0.0","0","0","62175","","null","","","null","45","","","","","","","","","","","","","","","",""
"","time_out","","html-keyboard-response","296","381582","0.0-1.0-413.0-0.0","0","0","62175","","null","","","null","45","","","","","","","","","","","","","","","",""
"","ITI","","html-keyboard-response","297","382584","0.0-1.0-414.0","0","0","62175","","null","","","null","45","","","","","","","","","","","","","","","NaN",""
"","S1","","html-keyboard-response","298","382837","0.0-1.0-416.0","0","0","62175","","null","","","null","46","","","","","","","","","","","","","","","",""
"","ISI","","html-keyboard-response","299","384840","0.0-1.0-417.0","0","0","62175","","null","","","null","46","NaN","","","","","","","","","","","","","","",""
"","S2","","html-keyboard-response","300","385093","0.0-1.0-418.0","0","0","62175","","null","","","null","46","","NaN","","","","","","","","","","","","","",""
"","response","","html-keyboard-response","301","385400","0.0-1.0-419.0","0","0","62175","","305","","","75","46","","","1","46","training","adjacent","CD","3","4","P.jpg","M.jpg","1","1","1","",""
"","feedback","","html-keyboard-response","302","386403","0.0-1.0-420.0-0.0","0","0","62175","","null","","","null","46","","","","","","","","","","","","","","","",""
"","ITI","","html-keyboard-response","303","387406","0.0-1.0-423.0","0","0","62175","","null","","","null","46","","","","","","","","","","","","","","","NaN",""
"","S1","","html-keyboard-response","304","387659","0.0-1.0-425.0","0","0","62175","","null","","","null","47","","","","","","","","","","","","","","","",""
"","ISI","","html-keyboard-response","305","389662","0.0-1.0-426.0","0","0","62175","","null","","","null","47","NaN","","","","","","","","","","","","","","",""
"","S2","","html-keyboard-response","306","389916","0.0-1.0-427.0","0","0","62175","","null","","","null","47","","NaN","","","","","","","","","","","","","",""
"","response","","html-keyboard-response","307","390552","0.0-1.0-428.0","0","0","62175","","633","","","68","47","","","1","47","training","adjacent","DC","4","3","M.jpg","P.jpg","0","0","1","",""
"","feedback","","html-keyboard-response","308","391556","0.0-1.0-429.0-0.0","0","0","62175","","null","","","null","47","","","","","","","","","","","","","","","",""
"","ITI","","html-keyboard-response","309","392559","0.0-1.0-432.0","0","0","62175","","null","","","null","47","","","","","","","","","","","","","","","NaN",""
"","block_over","","html-keyboard-response","310","395800","0.0-1.0-433.0-0.0","0","0","62175","","3238","","","32","47","","","","","","","","","","","","","","","",""
"","S1","","html-keyboard-response","311","396053","0.0-1.0-434.0","0","0","62175","","null","","","null","48","","","","","","","","","","","","","","","",""
"","ISI","","html-keyboard-response","312","398056","0.0-1.0-435.0","0","0","62175","","null","","","null","48","NaN","","","","","","","","","","","","","","",""
"","S2","","html-keyboard-response","313","398309","0.0-1.0-436.0","0","0","62175","","null","","","null","48","","NaN","","","","","","","","","","","","","",""
"","response","","html-keyboard-response","314","399520","0.0-1.0-437.0","0","0","62175","","1210","","","68","48","","","2","48","training","adjacent","DE","4","5","M.jpg","L.jpg","0","1","0","",""
"","feedback","","html-keyboard-response","315","400524","0.0-1.0-438.0-0.0","0","0","62175","","null","","","null","48","","","","","","","","","","","","","","","",""
"","time_out","","html-keyboard-response","316","402527","0.0-1.0-440.0-0.0","0","0","62175","","null","","","null","48","","","","","","","","","","","","","","","",""
"","ITI","","html-keyboard-response","317","403530","0.0-1.0-441.0","0","0","62175","","null","","","null","48","","","","","","","","","","","","","","","NaN",""
"","S1","","html-keyboard-response","318","403783","0.0-1.0-443.0","0","0","62175","","null","","","null","49","","","","","","","","","","","","","","","",""
"","ISI","","html-keyboard-response","319","405786","0.0-1.0-444.0","0","0","62175","","null","","","null","49","NaN","","","","","","","","","","","","","","",""
"","S2","","html-keyboard-response","320","406038","0.0-1.0-445.0","0","0","62175","","null","","","null","49","","NaN","","","","","","","","","","","","","",""
"","response","","html-keyboard-response","321","406696","0.0-1.0-446.0","0","0","62175","","656","","","68","49","","","2","49","training","adjacent","BA","2","1","N.jpg","O.jpg","0","0","1","",""
"","feedback","","html-keyboard-response","322","407699","0.0-1.0-447.0-0.0","0","0","62175","","null","","","null","49","","","","","","","","","","","","","","","",""
"","ITI","","html-keyboard-response","323","408702","0.0-1.0-450.0","0","0","62175","","null","","","null","49","","","","","","","","","","","","","","","NaN",""
"","S1","","html-keyboard-response","324","408956","0.0-1.0-452.0","0","0","62175","","null","","","null","50","","","","","","","","","","","","","","","",""
"","ISI","","html-keyboard-response","325","410959","0.0-1.0-453.0","0","0","62175","","null","","","null","50","NaN","","","","","","","","","","","","","","",""
"","S2","","html-keyboard-response","326","411213","0.0-1.0-454.0","0","0","62175","","null","","","null","50","","NaN","","","","","","","","","","","","","",""
"","response","","html-keyboard-response","327","411544","0.0-1.0-455.0","0","0","62175","","329","","","75","50","","","2","50","training","adjacent","DC","4","3","M.jpg","P.jpg","1","0","0","",""
"","feedback","","html-keyboard-response","328","412547","0.0-1.0-456.0-0.0","0","0","62175","","null","","","null","50","","","","","","","","","","","","","","","",""
"","time_out","","html-keyboard-response","329","414549","0.0-1.0-458.0-0.0","0","0","62175","","null","","","null","50","","","","","","","","","","","","","","","",""
"","ITI","","html-keyboard-response","330","415551","0.0-1.0-459.0","0","0","62175","","null","","","null","50","","","","","","","","","","","","","","","NaN",""
"","S1","","html-keyboard-response","331","415804","0.0-1.0-461.0","0","0","62175","","null","","","null","51","","","","","","","","","","","","","","","",""
"","ISI","","html-keyboard-response","332","417808","0.0-1.0-462.0","0","0","62175","","null","","","null","51","NaN","","","","","","","","","","","","","","",""
"","S2","","html-keyboard-response","333","418061","0.0-1.0-463.0","0","0","62175","","null","","","null","51","","NaN","","","","","","","","","","","","","",""
"","response","","html-keyboard-response","334","418944","0.0-1.0-464.0","0","0","62175","","881","","","68","51","","","2","51","training","adjacent","CB","3","2","P.jpg","N.jpg","0","0","1","",""
"","feedback","","html-keyboard-response","335","419948","0.0-1.0-465.0-0.0","0","0","62175","","null","","","null","51","","","","","","","","","","","","","","","",""
"","ITI","","html-keyboard-response","336","420950","0.0-1.0-468.0","0","0","62175","","null","","","null","51","","","","","","","","","","","","","","","NaN",""
"","S1","","html-keyboard-response","337","421204","0.0-1.0-470.0","0","0","62175","","null","","","null","52","","","","","","","","","","","","","","","",""
"","ISI","","html-keyboard-response","338","423206","0.0-1.0-471.0","0","0","62175","","null","","","null","52","NaN","","","","","","","","","","","","","","",""
"","S2","","html-keyboard-response","339","423460","0.0-1.0-472.0","0","0","62175","","null","","","null","52","","NaN","","","","","","","","","","","","","",""
"","response","","html-keyboard-response","340","424777","0.0-1.0-473.0","0","0","62175","","1314","","","75","52","","","2","52","training","adjacent","GF","7","6","Q.jpg","R.jpg","1","0","0","",""
"","feedback","","html-keyboard-response","341","425780","0.0-1.0-474.0-0.0","0","0","62175","","null","","","null","52","","","","","","","","","","","","","","","",""
"","time_out","","html-keyboard-response","342","427783","0.0-1.0-476.0-0.0","0","0","62175","","null","","","null","52","","","","","","","","","","","","","","","",""
"","ITI","","html-keyboard-response","343","428786","0.0-1.0-477.0","0","0","62175","","null","","","null","52","","","","","","","","","","","","","","","NaN",""
"","S1","","html-keyboard-response","344","429040","0.0-1.0-479.0","0","0","62175","","null","","","null","53","","","","","","","","","","","","","","","",""
"","ISI","","html-keyboard-response","345","431042","0.0-1.0-480.0","0","0","62175","","null","","","null","53","NaN","","","","","","","","","","","","","","",""
"","S2","","html-keyboard-response","346","431295","0.0-1.0-481.0","0","0","62175","","null","","","null","53","","NaN","","","","","","","","","","","","","",""
"","response","","html-keyboard-response","347","431809","0.0-1.0-482.0","0","0","62175","","511","","","68","53","","","2","53","training","adjacent","ED","5","4","L.jpg","M.jpg","0","0","1","",""
"","feedback","","html-keyboard-response","348","432812","0.0-1.0-483.0-0.0","0","0","62175","","null","","","null","53","","","","","","","","","","","","","","","",""
"","ITI","","html-keyboard-response","349","433814","0.0-1.0-486.0","0","0","62175","","null","","","null","53","","","","","","","","","","","","","","","NaN",""
"","S1","","html-keyboard-response","350","434082","0.0-1.0-488.0","0","0","62175","","null","","","null","54","","","","","","","","","","","","","","","",""
"","ISI","","html-keyboard-response","351","436087","0.0-1.0-489.0","0","0","62175","","null","","","null","54","NaN","","","","","","","","","","","","","","",""
"","S2","","html-keyboard-response","352","436340","0.0-1.0-490.0","0","0","62175","","null","","","null","54","","NaN","","","","","","","","","","","","","",""
"","response","","html-keyboard-response","353","436737","0.0-1.0-491.0","0","0","62175","","394","","","75","54","","","2","54","training","adjacent","DC","4","3","M.jpg","P.jpg","1","0","0","",""
"","feedback","","html-keyboard-response","354","437741","0.0-1.0-492.0-0.0","0","0","62175","","null","","","null","54","","","","","","","","","","","","","","","",""
"","time_out","","html-keyboard-response","355","439744","0.0-1.0-494.0-0.0","0","0","62175","","null","","","null","54","","","","","","","","","","","","","","","",""
"","ITI","","html-keyboard-response","356","440747","0.0-1.0-495.0","0","0","62175","","null","","","null","54","","","","","","","","","","","","","","","NaN",""
"","S1","","html-keyboard-response","357","441002","0.0-1.0-497.0","0","0","62175","","null","","","null","55","","","","","","","","","","","","","","","",""
"","ISI","","html-keyboard-response","358","443005","0.0-1.0-498.0","0","0","62175","","null","","","null","55","NaN","","","","","","","","","","","","","","",""
"","S2","","html-keyboard-response","359","443259","0.0-1.0-499.0","0","0","62175","","null","","","null","55","","NaN","","","","","","","","","","","","","",""
"","response","","html-keyboard-response","360","444521","0.0-1.0-500.0","0","0","62175","","1259","","","75","55","","","2","55","training","adjacent","BA","2","1","N.jpg","O.jpg","1","0","0","",""
"","feedback","","html-keyboard-response","361","445524","0.0-1.0-501.0-0.0","0","0","62175","","null","","","null","55","","","","","","","","","","","","","","","",""
"","time_out","","html-keyboard-response","362","447527","0.0-1.0-503.0-0.0","0","0","62175","","null","","","null","55","","","","","","","","","","","","","","","",""
"","ITI","","html-keyboard-response","363","448529","0.0-1.0-504.0","0","0","62175","","null","","","null","55","","","","","","","","","","","","","","","NaN",""
"","S1","","html-keyboard-response","364","448783","0.0-1.0-506.0","0","0","62175","","null","","","null","56","","","","","","","","","","","","","","","",""
"","ISI","","html-keyboard-response","365","450786","0.0-1.0-507.0","0","0","62175","","null","","","null","56","NaN","","","","","","","","","","","","","","",""
"","S2","","html-keyboard-response","366","451038","0.0-1.0-508.0","0","0","62175","","null","","","null","56","","NaN","","","","","","","","","","","","","",""
"","response","","html-keyboard-response","367","451929","0.0-1.0-509.0","0","0","62175","","888","","","75","56","","","2","56","training","adjacent","ED","5","4","L.jpg","M.jpg","1","0","0","",""
"","feedback","","html-keyboard-response","368","452931","0.0-1.0-510.0-0.0","0","0","62175","","null","","","null","56","","","","","","","","","","","","","","","",""
"","time_out","","html-keyboard-response","369","454934","0.0-1.0-512.0-0.0","0","0","62175","","null","","","null","56","","","","","","","","","","","","","","","",""
"","ITI","","html-keyboard-response","370","455938","0.0-1.0-513.0","0","0","62175","","null","","","null","56","","","","","","","","","","","","","","","NaN",""
"","S1","","html-keyboard-response","371","456192","0.0-1.0-515.0","0","0","62175","","null","","","null","57","","","","","","","","","","","","","","","",""
"","ISI","","html-keyboard-response","372","458195","0.0-1.0-516.0","0","0","62175","","null","","","null","57","NaN","","","","","","","","","","","","","","",""
"","S2","","html-keyboard-response","373","458449","0.0-1.0-517.0","0","0","62175","","null","","","null","57","","NaN","","","","","","","","","","","","","",""
"","response","","html-keyboard-response","374","458720","0.0-1.0-518.0","0","0","62175","","270","","","68","57","","","2","57","training","adjacent","FG","6","7","R.jpg","Q.jpg","0","1","0","",""
"","feedback","","html-keyboard-response","375","459748","0.0-1.0-519.0-0.0","0","0","62175","","null","","","null","57","","","","","","","","","","","","","","","",""
"","time_out","","html-keyboard-response","376","461751","0.0-1.0-521.0-0.0","0","0","62175","","null","","","null","57","","","","","","","","","","","","","","","",""
"","ITI","","html-keyboard-response","377","462754","0.0-1.0-522.0","0","0","62175","","null","","","null","57","","","","","","","","","","","","","","","NaN",""
"","S1","","html-keyboard-response","378","463008","0.0-1.0-524.0","0","0","62175","","null","","","null","58","","","","","","","","","","","","","","","",""
"","ISI","","html-keyboard-response","379","465011","0.0-1.0-525.0","0","0","62175","","null","","","null","58","NaN","","","","","","","","","","","","","","",""
"","S2","","html-keyboard-response","380","465264","0.0-1.0-526.0","0","0","62175","","null","","","null","58","","NaN","","","","","","","","","","","","","",""
"","response","","html-keyboard-response","381","466120","0.0-1.0-527.0","0","0","62175","","854","","","68","58","","","2","58","training","adjacent","FG","6","7","R.jpg","Q.jpg","0","1","0","",""
"","feedback","","html-keyboard-response","382","467124","0.0-1.0-528.0-0.0","0","0","62175","","null","","","null","58","","","","","","","","","","","","","","","",""
"","time_out","","html-keyboard-response","383","469127","0.0-1.0-530.0-0.0","0","0","62175","","null","","","null","58","","","","","","","","","","","","","","","",""
"","ITI","","html-keyboard-response","384","470129","0.0-1.0-531.0","0","0","62175","","null","","","null","58","","","","","","","","","","","","","","","NaN",""
"","S1","","html-keyboard-response","385","470382","0.0-1.0-533.0","0","0","62175","","null","","","null","59","","","","","","","","","","","","","","","",""
"","ISI","","html-keyboard-response","386","472385","0.0-1.0-534.0","0","0","62175","","null","","","null","59","NaN","","","","","","","","","","","","","","",""
"","S2","","html-keyboard-response","387","472639","0.0-1.0-535.0","0","0","62175","","null","","","null","59","","NaN","","","","","","","","","","","","","",""
"","response","","html-keyboard-response","388","473217","0.0-1.0-536.0","0","0","62175","","575","","","75","59","","","2","59","training","adjacent","CD","3","4","P.jpg","M.jpg","1","1","1","",""
"","feedback","","html-keyboard-response","389","474220","0.0-1.0-537.0-0.0","0","0","62175","","null","","","null","59","","","","","","","","","","","","","","","",""
"","ITI","","html-keyboard-response","390","475223","0.0-1.0-540.0","0","0","62175","","null","","","null","59","","","","","","","","","","","","","","","NaN",""
"","S1","","html-keyboard-response","391","475477","0.0-1.0-542.0","0","0","62175","","null","","","null","60","","","","","","","","","","","","","","","",""
"","ISI","","html-keyboard-response","392","477479","0.0-1.0-543.0","0","0","62175","","null","","","null","60","NaN","","","","","","","","","","","","","","",""
"","S2","","html-keyboard-response","393","477732","0.0-1.0-544.0","0","0","62175","","null","","","null","60","","NaN","","","","","","","","","","","","","",""
"","response","","html-keyboard-response","394","478552","0.0-1.0-545.0","0","0","62175","","818","","","75","60","","","2","60","training","adjacent","FG","6","7","R.jpg","Q.jpg","1","1","1","",""
"","feedback","","html-keyboard-response","395","479555","0.0-1.0-546.0-0.0","0","0","62175","","null","","","null","60","","","","","","","","","","","","","","","",""
"","ITI","","html-keyboard-response","396","480558","0.0-1.0-549.0","0","0","62175","","null","","","null","60","","","","","","","","","","","","","","","NaN",""
"","S1","","html-keyboard-response","397","480811","0.0-1.0-551.0","0","0","62175","","null","","","null","61","","","","","","","","","","","","","","","",""
"","ISI","","html-keyboard-response","398","482813","0.0-1.0-552.0","0","0","62175","","null","","","null","61","NaN","","","","","","","","","","","","","","",""
"","S2","","html-keyboard-response","399","483066","0.0-1.0-553.0","0","0","62175","","null","","","null","61","","NaN","","","","","","","","","","","","","",""
"","response","","html-keyboard-response","400","485069","0.0-1.0-554.0","0","0","62175","","null","","","null","61","","","2","61","training","adjacent","FE","6","5","R.jpg","L.jpg","NaN","0","0","",""
"","too_slow_prompt","","html-keyboard-response","401","486073","0.0-1.0-556.0-0.0","1","0","62175","","null","","","null","","","","","","","","","","","","","","","","",""
"","time_out","","html-keyboard-response","402","488076","0.0-1.0-557.0-0.0","0","0","62175","","null","","","null","61","","","","","","","","","","","","","","","",""
"","ITI","","html-keyboard-response","403","489079","0.0-1.0-558.0","0","0","62175","","null","","","null","61","","","","","","","","","","","","","","","NaN",""
"","S1","","html-keyboard-response","404","489332","0.0-1.0-560.0","0","0","62175","","null","","","null","62","","","","","","","","","","","","","","","",""
"","ISI","","html-keyboard-response","405","491334","0.0-1.0-561.0","0","0","62175","","138","","","75","62","k","","","","","","","","","","","","","","",""
"","S2","","html-keyboard-response","406","491588","0.0-1.0-562.0","0","0","62175","","null","","","null","62","","NaN","","","","","","","","","","","","","",""
"","response","","html-keyboard-response","407","491840","0.0-1.0-563.0","0","0","62175","","250","","","75","62","","","2","62","training","adjacent","GF","7","6","Q.jpg","R.jpg","1","0","0","",""
"","feedback","","html-keyboard-response","408","492843","0.0-1.0-564.0-0.0","0","0","62175","","null","","","null","62","","","","","","","","","","","","","","","",""
"","time_out","","html-keyboard-response","409","494847","0.0-1.0-566.0-0.0","0","0","62175","","null","","","null","62","","","","","","","","","","","","","","","",""
"","ITI","","html-keyboard-response","410","495850","0.0-1.0-567.0","0","0","62175","","null","","","null","62","","","","","","","","","","","","","","","NaN",""
"","S1","","html-keyboard-response","411","496103","0.0-1.0-569.0","0","0","62175","","null","","","null","63","","","","","","","","","","","","","","","",""
"","ISI","","html-keyboard-response","412","498106","0.0-1.0-570.0","0","0","62175","","1023","","","68","63","d","","","","","","","","","","","","","","",""
"","S2","","html-keyboard-response","413","498360","0.0-1.0-571.0","0","0","62175","","null","","","null","63","","NaN","","","","","","","","","","","","","",""
"","response","","html-keyboard-response","414","498840","0.0-1.0-572.0","0","0","62175","","478","","","68","63","","","2","63","training","adjacent","DE","4","5","M.jpg","L.jpg","0","1","0","",""
"","feedback","","html-keyboard-response","415","499844","0.0-1.0-573.0-0.0","0","0","62175","","null","","","null","63","","","","","","","","","","","","","","","",""
"","time_out","","html-keyboard-response","416","501848","0.0-1.0-575.0-0.0","0","0","62175","","null","","","null","63","","","","","","","","","","","","","","","",""
"","ITI","","html-keyboard-response","417","502851","0.0-1.0-576.0","0","0","62175","","null","","","null","63","","","","","","","","","","","","","","","NaN",""
"","S1","","html-keyboard-response","418","503111","0.0-1.0-578.0","0","0","62175","","null","","","null","64","","","","","","","","","","","","","","","",""
"","ISI","","html-keyboard-response","419","505114","0.0-1.0-579.0","0","0","62175","","null","","","null","64","NaN","","","","","","","","","","","","","","",""
"","S2","","html-keyboard-response","420","505368","0.0-1.0-580.0","0","0","62175","","null","","","null","64","","NaN","","","","","","","","","","","","","",""
"","response","","html-keyboard-response","421","505697","0.0-1.0-581.0","0","0","62175","","327","","","75","64","","","2","64","training","adjacent","DE","4","5","M.jpg","L.jpg","1","1","1","",""
"","feedback","","html-keyboard-response","422","506710","0.0-1.0-582.0-0.0","0","0","62175","","null","","","null","64","","","","","","","","","","","","","","","",""
"","ITI","","html-keyboard-response","423","507713","0.0-1.0-585.0","0","0","62175","","null","","","null","64","","","","","","","","","","","","","","","NaN",""
"","S1","","html-keyboard-response","424","507967","0.0-1.0-587.0","0","0","62175","","null","","","null","65","","","","","","","","","","","","","","","",""
"","ISI","","html-keyboard-response","425","509970","0.0-1.0-588.0","0","0","62175","","null","","","null","65","NaN","","","","","","","","","","","","","","",""
"","S2","","html-keyboard-response","426","510222","0.0-1.0-589.0","0","0","62175","","null","","","null","65","","NaN","","","","","","","","","","","","","",""
"","response","","html-keyboard-response","427","510786","0.0-1.0-590.0","0","0","62175","","560","","","75","65","","","2","65","training","adjacent","CD","3","4","P.jpg","M.jpg","1","1","1","",""
"","feedback","","html-keyboard-response","428","511790","0.0-1.0-591.0-0.0","0","0","62175","","null","","","null","65","","","","","","","","","","","","","","","",""
"","ITI","","html-keyboard-response","429","512794","0.0-1.0-594.0","0","0","62175","","null","","","null","65","","","","","","","","","","","","","","","NaN",""
"","S1","","html-keyboard-response","430","513049","0.0-1.0-596.0","0","0","62175","","null","","","null","66","","","","","","","","","","","","","","","",""
"","ISI","","html-keyboard-response","431","515053","0.0-1.0-597.0","0","0","62175","","null","","","null","66","NaN","","","","","","","","","","","","","","",""
"","S2","","html-keyboard-response","432","515306","0.0-1.0-598.0","0","0","62175","","null","","","null","66","","NaN","","","","","","","","","","","","","",""
"","response","","html-keyboard-response","433","515384","0.0-1.0-599.0","0","0","62175","","76","","","75","66","","","2","66","training","adjacent","ED","5","4","L.jpg","M.jpg","1","0","0","",""
"","feedback","","html-keyboard-response","434","516388","0.0-1.0-600.0-0.0","0","0","62175","","null","","","null","66","","","","","","","","","","","","","","","",""
"","time_out","","html-keyboard-response","435","518390","0.0-1.0-602.0-0.0","0","0","62175","","null","","","null","66","","","","","","","","","","","","","","","",""
"","ITI","","html-keyboard-response","436","519394","0.0-1.0-603.0","0","0","62175","","null","","","null","66","","","","","","","","","","","","","","","NaN",""
"","S1","","html-keyboard-response","437","519646","0.0-1.0-605.0","0","0","62175","","null","","","null","67","","","","","","","","","","","","","","","",""
"","ISI","","html-keyboard-response","438","521649","0.0-1.0-606.0","0","0","62175","","null","","","null","67","NaN","","","","","","","","","","","","","","",""
"","S2","","html-keyboard-response","439","521902","0.0-1.0-607.0","0","0","62175","","null","","","null","67","","NaN","","","","","","","","","","","","","",""
"","response","","html-keyboard-response","440","522224","0.0-1.0-608.0","0","0","62175","","321","","","68","67","","","2","67","training","adjacent","EF","5","6","L.jpg","R.jpg","0","1","0","",""
"","feedback","","html-keyboard-response","441","523228","0.0-1.0-609.0-0.0","0","0","62175","","null","","","null","67","","","","","","","","","","","","","","","",""
"","time_out","","html-keyboard-response","442","525230","0.0-1.0-611.0-0.0","0","0","62175","","null","","","null","67","","","","","","","","","","","","","","","",""
"","ITI","","html-keyboard-response","443","526233","0.0-1.0-612.0","0","0","62175","","null","","","null","67","","","","","","","","","","","","","","","NaN",""
"","S1","","html-keyboard-response","444","526485","0.0-1.0-614.0","0","0","62175","","null","","","null","68","","","","","","","","","","","","","","","",""
"","ISI","","html-keyboard-response","445","528488","0.0-1.0-615.0","0","0","62175","","null","","","null","68","NaN","","","","","","","","","","","","","","",""
"","S2","","html-keyboard-response","446","528742","0.0-1.0-616.0","0","0","62175","","null","","","null","68","","NaN","","","","","","","","","","","","","",""
"","response","","html-keyboard-response","447","528792","0.0-1.0-617.0","0","0","62175","","47","","","75","68","","","2","68","training","adjacent","BC","2","3","N.jpg","P.jpg","1","1","1","",""
"","feedback","","html-keyboard-response","448","529795","0.0-1.0-618.0-0.0","0","0","62175","","null","","","null","68","","","","","","","","","","","","","","","",""
"","ITI","","html-keyboard-response","449","530798","0.0-1.0-621.0","0","0","62175","","null","","","null","68","","","","","","","","","","","","","","","NaN",""
"","S1","","html-keyboard-response","450","531050","0.0-1.0-623.0","0","0","62175","","null","","","null","69","","","","","","","","","","","","","","","",""
"","ISI","","html-keyboard-response","451","533053","0.0-1.0-624.0","0","0","62175","","null","","","null","69","NaN","","","","","","","","","","","","","","",""
"","S2","","html-keyboard-response","452","533307","0.0-1.0-625.0","0","0","62175","","null","","","null","69","","NaN","","","","","","","","","","","","","",""
"","response","","html-keyboard-response","453","534193","0.0-1.0-626.0","0","0","62175","","883","","","75","69","","","2","69","training","adjacent","BA","2","1","N.jpg","O.jpg","1","0","0","",""
"","feedback","","html-keyboard-response","454","535196","0.0-1.0-627.0-0.0","0","0","62175","","null","","","null","69","","","","","","","","","","","","","","","",""
"","time_out","","html-keyboard-response","455","537199","0.0-1.0-629.0-0.0","0","0","62175","","null","","","null","69","","","","","","","","","","","","","","","",""
"","ITI","","html-keyboard-response","456","538202","0.0-1.0-630.0","0","0","62175","","null","","","null","69","","","","","","","","","","","","","","","NaN",""
"","S1","","html-keyboard-response","457","538454","0.0-1.0-632.0","0","0","62175","","null","","","null","70","","","","","","","","","","","","","","","",""
"","ISI","","html-keyboard-response","458","540457","0.0-1.0-633.0","0","0","62175","","null","","","null","70","NaN","","","","","","","","","","","","","","",""
"","S2","","html-keyboard-response","459","540710","0.0-1.0-634.0","0","0","62175","","null","","","null","70","","NaN","","","","","","","","","","","","","",""
"","response","","html-keyboard-response","460","540793","0.0-1.0-635.0","0","0","62175","","80","","","68","70","","","2","70","training","adjacent","EF","5","6","L.jpg","R.jpg","0","1","0","",""
"","feedback","","html-keyboard-response","461","541796","0.0-1.0-636.0-0.0","0","0","62175","","null","","","null","70","","","","","","","","","","","","","","","",""
"","time_out","","html-keyboard-response","462","543799","0.0-1.0-638.0-0.0","0","0","62175","","null","","","null","70","","","","","","","","","","","","","","","",""
"","ITI","","html-keyboard-response","463","544803","0.0-1.0-639.0","0","0","62175","","null","","","null","70","","","","","","","","","","","","","","","NaN",""
"","S1","","html-keyboard-response","464","545056","0.0-1.0-641.0","0","0","62175","","null","","","null","71","","","","","","","","","","","","","","","",""
"","ISI","","html-keyboard-response","465","547059","0.0-1.0-642.0","0","0","62175","","null","","","null","71","NaN","","","","","","","","","","","","","","",""
"","S2","","html-keyboard-response","466","547311","0.0-1.0-643.0","0","0","62175","","null","","","null","71","","NaN","","","","","","","","","","","","","",""
"","response","","html-keyboard-response","467","547456","0.0-1.0-644.0","0","0","62175","","143","","","75","71","","","2","71","training","adjacent","EF","5","6","L.jpg","R.jpg","1","1","1","",""
"","feedback","","html-keyboard-response","468","548460","0.0-1.0-645.0-0.0","0","0","62175","","null","","","null","71","","","","","","","","","","","","","","","",""
"","ITI","","html-keyboard-response","469","549474","0.0-1.0-648.0","0","0","62175","","null","","","null","71","","","","","","","","","","","","","","","NaN",""
"","S1","","html-keyboard-response","470","549726","0.0-1.0-650.0","0","0","62175","","null","","","null","72","","","","","","","","","","","","","","","",""
"","ISI","","html-keyboard-response","471","551730","0.0-1.0-651.0","0","0","62175","","null","","","null","72","NaN","","","","","","","","","","","","","","",""
"","S2","","html-keyboard-response","472","551983","0.0-1.0-652.0","0","0","62175","","null","","","null","72","","NaN","","","","","","","","","","","","","",""
"","response","","html-keyboard-response","473","552120","0.0-1.0-653.0","0","0","62175","","136","","","75","72","","","2","72","training","adjacent","GF","7","6","Q.jpg","R.jpg","1","0","0","",""
"","feedback","","html-keyboard-response","474","553124","0.0-1.0-654.0-0.0","0","0","62175","","null","","","null","72","","","","","","","","","","","","","","","",""
"","time_out","","html-keyboard-response","475","555127","0.0-1.0-656.0-0.0","0","0","62175","","null","","","null","72","","","","","","","","","","","","","","","",""
"","ITI","","html-keyboard-response","476","556130","0.0-1.0-657.0","0","0","62175","","null","","","null","72","","","","","","","","","","","","","","","NaN",""
"","S1","","html-keyboard-response","477","556383","0.0-1.0-659.0","0","0","62175","","null","","","null","73","","","","","","","","","","","","","","","",""
"","ISI","","html-keyboard-response","478","558386","0.0-1.0-660.0","0","0","62175","","288","","","68","73","d","","","","","","","","","","","","","","",""
"","S2","","html-keyboard-response","479","558639","0.0-1.0-661.0","0","0","62175","","null","","","null","73","","NaN","","","","","","","","","","","","","",""
"","response","","html-keyboard-response","480","558664","0.0-1.0-662.0","0","0","62175","","23","","","68","73","","","2","73","training","adjacent","BC","2","3","N.jpg","P.jpg","0","1","0","",""
"","feedback","","html-keyboard-response","481","559668","0.0-1.0-663.0-0.0","0","0","62175","","null","","","null","73","","","","","","","","","","","","","","","",""
"","time_out","","html-keyboard-response","482","561670","0.0-1.0-665.0-0.0","0","0","62175","","null","","","null","73","","","","","","","","","","","","","","","",""
"","ITI","","html-keyboard-response","483","562674","0.0-1.0-666.0","0","0","62175","","null","","","null","73","","","","","","","","","","","","","","","NaN",""
"","S1","","html-keyboard-response","484","562926","0.0-1.0-668.0","0","0","62175","","null","","","null","74","","","","","","","","","","","","","","","",""
"","ISI","","html-keyboard-response","485","564930","0.0-1.0-669.0","0","0","62175","","null","","","null","74","NaN","","","","","","","","","","","","","","",""
"","S2","","html-keyboard-response","486","565183","0.0-1.0-670.0","0","0","62175","","null","","","null","74","","NaN","","","","","","","","","","","","","",""
"","response","","html-keyboard-response","487","565432","0.0-1.0-671.0","0","0","62175","","248","","","68","74","","","2","74","training","adjacent","AB","1","2","O.jpg","N.jpg","0","1","0","",""
"","feedback","","html-keyboard-response","488","566435","0.0-1.0-672.0-0.0","0","0","62175","","null","","","null","74","","","","","","","","","","","","","","","",""
"","time_out","","html-keyboard-response","489","568438","0.0-1.0-674.0-0.0","0","0","62175","","null","","","null","74","","","","","","","","","","","","","","","",""
"","ITI","","html-keyboard-response","490","569443","0.0-1.0-675.0","0","0","62175","","null","","","null","74","","","","","","","","","","","","","","","NaN",""
"","S1","","html-keyboard-response","491","569697","0.0-1.0-677.0","0","0","62175","","null","","","null","75","","","","","","","","","","","","","","","",""
"","ISI","","html-keyboard-response","492","571700","0.0-1.0-678.0","0","0","62175","","null","","","null","75","NaN","","","","","","","","","","","","","","",""
"","S2","","html-keyboard-response","493","571953","0.0-1.0-679.0","0","0","62175","","null","","","null","75","","NaN","","","","","","","","","","","","","",""
"","response","","html-keyboard-response","494","572072","0.0-1.0-680.0","0","0","62175","","117","","","75","75","","","2","75","training","adjacent","AB","1","2","O.jpg","N.jpg","1","1","1","",""
"","feedback","","html-keyboard-response","495","573075","0.0-1.0-681.0-0.0","0","0","62175","","null","","","null","75","","","","","","","","","","","","","","","",""
"","ITI","","html-keyboard-response","496","574079","0.0-1.0-684.0","0","0","62175","","null","","","null","75","","","","","","","","","","","","","","","NaN",""
"","S1","","html-keyboard-response","497","574332","0.0-1.0-686.0","0","0","62175","","null","","","null","76","","","","","","","","","","","","","","","",""
"","ISI","","html-keyboard-response","498","576334","0.0-1.0-687.0","0","0","62175","","null","","","null","76","NaN","","","","","","","","","","","","","","",""
"","S2","","html-keyboard-response","499","576588","0.0-1.0-688.0","0","0","62175","","null","","","null","76","","NaN","","","","","","","","","","","","","",""
"","response","","html-keyboard-response","500","577608","0.0-1.0-689.0","0","0","62175","","1018","","","75","76","","","2","76","training","adjacent","GF","7","6","Q.jpg","R.jpg","1","0","0","",""
"","feedback","","html-keyboard-response","501","578611","0.0-1.0-690.0-0.0","0","0","62175","","null","","","null","76","","","","","","","","","","","","","","","",""
"","time_out","","html-keyboard-response","502","580617","0.0-1.0-692.0-0.0","0","0","62175","","null","","","null","76","","","","","","","","","","","","","","","",""
"","ITI","","html-keyboard-response","503","581621","0.0-1.0-693.0","0","0","62175","","null","","","null","76","","","","","","","","","","","","","","","NaN",""
"","S1","","html-keyboard-response","504","581873","0.0-1.0-695.0","0","0","62175","","null","","","null","77","","","","","","","","","","","","","","","",""
"","ISI","","html-keyboard-response","505","583876","0.0-1.0-696.0","0","0","62175","","null","","","null","77","NaN","","","","","","","","","","","","","","",""
"","S2","","html-keyboard-response","506","584129","0.0-1.0-697.0","0","0","62175","","null","","","null","77","","NaN","","","","","","","","","","","","","",""
"","response","","html-keyboard-response","507","585296","0.0-1.0-698.0","0","0","62175","","1166","","","68","77","","","2","77","training","adjacent","BA","2","1","N.jpg","O.jpg","0","0","1","",""
"","feedback","","html-keyboard-response","508","586300","0.0-1.0-699.0-0.0","0","0","62175","","null","","","null","77","","","","","","","","","","","","","","","",""
"","ITI","","html-keyboard-response","509","587304","0.0-1.0-702.0","0","0","62175","","null","","","null","77","","","","","","","","","","","","","","","NaN",""
"","S1","","html-keyboard-response","510","587558","0.0-1.0-704.0","0","0","62175","","null","","","null","78","","","","","","","","","","","","","","","",""
"","ISI","","html-keyboard-response","511","589560","0.0-1.0-705.0","0","0","62175","","null","","","null","78","NaN","","","","","","","","","","","","","","",""
"","S2","","html-keyboard-response","512","589813","0.0-1.0-706.0","0","0","62175","","null","","","null","78","","NaN","","","","","","","","","","","","","",""
"","response","","html-keyboard-response","513","590776","0.0-1.0-707.0","0","0","62175","","961","","","68","78","","","2","78","training","adjacent","FG","6","7","R.jpg","Q.jpg","0","1","0","",""
"","feedback","","html-keyboard-response","514","591781","0.0-1.0-708.0-0.0","0","0","62175","","null","","","null","78","","","","","","","","","","","","","","","",""
"","time_out","","html-keyboard-response","515","593784","0.0-1.0-710.0-0.0","0","0","62175","","null","","","null","78","","","","","","","","","","","","","","","",""
"","ITI","","html-keyboard-response","516","594787","0.0-1.0-711.0","0","0","62175","","null","","","null","78","","","","","","","","","","","","","","","NaN",""
"","S1","","html-keyboard-response","517","595041","0.0-1.0-713.0","0","0","62175","","null","","","null","79","","","","","","","","","","","","","","","",""
"","ISI","","html-keyboard-response","518","597044","0.0-1.0-714.0","0","0","62175","","null","","","null","79","NaN","","","","","","","","","","","","","","",""
"","S2","","html-keyboard-response","519","597296","0.0-1.0-715.0","0","0","62175","","null","","","null","79","","NaN","","","","","","","","","","","","","",""
"","response","","html-keyboard-response","520","597592","0.0-1.0-716.0","0","0","62175","","294","","","75","79","","","2","79","training","adjacent","AB","1","2","O.jpg","N.jpg","1","1","1","",""
"","feedback","","html-keyboard-response","521","598596","0.0-1.0-717.0-0.0","0","0","62175","","null","","","null","79","","","","","","","","","","","","","","","",""
"","ITI","","html-keyboard-response","522","599600","0.0-1.0-720.0","0","0","62175","","null","","","null","79","","","","","","","","","","","","","","","NaN",""
"","S1","","html-keyboard-response","523","599852","0.0-1.0-722.0","0","0","62175","","null","","","null","80","","","","","","","","","","","","","","","",""
"","ISI","","html-keyboard-response","524","601866","0.0-1.0-723.0","0","0","62175","","null","","","null","80","NaN","","","","","","","","","","","","","","",""
"","S2","","html-keyboard-response","525","602120","0.0-1.0-724.0","0","0","62175","","null","","","null","80","","NaN","","","","","","","","","","","","","",""
"","response","","html-keyboard-response","526","603056","0.0-1.0-725.0","0","0","62175","","935","","","75","80","","","2","80","training","adjacent","CB","3","2","P.jpg","N.jpg","1","0","0","",""
"","feedback","","html-keyboard-response","527","604059","0.0-1.0-726.0-0.0","0","0","62175","","null","","","null","80","","","","","","","","","","","","","","","",""
"","time_out","","html-keyboard-response","528","606062","0.0-1.0-728.0-0.0","0","0","62175","","null","","","null","80","","","","","","","","","","","","","","","",""
"","ITI","","html-keyboard-response","529","607065","0.0-1.0-729.0","0","0","62175","","null","","","null","80","","","","","","","","","","","","","","","NaN",""
"","S1","","html-keyboard-response","530","607318","0.0-1.0-731.0","0","0","62175","","null","","","null","81","","","","","","","","","","","","","","","",""
"","ISI","","html-keyboard-response","531","609322","0.0-1.0-732.0","0","0","62175","","null","","","null","81","NaN","","","","","","","","","","","","","","",""
"","S2","","html-keyboard-response","532","609574","0.0-1.0-733.0","0","0","62175","","null","","","null","81","","NaN","","","","","","","","","","","","","",""
"","response","","html-keyboard-response","533","610192","0.0-1.0-734.0","0","0","62175","","616","","","68","81","","","2","81","training","adjacent","FE","6","5","R.jpg","L.jpg","0","0","1","",""
"","feedback","","html-keyboard-response","534","611196","0.0-1.0-735.0-0.0","0","0","62175","","null","","","null","81","","","","","","","","","","","","","","","",""
"","ITI","","html-keyboard-response","535","612199","0.0-1.0-738.0","0","0","62175","","null","","","null","81","","","","","","","","","","","","","","","NaN",""
"","S1","","html-keyboard-response","536","612453","0.0-1.0-740.0","0","0","62175","","null","","","null","82","","","","","","","","","","","","","","","",""
"","ISI","","html-keyboard-response","537","614456","0.0-1.0-741.0","0","0","62175","","null","","","null","82","NaN","","","","","","","","","","","","","","",""
"","S2","","html-keyboard-response","538","614709","0.0-1.0-742.0","0","0","62175","","null","","","null","82","","NaN","","","","","","","","","","","","","",""
"","response","","html-keyboard-response","539","615297","0.0-1.0-743.0","0","0","62175","","586","","","75","82","","","2","82","training","adjacent","CD","3","4","P.jpg","M.jpg","1","1","1","",""
"","feedback","","html-keyboard-response","540","616299","0.0-1.0-744.0-0.0","0","0","62175","","null","","","null","82","","","","","","","","","","","","","","","",""
"","ITI","","html-keyboard-response","541","617302","0.0-1.0-747.0","0","0","62175","","null","","","null","82","","","","","","","","","","","","","","","NaN",""
"","S1","","html-keyboard-response","542","617556","0.0-1.0-749.0","0","0","62175","","null","","","null","83","","","","","","","","","","","","","","","",""
"","ISI","","html-keyboard-response","543","619559","0.0-1.0-750.0","0","0","62175","","null","","","null","83","NaN","","","","","","","","","","","","","","",""
"","S2","","html-keyboard-response","544","619812","0.0-1.0-751.0","0","0","62175","","null","","","null","83","","NaN","","","","","","","","","","","","","",""
"","response","","html-keyboard-response","545","620585","0.0-1.0-752.0","0","0","62175","","771","","","75","83","","","2","83","training","adjacent","DC","4","3","M.jpg","P.jpg","1","0","0","",""
"","feedback","","html-keyboard-response","546","621588","0.0-1.0-753.0-0.0","0","0","62175","","null","","","null","83","","","","","","","","","","","","","","","",""
"","time_out","","html-keyboard-response","547","623590","0.0-1.0-755.0-0.0","0","0","62175","","null","","","null","83","","","","","","","","","","","","","","","",""
"","ITI","","html-keyboard-response","548","624594","0.0-1.0-756.0","0","0","62175","","null","","","null","83","","","","","","","","","","","","","","","NaN",""
"","S1","","html-keyboard-response","549","624848","0.0-1.0-758.0","0","0","62175","","null","","","null","84","","","","","","","","","","","","","","","",""
"","ISI","","html-keyboard-response","550","626850","0.0-1.0-759.0","0","0","62175","","null","","","null","84","NaN","","","","","","","","","","","","","","",""
"","S2","","html-keyboard-response","551","627103","0.0-1.0-760.0","0","0","62175","","null","","","null","84","","NaN","","","","","","","","","","","","","",""
"","response","","html-keyboard-response","552","627568","0.0-1.0-761.0","0","0","62175","","463","","","68","84","","","2","84","training","adjacent","EF","5","6","L.jpg","R.jpg","0","1","0","",""
"","feedback","","html-keyboard-response","553","628572","0.0-1.0-762.0-0.0","0","0","62175","","null","","","null","84","","","","","","","","","","","","","","","",""
"","time_out","","html-keyboard-response","554","630574","0.0-1.0-764.0-0.0","0","0","62175","","null","","","null","84","","","","","","","","","","","","","","","",""
"","ITI","","html-keyboard-response","555","631578","0.0-1.0-765.0","0","0","62175","","null","","","null","84","","","","","","","","","","","","","","","NaN",""
"","S1","","html-keyboard-response","556","631831","0.0-1.0-767.0","0","0","62175","","null","","","null","85","","","","","","","","","","","","","","","",""
"","ISI","","html-keyboard-response","557","633834","0.0-1.0-768.0","0","0","62175","","null","","","null","85","NaN","","","","","","","","","","","","","","",""
"","S2","","html-keyboard-response","558","634087","0.0-1.0-769.0","0","0","62175","","null","","","null","85","","NaN","","","","","","","","","","","","","",""
"","response","","html-keyboard-response","559","635024","0.0-1.0-770.0","0","0","62175","","935","","","75","85","","","2","85","training","adjacent","BC","2","3","N.jpg","P.jpg","1","1","1","",""
"","feedback","","html-keyboard-response","560","636028","0.0-1.0-771.0-0.0","0","0","62175","","null","","","null","85","","","","","","","","","","","","","","","",""
"","ITI","","html-keyboard-response","561","637031","0.0-1.0-774.0","0","0","62175","","null","","","null","85","","","","","","","","","","","","","","","NaN",""
"","S1","","html-keyboard-response","562","637284","0.0-1.0-776.0","0","0","62175","","null","","","null","86","","","","","","","","","","","","","","","",""
"","ISI","","html-keyboard-response","563","639288","0.0-1.0-777.0","0","0","62175","","null","","","null","86","NaN","","","","","","","","","","","","","","",""
"","S2","","html-keyboard-response","564","639541","0.0-1.0-778.0","0","0","62175","","null","","","null","86","","NaN","","","","","","","","","","","","","",""
"","response","","html-keyboard-response","565","639737","0.0-1.0-779.0","0","0","62175","","193","","","75","86","","","2","86","training","adjacent","ED","5","4","L.jpg","M.jpg","1","0","0","",""
"","feedback","","html-keyboard-response","566","640740","0.0-1.0-780.0-0.0","0","0","62175","","null","","","null","86","","","","","","","","","","","","","","","",""
"","time_out","","html-keyboard-response","567","642743","0.0-1.0-782.0-0.0","0","0","62175","","null","","","null","86","","","","","","","","","","","","","","","",""
"","ITI","","html-keyboard-response","568","643746","0.0-1.0-783.0","0","0","62175","","null","","","null","86","","","","","","","","","","","","","","","NaN",""
"","S1","","html-keyboard-response","569","643999","0.0-1.0-785.0","0","0","62175","","null","","","null","87","","","","","","","","","","","","","","","",""
"","ISI","","html-keyboard-response","570","646001","0.0-1.0-786.0","0","0","62175","","179","","","68","87","d","","","","","","","","","","","","","","",""
"","S2","","html-keyboard-response","571","646254","0.0-1.0-787.0","0","0","62175","","29","","","68","87","","d","","","","","","","","","","","","","",""
"","response","","html-keyboard-response","572","646488","0.0-1.0-788.0","0","0","62175","","231","","","68","87","","","2","87","training","adjacent","CB","3","2","P.jpg","N.jpg","0","0","1","",""
"","feedback","","html-keyboard-response","573","647492","0.0-1.0-789.0-0.0","0","0","62175","","null","","","null","87","","","","","","","","","","","","","","","",""
"","ITI","","html-keyboard-response","574","648509","0.0-1.0-792.0","0","0","62175","","null","","","null","87","","","","","","","","","","","","","","","NaN",""
"","S1","","html-keyboard-response","575","648763","0.0-1.0-794.0","0","0","62175","","null","","","null","88","","","","","","","","","","","","","","","",""
"","ISI","","html-keyboard-response","576","650767","0.0-1.0-795.0","0","0","62175","","null","","","null","88","NaN","","","","","","","","","","","","","","",""
"","S2","","html-keyboard-response","577","651020","0.0-1.0-796.0","0","0","62175","","null","","","null","88","","NaN","","","","","","","","","","","","","",""
"","response","","html-keyboard-response","578","651374","0.0-1.0-797.0","0","0","62175","","352","","","75","88","","","2","88","training","adjacent","BC","2","3","N.jpg","P.jpg","1","1","1","",""
"","feedback","","html-keyboard-response","579","652378","0.0-1.0-798.0-0.0","0","0","62175","","null","","","null","88","","","","","","","","","","","","","","","",""
"","ITI","","html-keyboard-response","580","653382","0.0-1.0-801.0","0","0","62175","","null","","","null","88","","","","","","","","","","","","","","","NaN",""
"","S1","","html-keyboard-response","581","653635","0.0-1.0-803.0","0","0","62175","","null","","","null","89","","","","","","","","","","","","","","","",""
"","ISI","","html-keyboard-response","582","655639","0.0-1.0-804.0","0","0","62175","","null","","","null","89","NaN","","","","","","","","","","","","","","",""
"","S2","","html-keyboard-response","583","655893","0.0-1.0-805.0","0","0","62175","","null","","","null","89","","NaN","","","","","","","","","","","","","",""
"","response","","html-keyboard-response","584","656200","0.0-1.0-806.0","0","0","62175","","305","","","68","89","","","2","89","training","adjacent","FE","6","5","R.jpg","L.jpg","0","0","1","",""
