"success","ttype","start_time","trial_type","trial_index","time_elapsed","internal_node_id","warning","missed_checkup","PID","view_history","rt","responses","repeat_instructions","key_press","index","keypress_isi","keypress_S2","block","trial_num","phase","group_type","pair_type","S1_stim","S2_stim","S1_img","S2_img","S1_chosen","S1_higher","accuracy","keypress_iti","total_bonus_tally"
"true","full_screen","d04132023hr1642","fullscreen","0","7705","0.0-0.0","0","0","44506","","","","","","","","","","","","","","","","","","","","","",""
"","instructions","","instructions","1","45410","0.0-1.0-0.0-0.0","0","0","44506","[{""page_index"":0,""viewing_time"":3434},{""page_index"":1,""viewing_time"":23996},{""page_index"":2,""viewing_time"":8611},{""page_index"":3,""viewing_time"":1662}]","37704","","","","","","","","","","","","","","","","","","","",""
"","comprehension_check","","survey-multi-choice","2","62398","0.0-1.0-0.0-1.0","0","0","44506","","16985","{""Q0"":""True"",""Q1"":""D"",""Q2"":""Once the second image appears and while the screen 'MAKE A CHOICE' is shown"",""Q3"":""Green mark"",""Q4"":""either D or K""}","0","","","","","","","","","","","","","","","","","",""
"","start_exp","","html-keyboard-response","3","64302","0.0-1.0-1.0","0","0","44506","","1902","","","32","","","","","","","","","","","","","","","","",""
"","S1","","html-keyboard-response","4","64554","0.0-1.0-2.0","0","0","44506","","null","","","null","0","","","","","","","","","","","","","","","",""
"","ISI","","html-keyboard-response","5","65556","0.0-1.0-3.0","0","0","44506","","null","","","null","0","NaN","","","","","","","","","","","","","","",""
"","S2","","html-keyboard-response","6","65808","0.0-1.0-4.0","0","0","44506","","null","","","null","0","","NaN","","","","","","","","","","","","","",""
"","response","","html-keyboard-response","7","66038","0.0-1.0-5.0-0.0","0","0","44506","","228","","","68","0","","","1","0","training","adjacent","BA","2","1","N.jpg","L.jpg","1","0","0","",""
"","feedback","","html-keyboard-response","8","67040","0.0-1.0-6.0-0.0","0","0","44506","","null","","","null","0","","","","","","","","","","","","","","","",""
"","time_out","","html-keyboard-response","9","69041","0.0-1.0-8.0-0.0","0","0","44506","","null","","","null","0","","","","","","","","","","","","","","","",""
"","ITI","","html-keyboard-response","10","70043","0.0-1.0-9.0","0","0","44506","","null","","","null","0","","","","","","","","","","","","","","","NaN",""
"","S1","","html-keyboard-response","11","70295","0.0-1.0-11.0","0","0","44506","","null","","","null","1","","","","","","","","","","","","","","","",""
"","ISI","","html-keyboard-response","12","71296","0.0-1.0-12.0","0","0","44506","","null","","","null","1","NaN","","","","","","","","","","","","","","",""
"","S2","","html-keyboard-response","13","71548","0.0-1.0-13.0","0","0","44506","","null","","","null","1","","NaN","","","","","","","","","","","","","",""
"","response","","html-keyboard-response","14","71977","0.0-1.0-14.0-0.0","0","0","44506","","428","","","68","1","","","1","1","training","adjacent","ED","5","4","P.jpg","R.jpg","1","0","0","",""
"","feedback","","html-keyboard-response","15","72979","0.0-1.0-15.0-0.0","0","0","44506","","null","","","null","1","","","","","","","","","","","","","","","",""
"","time_out","","html-keyboard-response","16","74982","0.0-1.0-17.0-0.0","0","0","44506","","null","","","null","1","","","","","","","","","","","","","","","",""
"","ITI","","html-keyboard-response","17","75983","0.0-1.0-18.0","0","0","44506","","null","","","null","1","","","","","","","","","","","","","","","NaN",""
"","S1","","html-keyboard-response","18","76234","0.0-1.0-20.0","0","0","44506","","null","","","null","2","","","","","","","","","","","","","","","",""
"","ISI","","html-keyboard-response","19","77248","0.0-1.0-21.0","0","0","44506","","null","","","null","2","NaN","","","","","","","","","","","","","","",""
"","S2","","html-keyboard-response","20","77500","0.0-1.0-22.0","0","0","44506","","null","","","null","2","","NaN","","","","","","","","","","","","","",""
"","response","","html-keyboard-response","21","77647","0.0-1.0-23.0-0.0","0","0","44506","","147","","","75","2","","","1","2","training","adjacent","CB","3","2","O.jpg","N.jpg","0","0","1","",""
"","feedback","","html-keyboard-response","22","78649","0.0-1.0-24.0-0.0","0","0","44506","","null","","","null","2","","","","","","","","","","","","","","","",""
"","ITI","","html-keyboard-response","23","79650","0.0-1.0-27.0","0","0","44506","","null","","","null","2","","","","","","","","","","","","","","","NaN",""
"","S1","","html-keyboard-response","24","79901","0.0-1.0-29.0","0","0","44506","","null","","","null","3","","","","","","","","","","","","","","","",""
"","ISI","","html-keyboard-response","25","80903","0.0-1.0-30.0","0","0","44506","","null","","","null","3","NaN","","","","","","","","","","","","","","",""
"","S2","","html-keyboard-response","26","81155","0.0-1.0-31.0","0","0","44506","","null","","","null","3","","NaN","","","","","","","","","","","","","",""
"","response","","html-keyboard-response","27","81576","0.0-1.0-32.0-0.0","0","0","44506","","420","","","75","3","","","1","3","training","adjacent","BC","2","3","N.jpg","O.jpg","0","1","0","",""
"","feedback","","html-keyboard-response","28","82578","0.0-1.0-33.0-0.0","0","0","44506","","null","","","null","3","","","","","","","","","","","","","","","",""
"","time_out","","html-keyboard-response","29","84579","0.0-1.0-35.0-0.0","0","0","44506","","null","","","null","3","","","","","","","","","","","","","","","",""
"","ITI","","html-keyboard-response","30","85585","0.0-1.0-36.0","0","0","44506","","null","","","null","3","","","","","","","","","","","","","","","NaN",""
"","S1","","html-keyboard-response","31","85837","0.0-1.0-38.0","0","0","44506","","null","","","null","4","","","","","","","","","","","","","","","",""
"","ISI","","html-keyboard-response","32","86839","0.0-1.0-39.0","0","0","44506","","null","","","null","4","NaN","","","","","","","","","","","","","","",""
"","S2","","html-keyboard-response","33","87091","0.0-1.0-40.0","0","0","44506","","null","","","null","4","","NaN","","","","","","","","","","","","","",""
"","response","","html-keyboard-response","34","87257","0.0-1.0-41.0-0.0","0","0","44506","","165","","","68","4","","","1","4","training","adjacent","CD","3","4","O.jpg","R.jpg","1","1","1","",""
"","feedback","","html-keyboard-response","35","88259","0.0-1.0-42.0-0.0","0","0","44506","","null","","","null","4","","","","","","","","","","","","","","","",""
"","ITI","","html-keyboard-response","36","89260","0.0-1.0-45.0","0","0","44506","","null","","","null","4","","","","","","","","","","","","","","","NaN",""
"","S1","","html-keyboard-response","37","89512","0.0-1.0-47.0","0","0","44506","","null","","","null","5","","","","","","","","","","","","","","","",""
"","ISI","","html-keyboard-response","38","90514","0.0-1.0-48.0","0","0","44506","","null","","","null","5","NaN","","","","","","","","","","","","","","",""
"","S2","","html-keyboard-response","39","90766","0.0-1.0-49.0","0","0","44506","","null","","","null","5","","NaN","","","","","","","","","","","","","",""
"","response","","html-keyboard-response","40","91176","0.0-1.0-50.0-0.0","0","0","44506","","409","","","68","5","","","1","5","training","adjacent","FE","6","5","Q.jpg","P.jpg","1","0","0","",""
"","feedback","","html-keyboard-response","41","92177","0.0-1.0-51.0-0.0","0","0","44506","","null","","","null","5","","","","","","","","","","","","","","","",""
"","time_out","","html-keyboard-response","42","94179","0.0-1.0-53.0-0.0","0","0","44506","","null","","","null","5","","","","","","","","","","","","","","","",""
"","ITI","","html-keyboard-response","43","95180","0.0-1.0-54.0","0","0","44506","","null","","","null","5","","","","","","","","","","","","","","","NaN",""
"","S1","","html-keyboard-response","44","95433","0.0-1.0-56.0","0","0","44506","","null","","","null","6","","","","","","","","","","","","","","","",""
"","ISI","","html-keyboard-response","45","96434","0.0-1.0-57.0","0","0","44506","","null","","","null","6","NaN","","","","","","","","","","","","","","",""
"","S2","","html-keyboard-response","46","96686","0.0-1.0-58.0","0","0","44506","","null","","","null","6","","NaN","","","","","","","","","","","","","",""
"","response","","html-keyboard-response","47","96963","0.0-1.0-59.0-0.0","0","0","44506","","276","","","75","6","","","1","6","training","adjacent","FE","6","5","Q.jpg","P.jpg","0","0","1","",""
"","feedback","","html-keyboard-response","48","97964","0.0-1.0-60.0-0.0","0","0","44506","","null","","","null","6","","","","","","","","","","","","","","","",""
"","ITI","","html-keyboard-response","49","98969","0.0-1.0-63.0","0","0","44506","","null","","","null","6","","","","","","","","","","","","","","","NaN",""
"","S1","","html-keyboard-response","50","99221","0.0-1.0-65.0","0","0","44506","","null","","","null","7","","","","","","","","","","","","","","","",""
"","ISI","","html-keyboard-response","51","100223","0.0-1.0-66.0","0","0","44506","","null","","","null","7","NaN","","","","","","","","","","","","","","",""
"","S2","","html-keyboard-response","52","100475","0.0-1.0-67.0","0","0","44506","","null","","","null","7","","NaN","","","","","","","","","","","","","",""
"","response","","html-keyboard-response","53","101062","0.0-1.0-68.0-0.0","0","0","44506","","586","","","75","7","","","1","7","training","adjacent","GF","7","6","M.jpg","Q.jpg","0","0","1","",""
"","feedback","","html-keyboard-response","54","102064","0.0-1.0-69.0-0.0","0","0","44506","","null","","","null","7","","","","","","","","","","","","","","","",""
"","ITI","","html-keyboard-response","55","103067","0.0-1.0-72.0","0","0","44506","","null","","","null","7","","","","","","","","","","","","","","","NaN",""
"","S1","","html-keyboard-response","56","103319","0.0-1.0-74.0","0","0","44506","","null","","","null","8","","","","","","","","","","","","","","","",""
"","ISI","","html-keyboard-response","57","104320","0.0-1.0-75.0","0","0","44506","","null","","","null","8","NaN","","","","","","","","","","","","","","",""
"","S2","","html-keyboard-response","58","104572","0.0-1.0-76.0","0","0","44506","","null","","","null","8","","NaN","","","","","","","","","","","","","",""
"","response","","html-keyboard-response","59","104953","0.0-1.0-77.0-0.0","0","0","44506","","379","","","75","8","","","1","8","training","adjacent","AB","1","2","L.jpg","N.jpg","0","1","0","",""
"","feedback","","html-keyboard-response","60","105955","0.0-1.0-78.0-0.0","0","0","44506","","null","","","null","8","","","","","","","","","","","","","","","",""
"","time_out","","html-keyboard-response","61","107956","0.0-1.0-80.0-0.0","0","0","44506","","null","","","null","8","","","","","","","","","","","","","","","",""
"","ITI","","html-keyboard-response","62","108958","0.0-1.0-81.0","0","0","44506","","null","","","null","8","","","","","","","","","","","","","","","NaN",""
"","S1","","html-keyboard-response","63","109209","0.0-1.0-83.0","0","0","44506","","null","","","null","9","","","","","","","","","","","","","","","",""
"","ISI","","html-keyboard-response","64","110210","0.0-1.0-84.0","0","0","44506","","null","","","null","9","NaN","","","","","","","","","","","","","","",""
"","S2","","html-keyboard-response","65","110462","0.0-1.0-85.0","0","0","44506","","null","","","null","9","","NaN","","","","","","","","","","","","","",""
"","response","","html-keyboard-response","66","110952","0.0-1.0-86.0-0.0","0","0","44506","","489","","","75","9","","","1","9","training","adjacent","GF","7","6","M.jpg","Q.jpg","0","0","1","",""
"","feedback","","html-keyboard-response","67","111954","0.0-1.0-87.0-0.0","0","0","44506","","null","","","null","9","","","","","","","","","","","","","","","",""
"","ITI","","html-keyboard-response","68","112955","0.0-1.0-90.0","0","0","44506","","null","","","null","9","","","","","","","","","","","","","","","NaN",""
"","S1","","html-keyboard-response","69","113208","0.0-1.0-92.0","0","0","44506","","null","","","null","10","","","","","","","","","","","","","","","",""
"","ISI","","html-keyboard-response","70","114210","0.0-1.0-93.0","0","0","44506","","null","","","null","10","NaN","","","","","","","","","","","","","","",""
"","S2","","html-keyboard-response","71","114462","0.0-1.0-94.0","0","0","44506","","null","","","null","10","","NaN","","","","","","","","","","","","","",""
"","response","","html-keyboard-response","72","114933","0.0-1.0-95.0-0.0","0","0","44506","","470","","","68","10","","","1","10","training","adjacent","CD","3","4","O.jpg","R.jpg","1","1","1","",""
"","feedback","","html-keyboard-response","73","115935","0.0-1.0-96.0-0.0","0","0","44506","","null","","","null","10","","","","","","","","","","","","","","","",""
"","ITI","","html-keyboard-response","74","116936","0.0-1.0-99.0","0","0","44506","","null","","","null","10","","","","","","","","","","","","","","","NaN",""
"","S1","","html-keyboard-response","75","117188","0.0-1.0-101.0","0","0","44506","","null","","","null","11","","","","","","","","","","","","","","","",""
"","ISI","","html-keyboard-response","76","118190","0.0-1.0-102.0","0","0","44506","","null","","","null","11","NaN","","","","","","","","","","","","","","",""
"","S2","","html-keyboard-response","77","118442","0.0-1.0-103.0","0","0","44506","","null","","","null","11","","NaN","","","","","","","","","","","","","",""
"","response","","html-keyboard-response","78","118833","0.0-1.0-104.0-0.0","0","0","44506","","390","","","68","11","","","1","11","training","adjacent","DE","4","5","R.jpg","P.jpg","1","1","1","",""
"","feedback","","html-keyboard-response","79","119834","0.0-1.0-105.0-0.0","0","0","44506","","null","","","null","11","","","","","","","","","","","","","","","",""
"","ITI","","html-keyboard-response","80","120836","0.0-1.0-108.0","0","0","44506","","null","","","null","11","","","","","","","","","","","","","","","NaN",""
"","S1","","html-keyboard-response","81","121088","0.0-1.0-110.0","0","0","44506","","null","","","null","12","","","","","","","","","","","","","","","",""
"","ISI","","html-keyboard-response","82","122089","0.0-1.0-111.0","0","0","44506","","null","","","null","12","NaN","","","","","","","","","","","","","","",""
"","S2","","html-keyboard-response","83","122341","0.0-1.0-112.0","0","0","44506","","null","","","null","12","","NaN","","","","","","","","","","","","","",""
"","response","","html-keyboard-response","84","122637","0.0-1.0-113.0-0.0","0","0","44506","","295","","","75","12","","","1","12","training","adjacent","GF","7","6","M.jpg","Q.jpg","0","0","1","",""
"","feedback","","html-keyboard-response","85","123639","0.0-1.0-114.0-0.0","0","0","44506","","null","","","null","12","","","","","","","","","","","","","","","",""
"","ITI","","html-keyboard-response","86","124640","0.0-1.0-117.0","0","0","44506","","null","","","null","12","","","","","","","","","","","","","","","NaN",""
"","S1","","html-keyboard-response","87","124892","0.0-1.0-119.0","0","0","44506","","null","","","null","13","","","","","","","","","","","","","","","",""
"","ISI","","html-keyboard-response","88","125894","0.0-1.0-120.0","0","0","44506","","null","","","null","13","NaN","","","","","","","","","","","","","","",""
"","S2","","html-keyboard-response","89","126145","0.0-1.0-121.0","0","0","44506","","null","","","null","13","","NaN","","","","","","","","","","","","","",""
"","response","","html-keyboard-response","90","126478","0.0-1.0-122.0-0.0","0","0","44506","","332","","","68","13","","","1","13","training","adjacent","FG","6","7","Q.jpg","M.jpg","1","1","1","",""
"","feedback","","html-keyboard-response","91","127479","0.0-1.0-123.0-0.0","0","0","44506","","null","","","null","13","","","","","","","","","","","","","","","",""
"","ITI","","html-keyboard-response","92","128481","0.0-1.0-126.0","0","0","44506","","null","","","null","13","","","","","","","","","","","","","","","NaN",""
"","S1","","html-keyboard-response","93","128732","0.0-1.0-128.0","0","0","44506","","null","","","null","14","","","","","","","","","","","","","","","",""
"","ISI","","html-keyboard-response","94","129733","0.0-1.0-129.0","0","0","44506","","null","","","null","14","NaN","","","","","","","","","","","","","","",""
"","S2","","html-keyboard-response","95","129985","0.0-1.0-130.0","0","0","44506","","null","","","null","14","","NaN","","","","","","","","","","","","","",""
"","response","","html-keyboard-response","96","130592","0.0-1.0-131.0-0.0","0","0","44506","","606","","","75","14","","","1","14","training","adjacent","GF","7","6","M.jpg","Q.jpg","0","0","1","",""
"","feedback","","html-keyboard-response","97","131593","0.0-1.0-132.0-0.0","0","0","44506","","null","","","null","14","","","","","","","","","","","","","","","",""
"","ITI","","html-keyboard-response","98","132594","0.0-1.0-135.0","0","0","44506","","null","","","null","14","","","","","","","","","","","","","","","NaN",""
"","S1","","html-keyboard-response","99","132846","0.0-1.0-137.0","0","0","44506","","null","","","null","15","","","","","","","","","","","","","","","",""
"","ISI","","html-keyboard-response","100","133849","0.0-1.0-138.0","0","0","44506","","null","","","null","15","NaN","","","","","","","","","","","","","","",""
"","S2","","html-keyboard-response","101","134100","0.0-1.0-139.0","0","0","44506","","null","","","null","15","","NaN","","","","","","","","","","","","","",""
"","response","","html-keyboard-response","102","134610","0.0-1.0-140.0-0.0","0","0","44506","","508","","","68","15","","","1","15","training","adjacent","CB","3","2","O.jpg","N.jpg","1","0","0","",""
"","feedback","","html-keyboard-response","103","135611","0.0-1.0-141.0-0.0","0","0","44506","","null","","","null","15","","","","","","","","","","","","","","","",""
"","time_out","","html-keyboard-response","104","137613","0.0-1.0-143.0-0.0","0","0","44506","","null","","","null","15","","","","","","","","","","","","","","","",""
"","ITI","","html-keyboard-response","105","138615","0.0-1.0-144.0","0","0","44506","","null","","","null","15","","","","","","","","","","","","","","","NaN",""
"","S1","","html-keyboard-response","106","138867","0.0-1.0-146.0","0","0","44506","","null","","","null","16","","","","","","","","","","","","","","","",""
"","ISI","","html-keyboard-response","107","139868","0.0-1.0-147.0","0","0","44506","","null","","","null","16","NaN","","","","","","","","","","","","","","",""
"","S2","","html-keyboard-response","108","140119","0.0-1.0-148.0","0","0","44506","","null","","","null","16","","NaN","","","","","","","","","","","","","",""
"","response","","html-keyboard-response","109","140817","0.0-1.0-149.0-0.0","0","0","44506","","696","","","68","16","","","1","16","training","adjacent","AB","1","2","L.jpg","N.jpg","1","1","1","",""
"","feedback","","html-keyboard-response","110","141819","0.0-1.0-150.0-0.0","0","0","44506","","null","","","null","16","","","","","","","","","","","","","","","",""
"","ITI","","html-keyboard-response","111","142820","0.0-1.0-153.0","0","0","44506","","null","","","null","16","","","","","","","","","","","","","","","NaN",""
"","S1","","html-keyboard-response","112","143072","0.0-1.0-155.0","0","0","44506","","null","","","null","17","","","","","","","","","","","","","","","",""
"","ISI","","html-keyboard-response","113","144073","0.0-1.0-156.0","0","0","44506","","null","","","null","17","NaN","","","","","","","","","","","","","","",""
"","S2","","html-keyboard-response","114","144325","0.0-1.0-157.0","0","0","44506","","null","","","null","17","","NaN","","","","","","","","","","","","","",""
"","response","","html-keyboard-response","115","144971","0.0-1.0-158.0-0.0","0","0","44506","","645","","","75","17","","","1","17","training","adjacent","EF","5","6","P.jpg","Q.jpg","0","1","0","",""
"","feedback","","html-keyboard-response","116","145973","0.0-1.0-159.0-0.0","0","0","44506","","null","","","null","17","","","","","","","","","","","","","","","",""
"","time_out","","html-keyboard-response","117","147974","0.0-1.0-161.0-0.0","0","0","44506","","null","","","null","17","","","","","","","","","","","","","","","",""
"","ITI","","html-keyboard-response","118","148975","0.0-1.0-162.0","0","0","44506","","null","","","null","17","","","","","","","","","","","","","","","NaN",""
"","S1","","html-keyboard-response","119","149228","0.0-1.0-164.0","0","0","44506","","null","","","null","18","","","","","","","","","","","","","","","",""
"","ISI","","html-keyboard-response","120","150229","0.0-1.0-165.0","0","0","44506","","null","","","null","18","NaN","","","","","","","","","","","","","","",""
"","S2","","html-keyboard-response","121","150481","0.0-1.0-166.0","0","0","44506","","null","","","null","18","","NaN","","","","","","","","","","","","","",""
"","response","","html-keyboard-response","122","150875","0.0-1.0-167.0-0.0","0","0","44506","","393","","","68","18","","","1","18","training","adjacent","AB","1","2","L.jpg","N.jpg","1","1","1","",""
"","feedback","","html-keyboard-response","123","151877","0.0-1.0-168.0-0.0","0","0","44506","","null","","","null","18","","","","","","","","","","","","","","","",""
"","ITI","","html-keyboard-response","124","152879","0.0-1.0-171.0","0","0","44506","","null","","","null","18","","","","","","","","","","","","","","","NaN",""
"","S1","","html-keyboard-response","125","153130","0.0-1.0-173.0","0","0","44506","","null","","","null","19","","","","","","","","","","","","","","","",""
"","ISI","","html-keyboard-response","126","154131","0.0-1.0-174.0","0","0","44506","","null","","","null","19","NaN","","","","","","","","","","","","","","",""
"","S2","","html-keyboard-response","127","154384","0.0-1.0-175.0","0","0","44506","","null","","","null","19","","NaN","","","","","","","","","","","","","",""
"","response","","html-keyboard-response","128","154711","0.0-1.0-176.0-0.0","0","0","44506","","326","","","75","19","","","1","19","training","adjacent","CB","3","2","O.jpg","N.jpg","0","0","1","",""
"","feedback","","html-keyboard-response","129","155712","0.0-1.0-177.0-0.0","0","0","44506","","null","","","null","19","","","","","","","","","","","","","","","",""
"","ITI","","html-keyboard-response","130","156715","0.0-1.0-180.0","0","0","44506","","null","","","null","19","","","","","","","","","","","","","","","NaN",""
"","S1","","html-keyboard-response","131","156966","0.0-1.0-182.0","0","0","44506","","null","","","null","20","","","","","","","","","","","","","","","",""
"","ISI","","html-keyboard-response","132","157968","0.0-1.0-183.0","0","0","44506","","null","","","null","20","NaN","","","","","","","","","","","","","","",""
"","S2","","html-keyboard-response","133","158219","0.0-1.0-184.0","0","0","44506","","null","","","null","20","","NaN","","","","","","","","","","","","","",""
"","response","","html-keyboard-response","134","158506","0.0-1.0-185.0-0.0","0","0","44506","","285","","","68","20","","","1","20","training","adjacent","BC","2","3","N.jpg","O.jpg","1","1","1","",""
"","feedback","","html-keyboard-response","135","159508","0.0-1.0-186.0-0.0","0","0","44506","","null","","","null","20","","","","","","","","","","","","","","","",""
"","ITI","","html-keyboard-response","136","160510","0.0-1.0-189.0","0","0","44506","","null","","","null","20","","","","","","","","","","","","","","","NaN",""
"","S1","","html-keyboard-response","137","160763","0.0-1.0-191.0","0","0","44506","","null","","","null","21","","","","","","","","","","","","","","","",""
"","ISI","","html-keyboard-response","138","161765","0.0-1.0-192.0","0","0","44506","","null","","","null","21","NaN","","","","","","","","","","","","","","",""
"","S2","","html-keyboard-response","139","162016","0.0-1.0-193.0","0","0","44506","","null","","","null","21","","NaN","","","","","","","","","","","","","",""
"","response","","html-keyboard-response","140","162545","0.0-1.0-194.0-0.0","0","0","44506","","527","","","68","21","","","1","21","training","adjacent","DE","4","5","R.jpg","P.jpg","1","1","1","",""
"","feedback","","html-keyboard-response","141","163546","0.0-1.0-195.0-0.0","0","0","44506","","null","","","null","21","","","","","","","","","","","","","","","",""
"","ITI","","html-keyboard-response","142","164548","0.0-1.0-198.0","0","0","44506","","null","","","null","21","","","","","","","","","","","","","","","NaN",""
"","S1","","html-keyboard-response","143","164800","0.0-1.0-200.0","0","0","44506","","null","","","null","22","","","","","","","","","","","","","","","",""
"","ISI","","html-keyboard-response","144","165801","0.0-1.0-201.0","0","0","44506","","null","","","null","22","NaN","","","","","","","","","","","","","","",""
"","S2","","html-keyboard-response","145","166053","0.0-1.0-202.0","0","0","44506","","null","","","null","22","","NaN","","","","","","","","","","","","","",""
"","response","","html-keyboard-response","146","166708","0.0-1.0-203.0-0.0","0","0","44506","","654","","","75","22","","","1","22","training","adjacent","BC","2","3","N.jpg","O.jpg","0","1","0","",""
"","feedback","","html-keyboard-response","147","167710","0.0-1.0-204.0-0.0","0","0","44506","","null","","","null","22","","","","","","","","","","","","","","","",""
"","time_out","","html-keyboard-response","148","169711","0.0-1.0-206.0-0.0","0","0","44506","","null","","","null","22","","","","","","","","","","","","","","","",""
"","ITI","","html-keyboard-response","149","170713","0.0-1.0-207.0","0","0","44506","","null","","","null","22","","","","","","","","","","","","","","","NaN",""
"","S1","","html-keyboard-response","150","170966","0.0-1.0-209.0","0","0","44506","","null","","","null","23","","","","","","","","","","","","","","","",""
"","ISI","","html-keyboard-response","151","171968","0.0-1.0-210.0","0","0","44506","","null","","","null","23","NaN","","","","","","","","","","","","","","",""
"","S2","","html-keyboard-response","152","172220","0.0-1.0-211.0","0","0","44506","","null","","","null","23","","NaN","","","","","","","","","","","","","",""
"","response","","html-keyboard-response","153","172719","0.0-1.0-212.0-0.0","0","0","44506","","498","","","75","23","","","1","23","training","adjacent","BA","2","1","N.jpg","L.jpg","0","0","1","",""
"","feedback","","html-keyboard-response","154","173726","0.0-1.0-213.0-0.0","0","0","44506","","null","","","null","23","","","","","","","","","","","","","","","",""
"","ITI","","html-keyboard-response","155","174728","0.0-1.0-216.0","0","0","44506","","null","","","null","23","","","","","","","","","","","","","","","NaN",""
"","S1","","html-keyboard-response","156","174980","0.0-1.0-218.0","0","0","44506","","null","","","null","24","","","","","","","","","","","","","","","",""
"","ISI","","html-keyboard-response","157","175981","0.0-1.0-219.0","0","0","44506","","null","","","null","24","NaN","","","","","","","","","","","","","","",""
"","S2","","html-keyboard-response","158","176233","0.0-1.0-220.0","0","0","44506","","null","","","null","24","","NaN","","","","","","","","","","","","","",""
"","response","","html-keyboard-response","159","176981","0.0-1.0-221.0-0.0","0","0","44506","","747","","","68","24","","","1","24","training","adjacent","AB","1","2","L.jpg","N.jpg","1","1","1","",""
"","feedback","","html-keyboard-response","160","177982","0.0-1.0-222.0-0.0","0","0","44506","","null","","","null","24","","","","","","","","","","","","","","","",""
"","ITI","","html-keyboard-response","161","178984","0.0-1.0-225.0","0","0","44506","","null","","","null","24","","","","","","","","","","","","","","","NaN",""
"","S1","","html-keyboard-response","162","179236","0.0-1.0-227.0","0","0","44506","","null","","","null","25","","","","","","","","","","","","","","","",""
"","ISI","","html-keyboard-response","163","180238","0.0-1.0-228.0","0","0","44506","","null","","","null","25","NaN","","","","","","","","","","","","","","",""
"","S2","","html-keyboard-response","164","180489","0.0-1.0-229.0","0","0","44506","","null","","","null","25","","NaN","","","","","","","","","","","","","",""
"","response","","html-keyboard-response","165","180908","0.0-1.0-230.0-0.0","0","0","44506","","417","","","68","25","","","1","25","training","adjacent","DC","4","3","R.jpg","O.jpg","1","0","0","",""
"","feedback","","html-keyboard-response","166","181909","0.0-1.0-231.0-0.0","0","0","44506","","null","","","null","25","","","","","","","","","","","","","","","",""
"","time_out","","html-keyboard-response","167","183911","0.0-1.0-233.0-0.0","0","0","44506","","null","","","null","25","","","","","","","","","","","","","","","",""
"","ITI","","html-keyboard-response","168","184912","0.0-1.0-234.0","0","0","44506","","null","","","null","25","","","","","","","","","","","","","","","NaN",""
"","S1","","html-keyboard-response","169","185164","0.0-1.0-236.0","0","0","44506","","null","","","null","26","","","","","","","","","","","","","","","",""
"","ISI","","html-keyboard-response","170","186165","0.0-1.0-237.0","0","0","44506","","857","","","75","26","k","","","","","","","","","","","","","","",""
"","S2","","html-keyboard-response","171","186418","0.0-1.0-238.0","0","0","44506","","null","","","null","26","","NaN","","","","","","","","","","","","","",""
"","response","","html-keyboard-response","172","187050","0.0-1.0-239.0-0.0","0","0","44506","","631","","","75","26","","","1","26","training","adjacent","ED","5","4","P.jpg","R.jpg","0","0","1","",""
"","feedback","","html-keyboard-response","173","188051","0.0-1.0-240.0-0.0","0","0","44506","","null","","","null","26","","","","","","","","","","","","","","","",""
"","ITI","","html-keyboard-response","174","189052","0.0-1.0-243.0","0","0","44506","","null","","","null","26","","","","","","","","","","","","","","","NaN",""
"","S1","","html-keyboard-response","175","189303","0.0-1.0-245.0","0","0","44506","","null","","","null","27","","","","","","","","","","","","","","","",""
"","ISI","","html-keyboard-response","176","190305","0.0-1.0-246.0","0","0","44506","","null","","","null","27","NaN","","","","","","","","","","","","","","",""
"","S2","","html-keyboard-response","177","190558","0.0-1.0-247.0","0","0","44506","","null","","","null","27","","NaN","","","","","","","","","","","","","",""
"","response","","html-keyboard-response","178","191572","0.0-1.0-248.0-0.0","0","0","44506","","1012","","","75","27","","","1","27","training","adjacent","EF","5","6","P.jpg","Q.jpg","0","1","0","",""
"","feedback","","html-keyboard-response","179","192574","0.0-1.0-249.0-0.0","0","0","44506","","null","","","null","27","","","","","","","","","","","","","","","",""
"","time_out","","html-keyboard-response","180","194576","0.0-1.0-251.0-0.0","0","0","44506","","null","","","null","27","","","","","","","","","","","","","","","",""
"","ITI","","html-keyboard-response","181","195577","0.0-1.0-252.0","0","0","44506","","null","","","null","27","","","","","","","","","","","","","","","NaN",""
"","S1","","html-keyboard-response","182","195830","0.0-1.0-254.0","0","0","44506","","null","","","null","28","","","","","","","","","","","","","","","",""
"","ISI","","html-keyboard-response","183","196832","0.0-1.0-255.0","0","0","44506","","null","","","null","28","NaN","","","","","","","","","","","","","","",""
"","S2","","html-keyboard-response","184","197083","0.0-1.0-256.0","0","0","44506","","null","","","null","28","","NaN","","","","","","","","","","","","","",""
"","response","","html-keyboard-response","185","198223","0.0-1.0-257.0-0.0","0","0","44506","","1139","","","68","28","","","1","28","training","adjacent","BC","2","3","N.jpg","O.jpg","1","1","1","",""
"","feedback","","html-keyboard-response","186","199224","0.0-1.0-258.0-0.0","0","0","44506","","null","","","null","28","","","","","","","","","","","","","","","",""
"","ITI","","html-keyboard-response","187","200227","0.0-1.0-261.0","0","0","44506","","null","","","null","28","","","","","","","","","","","","","","","NaN",""
"","S1","","html-keyboard-response","188","200479","0.0-1.0-263.0","0","0","44506","","null","","","null","29","","","","","","","","","","","","","","","",""
"","ISI","","html-keyboard-response","189","201486","0.0-1.0-264.0","0","0","44506","","null","","","null","29","NaN","","","","","","","","","","","","","","",""
"","S2","","html-keyboard-response","190","201738","0.0-1.0-265.0","0","0","44506","","null","","","null","29","","NaN","","","","","","","","","","","","","",""
"","response","","html-keyboard-response","191","202126","0.0-1.0-266.0-0.0","0","0","44506","","387","","","75","29","","","1","29","training","adjacent","DE","4","5","R.jpg","P.jpg","0","1","0","",""
"","feedback","","html-keyboard-response","192","203128","0.0-1.0-267.0-0.0","0","0","44506","","null","","","null","29","","","","","","","","","","","","","","","",""
"","time_out","","html-keyboard-response","193","205131","0.0-1.0-269.0-0.0","0","0","44506","","null","","","null","29","","","","","","","","","","","","","","","",""
"","ITI","","html-keyboard-response","194","206132","0.0-1.0-270.0","0","0","44506","","null","","","null","29","","","","","","","","","","","","","","","NaN",""
"","S1","","html-keyboard-response","195","206384","0.0-1.0-272.0","0","0","44506","","null","","","null","30","","","","","","","","","","","","","","","",""
"","ISI","","html-keyboard-response","196","207386","0.0-1.0-273.0","0","0","44506","","null","","","null","30","NaN","","","","","","","","","","","","","","",""
"","S2","","html-keyboard-response","197","207637","0.0-1.0-274.0","0","0","44506","","null","","","null","30","","NaN","","","","","","","","","","","","","",""
"","response","","html-keyboard-response","198","208261","0.0-1.0-275.0-0.0","0","0","44506","","623","","","68","30","","","1","30","training","adjacent","DC","4","3","R.jpg","O.jpg","1","0","0","",""
"","feedback","","html-keyboard-response","199","209263","0.0-1.0-276.0-0.0","0","0","44506","","null","","","null","30","","","","","","","","","","","","","","","",""
"","time_out","","html-keyboard-response","200","211264","0.0-1.0-278.0-0.0","0","0","44506","","null","","","null","30","","","","","","","","","","","","","","","",""
"","ITI","","html-keyboard-response","201","212265","0.0-1.0-279.0","0","0","44506","","null","","","null","30","","","","","","","","","","","","","","","NaN",""
"","S1","","html-keyboard-response","202","212516","0.0-1.0-281.0","0","0","44506","","null","","","null","31","","","","","","","","","","","","","","","",""
"","ISI","","html-keyboard-response","203","213518","0.0-1.0-282.0","0","0","44506","","null","","","null","31","NaN","","","","","","","","","","","","","","",""
"","S2","","html-keyboard-response","204","213769","0.0-1.0-283.0","0","0","44506","","null","","","null","31","","NaN","","","","","","","","","","","","","",""
"","response","","html-keyboard-response","205","214302","0.0-1.0-284.0-0.0","0","0","44506","","531","","","68","31","","","1","31","training","adjacent","FG","6","7","Q.jpg","M.jpg","1","1","1","",""
"","feedback","","html-keyboard-response","206","215304","0.0-1.0-285.0-0.0","0","0","44506","","null","","","null","31","","","","","","","","","","","","","","","",""
"","ITI","","html-keyboard-response","207","216305","0.0-1.0-288.0","0","0","44506","","null","","","null","31","","","","","","","","","","","","","","","NaN",""
"","S1","","html-keyboard-response","208","216556","0.0-1.0-290.0","0","0","44506","","null","","","null","32","","","","","","","","","","","","","","","",""
"","ISI","","html-keyboard-response","209","217558","0.0-1.0-291.0","0","0","44506","","null","","","null","32","NaN","","","","","","","","","","","","","","",""
"","S2","","html-keyboard-response","210","217810","0.0-1.0-292.0","0","0","44506","","null","","","null","32","","NaN","","","","","","","","","","","","","",""
"","response","","html-keyboard-response","211","218376","0.0-1.0-293.0-0.0","0","0","44506","","565","","","75","32","","","1","32","training","adjacent","DE","4","5","R.jpg","P.jpg","0","1","0","",""
"","feedback","","html-keyboard-response","212","219378","0.0-1.0-294.0-0.0","0","0","44506","","null","","","null","32","","","","","","","","","","","","","","","",""
"","time_out","","html-keyboard-response","213","221379","0.0-1.0-296.0-0.0","0","0","44506","","null","","","null","32","","","","","","","","","","","","","","","",""
"","ITI","","html-keyboard-response","214","222381","0.0-1.0-297.0","0","0","44506","","null","","","null","32","","","","","","","","","","","","","","","NaN",""
"","S1","","html-keyboard-response","215","222632","0.0-1.0-299.0","0","0","44506","","null","","","null","33","","","","","","","","","","","","","","","",""
"","ISI","","html-keyboard-response","216","223634","0.0-1.0-300.0","0","0","44506","","null","","","null","33","NaN","","","","","","","","","","","","","","",""
"","S2","","html-keyboard-response","217","223885","0.0-1.0-301.0","0","0","44506","","null","","","null","33","","NaN","","","","","","","","","","","","","",""
"","response","","html-keyboard-response","218","224573","0.0-1.0-302.0-0.0","0","0","44506","","686","","","68","33","","","1","33","training","adjacent","CD","3","4","O.jpg","R.jpg","1","1","1","",""
"","feedback","","html-keyboard-response","219","225574","0.0-1.0-303.0-0.0","0","0","44506","","null","","","null","33","","","","","","","","","","","","","","","",""
"","ITI","","html-keyboard-response","220","226576","0.0-1.0-306.0","0","0","44506","","null","","","null","33","","","","","","","","","","","","","","","NaN",""
"","S1","","html-keyboard-response","221","226828","0.0-1.0-308.0","0","0","44506","","null","","","null","34","","","","","","","","","","","","","","","",""
"","ISI","","html-keyboard-response","222","227829","0.0-1.0-309.0","0","0","44506","","null","","","null","34","NaN","","","","","","","","","","","","","","",""
"","S2","","html-keyboard-response","223","228081","0.0-1.0-310.0","0","0","44506","","null","","","null","34","","NaN","","","","","","","","","","","","","",""
"","response","","html-keyboard-response","224","228918","0.0-1.0-311.0-0.0","0","0","44506","","835","","","68","34","","","1","34","training","adjacent","BA","2","1","N.jpg","L.jpg","1","0","0","",""
"","feedback","","html-keyboard-response","225","229920","0.0-1.0-312.0-0.0","0","0","44506","","null","","","null","34","","","","","","","","","","","","","","","",""
"","time_out","","html-keyboard-response","226","231921","0.0-1.0-314.0-0.0","0","0","44506","","null","","","null","34","","","","","","","","","","","","","","","",""
"","ITI","","html-keyboard-response","227","232923","0.0-1.0-315.0","0","0","44506","","null","","","null","34","","","","","","","","","","","","","","","NaN",""
"","S1","","html-keyboard-response","228","233174","0.0-1.0-317.0","0","0","44506","","null","","","null","35","","","","","","","","","","","","","","","",""
"","ISI","","html-keyboard-response","229","234175","0.0-1.0-318.0","0","0","44506","","null","","","null","35","NaN","","","","","","","","","","","","","","",""
"","S2","","html-keyboard-response","230","234427","0.0-1.0-319.0","0","0","44506","","null","","","null","35","","NaN","","","","","","","","","","","","","",""
"","response","","html-keyboard-response","231","235126","0.0-1.0-320.0-0.0","0","0","44506","","699","","","75","35","","","1","35","training","adjacent","BA","2","1","N.jpg","L.jpg","0","0","1","",""
"","feedback","","html-keyboard-response","232","236128","0.0-1.0-321.0-0.0","0","0","44506","","null","","","null","35","","","","","","","","","","","","","","","",""
"","ITI","","html-keyboard-response","233","237130","0.0-1.0-324.0","0","0","44506","","null","","","null","35","","","","","","","","","","","","","","","NaN",""
"","S1","","html-keyboard-response","234","237382","0.0-1.0-326.0","0","0","44506","","null","","","null","36","","","","","","","","","","","","","","","",""
"","ISI","","html-keyboard-response","235","238383","0.0-1.0-327.0","0","0","44506","","null","","","null","36","NaN","","","","","","","","","","","","","","",""
"","S2","","html-keyboard-response","236","238634","0.0-1.0-328.0","0","0","44506","","null","","","null","36","","NaN","","","","","","","","","","","","","",""
"","response","","html-keyboard-response","237","239563","0.0-1.0-329.0-0.0","0","0","44506","","928","","","75","36","","","1","36","training","adjacent","ED","5","4","P.jpg","R.jpg","0","0","1","",""
"","feedback","","html-keyboard-response","238","240565","0.0-1.0-330.0-0.0","0","0","44506","","null","","","null","36","","","","","","","","","","","","","","","",""
"","ITI","","html-keyboard-response","239","241567","0.0-1.0-333.0","0","0","44506","","null","","","null","36","","","","","","","","","","","","","","","NaN",""
"","S1","","html-keyboard-response","240","241818","0.0-1.0-335.0","0","0","44506","","null","","","null","37","","","","","","","","","","","","","","","",""
"","ISI","","html-keyboard-response","241","242820","0.0-1.0-336.0","0","0","44506","","null","","","null","37","NaN","","","","","","","","","","","","","","",""
"","S2","","html-keyboard-response","242","243072","0.0-1.0-337.0","0","0","44506","","null","","","null","37","","NaN","","","","","","","","","","","","","",""
"","response","","html-keyboard-response","243","243952","0.0-1.0-338.0-0.0","0","0","44506","","879","","","68","37","","","1","37","training","adjacent","DC","4","3","R.jpg","O.jpg","1","0","0","",""
"","feedback","","html-keyboard-response","244","244953","0.0-1.0-339.0-0.0","0","0","44506","","null","","","null","37","","","","","","","","","","","","","","","",""
"","time_out","","html-keyboard-response","245","246955","0.0-1.0-341.0-0.0","0","0","44506","","null","","","null","37","","","","","","","","","","","","","","","",""
"","ITI","","html-keyboard-response","246","247956","0.0-1.0-342.0","0","0","44506","","null","","","null","37","","","","","","","","","","","","","","","NaN",""
"","S1","","html-keyboard-response","247","248208","0.0-1.0-344.0","0","0","44506","","null","","","null","38","","","","","","","","","","","","","","","",""
"","ISI","","html-keyboard-response","248","249209","0.0-1.0-345.0","0","0","44506","","null","","","null","38","NaN","","","","","","","","","","","","","","",""
"","S2","","html-keyboard-response","249","249461","0.0-1.0-346.0","0","0","44506","","null","","","null","38","","NaN","","","","","","","","","","","","","",""
"","response","","html-keyboard-response","250","250264","0.0-1.0-347.0-0.0","0","0","44506","","802","","","68","38","","","1","38","training","adjacent","CD","3","4","O.jpg","R.jpg","1","1","1","",""
"","feedback","","html-keyboard-response","251","251266","0.0-1.0-348.0-0.0","0","0","44506","","null","","","null","38","","","","","","","","","","","","","","","",""
"","ITI","","html-keyboard-response","252","252268","0.0-1.0-351.0","0","0","44506","","null","","","null","38","","","","","","","","","","","","","","","NaN",""
"","S1","","html-keyboard-response","253","252520","0.0-1.0-353.0","0","0","44506","","null","","","null","39","","","","","","","","","","","","","","","",""
"","ISI","","html-keyboard-response","254","253521","0.0-1.0-354.0","0","0","44506","","null","","","null","39","NaN","","","","","","","","","","","","","","",""
"","S2","","html-keyboard-response","255","253772","0.0-1.0-355.0","0","0","44506","","null","","","null","39","","NaN","","","","","","","","","","","","","",""
"","response","","html-keyboard-response","256","254699","0.0-1.0-356.0-0.0","0","0","44506","","925","","","75","39","","","1","39","training","adjacent","EF","5","6","P.jpg","Q.jpg","0","1","0","",""
"","feedback","","html-keyboard-response","257","255701","0.0-1.0-357.0-0.0","0","0","44506","","null","","","null","39","","","","","","","","","","","","","","","",""
"","time_out","","html-keyboard-response","258","257703","0.0-1.0-359.0-0.0","0","0","44506","","null","","","null","39","","","","","","","","","","","","","","","",""
"","ITI","","html-keyboard-response","259","258705","0.0-1.0-360.0","0","0","44506","","null","","","null","39","","","","","","","","","","","","","","","NaN",""
"","S1","","html-keyboard-response","260","258957","0.0-1.0-362.0","0","0","44506","","null","","","null","40","","","","","","","","","","","","","","","",""
"","ISI","","html-keyboard-response","261","259959","0.0-1.0-363.0","0","0","44506","","null","","","null","40","NaN","","","","","","","","","","","","","","",""
"","S2","","html-keyboard-response","262","260211","0.0-1.0-364.0","0","0","44506","","null","","","null","40","","NaN","","","","","","","","","","","","","",""
"","response","","html-keyboard-response","263","260737","0.0-1.0-365.0-0.0","0","0","44506","","525","","","68","40","","","1","40","training","adjacent","DC","4","3","R.jpg","O.jpg","1","0","0","",""
"","feedback","","html-keyboard-response","264","261738","0.0-1.0-366.0-0.0","0","0","44506","","null","","","null","40","","","","","","","","","","","","","","","",""
"","time_out","","html-keyboard-response","265","263740","0.0-1.0-368.0-0.0","0","0","44506","","null","","","null","40","","","","","","","","","","","","","","","",""
"","ITI","","html-keyboard-response","266","264741","0.0-1.0-369.0","0","0","44506","","null","","","null","40","","","","","","","","","","","","","","","NaN",""
"","S1","","html-keyboard-response","267","264993","0.0-1.0-371.0","0","0","44506","","null","","","null","41","","","","","","","","","","","","","","","",""
"","ISI","","html-keyboard-response","268","265994","0.0-1.0-372.0","0","0","44506","","null","","","null","41","NaN","","","","","","","","","","","","","","",""
"","S2","","html-keyboard-response","269","266247","0.0-1.0-373.0","0","0","44506","","null","","","null","41","","NaN","","","","","","","","","","","","","",""
"","response","","html-keyboard-response","270","266750","0.0-1.0-374.0-0.0","0","0","44506","","502","","","75","41","","","1","41","training","adjacent","ED","5","4","P.jpg","R.jpg","0","0","1","",""
"","feedback","","html-keyboard-response","271","267752","0.0-1.0-375.0-0.0","0","0","44506","","null","","","null","41","","","","","","","","","","","","","","","",""
"","ITI","","html-keyboard-response","272","268753","0.0-1.0-378.0","0","0","44506","","null","","","null","41","","","","","","","","","","","","","","","NaN",""
"","S1","","html-keyboard-response","273","269005","0.0-1.0-380.0","0","0","44506","","null","","","null","42","","","","","","","","","","","","","","","",""
"","ISI","","html-keyboard-response","274","270007","0.0-1.0-381.0","0","0","44506","","null","","","null","42","NaN","","","","","","","","","","","","","","",""
"","S2","","html-keyboard-response","275","270259","0.0-1.0-382.0","0","0","44506","","null","","","null","42","","NaN","","","","","","","","","","","","","",""
"","response","","html-keyboard-response","276","270602","0.0-1.0-383.0-0.0","0","0","44506","","342","","","75","42","","","1","42","training","adjacent","FG","6","7","Q.jpg","M.jpg","0","1","0","",""
"","feedback","","html-keyboard-response","277","271604","0.0-1.0-384.0-0.0","0","0","44506","","null","","","null","42","","","","","","","","","","","","","","","",""
"","time_out","","html-keyboard-response","278","273605","0.0-1.0-386.0-0.0","0","0","44506","","null","","","null","42","","","","","","","","","","","","","","","",""
"","ITI","","html-keyboard-response","279","274607","0.0-1.0-387.0","0","0","44506","","null","","","null","42","","","","","","","","","","","","","","","NaN",""
"","S1","","html-keyboard-response","280","274859","0.0-1.0-389.0","0","0","44506","","null","","","null","43","","","","","","","","","","","","","","","",""
"","ISI","","html-keyboard-response","281","275860","0.0-1.0-390.0","0","0","44506","","null","","","null","43","NaN","","","","","","","","","","","","","","",""
"","S2","","html-keyboard-response","282","276111","0.0-1.0-391.0","0","0","44506","","null","","","null","43","","NaN","","","","","","","","","","","","","",""
"","response","","html-keyboard-response","283","276609","0.0-1.0-392.0-0.0","0","0","44506","","496","","","75","43","","","1","43","training","adjacent","CB","3","2","O.jpg","N.jpg","0","0","1","",""
"","feedback","","html-keyboard-response","284","277611","0.0-1.0-393.0-0.0","0","0","44506","","null","","","null","43","","","","","","","","","","","","","","","",""
"","ITI","","html-keyboard-response","285","278612","0.0-1.0-396.0","0","0","44506","","null","","","null","43","","","","","","","","","","","","","","","NaN",""
"","S1","","html-keyboard-response","286","278864","0.0-1.0-398.0","0","0","44506","","null","","","null","44","","","","","","","","","","","","","","","",""
"","ISI","","html-keyboard-response","287","279865","0.0-1.0-399.0","0","0","44506","","null","","","null","44","NaN","","","","","","","","","","","","","","",""
"","S2","","html-keyboard-response","288","280116","0.0-1.0-400.0","0","0","44506","","null","","","null","44","","NaN","","","","","","","","","","","","","",""
"","response","","html-keyboard-response","289","281405","0.0-1.0-401.0-0.0","0","0","44506","","1288","","","75","44","","","1","44","training","adjacent","EF","5","6","P.jpg","Q.jpg","0","1","0","",""
"","feedback","","html-keyboard-response","290","282408","0.0-1.0-402.0-0.0","0","0","44506","","null","","","null","44","","","","","","","","","","","","","","","",""
"","time_out","","html-keyboard-response","291","284409","0.0-1.0-404.0-0.0","0","0","44506","","null","","","null","44","","","","","","","","","","","","","","","",""
"","ITI","","html-keyboard-response","292","285410","0.0-1.0-405.0","0","0","44506","","null","","","null","44","","","","","","","","","","","","","","","NaN",""
"","S1","","html-keyboard-response","293","285662","0.0-1.0-407.0","0","0","44506","","null","","","null","45","","","","","","","","","","","","","","","",""
"","ISI","","html-keyboard-response","294","286664","0.0-1.0-408.0","0","0","44506","","null","","","null","45","NaN","","","","","","","","","","","","","","",""
"","S2","","html-keyboard-response","295","286916","0.0-1.0-409.0","0","0","44506","","null","","","null","45","","NaN","","","","","","","","","","","","","",""
"","response","","html-keyboard-response","296","288010","0.0-1.0-410.0-0.0","0","0","44506","","1093","","","68","45","","","1","45","training","adjacent","FE","6","5","Q.jpg","P.jpg","1","0","0","",""
"","feedback","","html-keyboard-response","297","289012","0.0-1.0-411.0-0.0","0","0","44506","","null","","","null","45","","","","","","","","","","","","","","","",""
"","time_out","","html-keyboard-response","298","291014","0.0-1.0-413.0-0.0","0","0","44506","","null","","","null","45","","","","","","","","","","","","","","","",""
"","ITI","","html-keyboard-response","299","292016","0.0-1.0-414.0","0","0","44506","","null","","","null","45","","","","","","","","","","","","","","","NaN",""
"","S1","","html-keyboard-response","300","292267","0.0-1.0-416.0","0","0","44506","","null","","","null","46","","","","","","","","","","","","","","","",""
"","ISI","","html-keyboard-response","301","293269","0.0-1.0-417.0","0","0","44506","","null","","","null","46","NaN","","","","","","","","","","","","","","",""
"","S2","","html-keyboard-response","302","293520","0.0-1.0-418.0","0","0","44506","","null","","","null","46","","NaN","","","","","","","","","","","","","",""
"","response","","html-keyboard-response","303","294216","0.0-1.0-419.0-0.0","0","0","44506","","694","","","75","46","","","1","46","training","adjacent","FG","6","7","Q.jpg","M.jpg","0","1","0","",""
"","feedback","","html-keyboard-response","304","295218","0.0-1.0-420.0-0.0","0","0","44506","","null","","","null","46","","","","","","","","","","","","","","","",""
"","time_out","","html-keyboard-response","305","297219","0.0-1.0-422.0-0.0","0","0","44506","","null","","","null","46","","","","","","","","","","","","","","","",""
"","ITI","","html-keyboard-response","306","298222","0.0-1.0-423.0","0","0","44506","","null","","","null","46","","","","","","","","","","","","","","","NaN",""
"","S1","","html-keyboard-response","307","298474","0.0-1.0-425.0","0","0","44506","","null","","","null","47","","","","","","","","","","","","","","","",""
"","ISI","","html-keyboard-response","308","299475","0.0-1.0-426.0","0","0","44506","","null","","","null","47","NaN","","","","","","","","","","","","","","",""
"","S2","","html-keyboard-response","309","299727","0.0-1.0-427.0","0","0","44506","","null","","","null","47","","NaN","","","","","","","","","","","","","",""
"","response","","html-keyboard-response","310","300167","0.0-1.0-428.0-0.0","0","0","44506","","439","","","75","47","","","1","47","training","adjacent","FE","6","5","Q.jpg","P.jpg","0","0","1","",""
"","feedback","","html-keyboard-response","311","301168","0.0-1.0-429.0-0.0","0","0","44506","","null","","","null","47","","","","","","","","","","","","","","","",""
"","ITI","","html-keyboard-response","312","302171","0.0-1.0-432.0","0","0","44506","","null","","","null","47","","","","","","","","","","","","","","","NaN",""
"","block_over","","html-keyboard-response","313","309288","0.0-1.0-433.0-0.0","0","0","44506","","7116","","","32","47","","","","","","","","","","","","","","","",""
"","S1","","html-keyboard-response","314","309539","0.0-1.0-434.0","0","0","44506","","null","","","null","48","","","","","","","","","","","","","","","",""
"","ISI","","html-keyboard-response","315","310541","0.0-1.0-435.0","0","0","44506","","null","","","null","48","NaN","","","","","","","","","","","","","","",""
"","S2","","html-keyboard-response","316","310792","0.0-1.0-436.0","0","0","44506","","null","","","null","48","","NaN","","","","","","","","","","","","","",""
"","response","","html-keyboard-response","317","311406","0.0-1.0-437.0-0.0","0","0","44506","","613","","","68","48","","","2","48","training","adjacent","EF","5","6","P.jpg","Q.jpg","1","1","1","",""
"","feedback","","html-keyboard-response","318","312408","0.0-1.0-438.0-0.0","0","0","44506","","null","","","null","48","","","","","","","","","","","","","","","",""
"","ITI","","html-keyboard-response","319","313410","0.0-1.0-441.0","0","0","44506","","null","","","null","48","","","","","","","","","","","","","","","NaN",""
"","S1","","html-keyboard-response","320","313662","0.0-1.0-443.0","0","0","44506","","null","","","null","49","","","","","","","","","","","","","","","",""
"","ISI","","html-keyboard-response","321","314663","0.0-1.0-444.0","0","0","44506","","null","","","null","49","NaN","","","","","","","","","","","","","","",""
"","S2","","html-keyboard-response","322","314914","0.0-1.0-445.0","0","0","44506","","null","","","null","49","","NaN","","","","","","","","","","","","","",""
"","response","","html-keyboard-response","323","315396","0.0-1.0-446.0-0.0","0","0","44506","","480","","","68","49","","","2","49","training","adjacent","BC","2","3","N.jpg","O.jpg","1","1","1","",""
"","feedback","","html-keyboard-response","324","316398","0.0-1.0-447.0-0.0","0","0","44506","","null","","","null","49","","","","","","","","","","","","","","","",""
"","ITI","","html-keyboard-response","325","317400","0.0-1.0-450.0","0","0","44506","","null","","","null","49","","","","","","","","","","","","","","","NaN",""
"","S1","","html-keyboard-response","326","317652","0.0-1.0-452.0","0","0","44506","","null","","","null","50","","","","","","","","","","","","","","","",""
"","ISI","","html-keyboard-response","327","318653","0.0-1.0-453.0","0","0","44506","","null","","","null","50","NaN","","","","","","","","","","","","","","",""
"","S2","","html-keyboard-response","328","318908","0.0-1.0-454.0","0","0","44506","","null","","","null","50","","NaN","","","","","","","","","","","","","",""
"","response","","html-keyboard-response","329","319543","0.0-1.0-455.0-0.0","0","0","44506","","633","","","75","50","","","2","50","training","adjacent","DE","4","5","R.jpg","P.jpg","0","1","0","",""
"","feedback","","html-keyboard-response","330","320545","0.0-1.0-456.0-0.0","0","0","44506","","null","","","null","50","","","","","","","","","","","","","","","",""
"","time_out","","html-keyboard-response","331","322546","0.0-1.0-458.0-0.0","0","0","44506","","null","","","null","50","","","","","","","","","","","","","","","",""
"","ITI","","html-keyboard-response","332","323548","0.0-1.0-459.0","0","0","44506","","null","","","null","50","","","","","","","","","","","","","","","NaN",""
"","S1","","html-keyboard-response","333","323800","0.0-1.0-461.0","0","0","44506","","null","","","null","51","","","","","","","","","","","","","","","",""
"","ISI","","html-keyboard-response","334","324801","0.0-1.0-462.0","0","0","44506","","null","","","null","51","NaN","","","","","","","","","","","","","","",""
"","S2","","html-keyboard-response","335","325053","0.0-1.0-463.0","0","0","44506","","null","","","null","51","","NaN","","","","","","","","","","","","","",""
"","response","","html-keyboard-response","336","325585","0.0-1.0-464.0-0.0","0","0","44506","","531","","","68","51","","","2","51","training","adjacent","FG","6","7","Q.jpg","M.jpg","1","1","1","",""
"","feedback","","html-keyboard-response","337","326587","0.0-1.0-465.0-0.0","0","0","44506","","null","","","null","51","","","","","","","","","","","","","","","",""
"","ITI","","html-keyboard-response","338","327589","0.0-1.0-468.0","0","0","44506","","null","","","null","51","","","","","","","","","","","","","","","NaN",""
"","S1","","html-keyboard-response","339","327840","0.0-1.0-470.0","0","0","44506","","null","","","null","52","","","","","","","","","","","","","","","",""
"","ISI","","html-keyboard-response","340","328842","0.0-1.0-471.0","0","0","44506","","null","","","null","52","NaN","","","","","","","","","","","","","","",""
"","S2","","html-keyboard-response","341","329093","0.0-1.0-472.0","0","0","44506","","null","","","null","52","","NaN","","","","","","","","","","","","","",""
"","response","","html-keyboard-response","342","329309","0.0-1.0-473.0-0.0","0","0","44506","","215","","","75","52","","","2","52","training","adjacent","AB","1","2","L.jpg","N.jpg","0","1","0","",""
"","feedback","","html-keyboard-response","343","330311","0.0-1.0-474.0-0.0","0","0","44506","","null","","","null","52","","","","","","","","","","","","","","","",""
"","time_out","","html-keyboard-response","344","332312","0.0-1.0-476.0-0.0","0","0","44506","","null","","","null","52","","","","","","","","","","","","","","","",""
"","ITI","","html-keyboard-response","345","333314","0.0-1.0-477.0","0","0","44506","","null","","","null","52","","","","","","","","","","","","","","","NaN",""
"","S1","","html-keyboard-response","346","333565","0.0-1.0-479.0","0","0","44506","","null","","","null","53","","","","","","","","","","","","","","","",""
"","ISI","","html-keyboard-response","347","334567","0.0-1.0-480.0","0","0","44506","","null","","","null","53","NaN","","","","","","","","","","","","","","",""
"","S2","","html-keyboard-response","348","334819","0.0-1.0-481.0","0","0","44506","","null","","","null","53","","NaN","","","","","","","","","","","","","",""
"","response","","html-keyboard-response","349","335112","0.0-1.0-482.0-0.0","0","0","44506","","292","","","68","53","","","2","53","training","adjacent","ED","5","4","P.jpg","R.jpg","1","0","0","",""
"","feedback","","html-keyboard-response","350","336114","0.0-1.0-483.0-0.0","0","0","44506","","null","","","null","53","","","","","","","","","","","","","","","",""
"","time_out","","html-keyboard-response","351","338116","0.0-1.0-485.0-0.0","0","0","44506","","null","","","null","53","","","","","","","","","","","","","","","",""
"","ITI","","html-keyboard-response","352","339117","0.0-1.0-486.0","0","0","44506","","null","","","null","53","","","","","","","","","","","","","","","NaN",""
"","S1","","html-keyboard-response","353","339369","0.0-1.0-488.0","0","0","44506","","null","","","null","54","","","","","","","","","","","","","","","",""
"","ISI","","html-keyboard-response","354","340371","0.0-1.0-489.0","0","0","44506","","null","","","null","54","NaN","","","","","","","","","","","","","","",""
"","S2","","html-keyboard-response","355","340622","0.0-1.0-490.0","0","0","44506","","null","","","null","54","","NaN","","","","","","","","","","","","","",""
"","response","","html-keyboard-response","356","340928","0.0-1.0-491.0-0.0","0","0","44506","","304","","","68","54","","","2","54","training","adjacent","CB","3","2","O.jpg","N.jpg","1","0","0","",""
"","feedback","","html-keyboard-response","357","341929","0.0-1.0-492.0-0.0","0","0","44506","","null","","","null","54","","","","","","","","","","","","","","","",""
"","time_out","","html-keyboard-response","358","343931","0.0-1.0-494.0-0.0","0","0","44506","","null","","","null","54","","","","","","","","","","","","","","","",""
"","ITI","","html-keyboard-response","359","344933","0.0-1.0-495.0","0","0","44506","","null","","","null","54","","","","","","","","","","","","","","","NaN",""
"","S1","","html-keyboard-response","360","345185","0.0-1.0-497.0","0","0","44506","","null","","","null","55","","","","","","","","","","","","","","","",""
"","ISI","","html-keyboard-response","361","346188","0.0-1.0-498.0","0","0","44506","","null","","","null","55","NaN","","","","","","","","","","","","","","",""
"","S2","","html-keyboard-response","362","346439","0.0-1.0-499.0","0","0","44506","","null","","","null","55","","NaN","","","","","","","","","","","","","",""
"","response","","html-keyboard-response","363","346730","0.0-1.0-500.0-0.0","0","0","44506","","290","","","75","55","","","2","55","training","adjacent","ED","5","4","P.jpg","R.jpg","0","0","1","",""
"","feedback","","html-keyboard-response","364","347732","0.0-1.0-501.0-0.0","0","0","44506","","null","","","null","55","","","","","","","","","","","","","","","",""
"","ITI","","html-keyboard-response","365","348734","0.0-1.0-504.0","0","0","44506","","null","","","null","55","","","","","","","","","","","","","","","NaN",""
"","S1","","html-keyboard-response","366","348986","0.0-1.0-506.0","0","0","44506","","null","","","null","56","","","","","","","","","","","","","","","",""
"","ISI","","html-keyboard-response","367","349987","0.0-1.0-507.0","0","0","44506","","null","","","null","56","NaN","","","","","","","","","","","","","","",""
"","S2","","html-keyboard-response","368","350240","0.0-1.0-508.0","0","0","44506","","null","","","null","56","","NaN","","","","","","","","","","","","","",""
"","response","","html-keyboard-response","369","350497","0.0-1.0-509.0-0.0","0","0","44506","","256","","","75","56","","","2","56","training","adjacent","CD","3","4","O.jpg","R.jpg","0","1","0","",""
"","feedback","","html-keyboard-response","370","351499","0.0-1.0-510.0-0.0","0","0","44506","","null","","","null","56","","","","","","","","","","","","","","","",""
"","time_out","","html-keyboard-response","371","353500","0.0-1.0-512.0-0.0","0","0","44506","","null","","","null","56","","","","","","","","","","","","","","","",""
"","ITI","","html-keyboard-response","372","354502","0.0-1.0-513.0","0","0","44506","","null","","","null","56","","","","","","","","","","","","","","","NaN",""
"","S1","","html-keyboard-response","373","354753","0.0-1.0-515.0","0","0","44506","","null","","","null","57","","","","","","","","","","","","","","","",""
"","ISI","","html-keyboard-response","374","355755","0.0-1.0-516.0","0","0","44506","","null","","","null","57","NaN","","","","","","","","","","","","","","",""
"","S2","","html-keyboard-response","375","356007","0.0-1.0-517.0","0","0","44506","","null","","","null","57","","NaN","","","","","","","","","","","","","",""
"","response","","html-keyboard-response","376","356220","0.0-1.0-518.0-0.0","0","0","44506","","212","","","75","57","","","2","57","training","adjacent","CB","3","2","O.jpg","N.jpg","0","0","1","",""
"","feedback","","html-keyboard-response","377","357221","0.0-1.0-519.0-0.0","0","0","44506","","null","","","null","57","","","","","","","","","","","","","","","",""
"","ITI","","html-keyboard-response","378","358223","0.0-1.0-522.0","0","0","44506","","null","","","null","57","","","","","","","","","","","","","","","NaN",""
"","S1","","html-keyboard-response","379","358474","0.0-1.0-524.0","0","0","44506","","null","","","null","58","","","","","","","","","","","","","","","",""
"","ISI","","html-keyboard-response","380","359477","0.0-1.0-525.0","0","0","44506","","null","","","null","58","NaN","","","","","","","","","","","","","","",""
"","S2","","html-keyboard-response","381","359729","0.0-1.0-526.0","0","0","44506","","null","","","null","58","","NaN","","","","","","","","","","","","","",""
"","response","","html-keyboard-response","382","360571","0.0-1.0-527.0-0.0","0","0","44506","","841","","","75","58","","","2","58","training","adjacent","FG","6","7","Q.jpg","M.jpg","0","1","0","",""
"","feedback","","html-keyboard-response","383","361572","0.0-1.0-528.0-0.0","0","0","44506","","null","","","null","58","","","","","","","","","","","","","","","",""
"","time_out","","html-keyboard-response","384","363575","0.0-1.0-530.0-0.0","0","0","44506","","null","","","null","58","","","","","","","","","","","","","","","",""
"","ITI","","html-keyboard-response","385","364576","0.0-1.0-531.0","0","0","44506","","null","","","null","58","","","","","","","","","","","","","","","NaN",""
"","S1","","html-keyboard-response","386","364828","0.0-1.0-533.0","0","0","44506","","null","","","null","59","","","","","","","","","","","","","","","",""
"","ISI","","html-keyboard-response","387","365830","0.0-1.0-534.0","0","0","44506","","null","","","null","59","NaN","","","","","","","","","","","","","","",""
"","S2","","html-keyboard-response","388","366081","0.0-1.0-535.0","0","0","44506","","null","","","null","59","","NaN","","","","","","","","","","","","","",""
"","response","","html-keyboard-response","389","366427","0.0-1.0-536.0-0.0","0","0","44506","","345","","","68","59","","","2","59","training","adjacent","CD","3","4","O.jpg","R.jpg","1","1","1","",""
"","feedback","","html-keyboard-response","390","367428","0.0-1.0-537.0-0.0","0","0","44506","","null","","","null","59","","","","","","","","","","","","","","","",""
"","ITI","","html-keyboard-response","391","368430","0.0-1.0-540.0","0","0","44506","","null","","","null","59","","","","","","","","","","","","","","","NaN",""
"","S1","","html-keyboard-response","392","368682","0.0-1.0-542.0","0","0","44506","","null","","","null","60","","","","","","","","","","","","","","","",""
"","ISI","","html-keyboard-response","393","369684","0.0-1.0-543.0","0","0","44506","","null","","","null","60","NaN","","","","","","","","","","","","","","",""
"","S2","","html-keyboard-response","394","369937","0.0-1.0-544.0","0","0","44506","","null","","","null","60","","NaN","","","","","","","","","","","","","",""
"","response","","html-keyboard-response","395","370389","0.0-1.0-545.0-0.0","0","0","44506","","451","","","68","60","","","2","60","training","adjacent","EF","5","6","P.jpg","Q.jpg","1","1","1","",""
"","feedback","","html-keyboard-response","396","371391","0.0-1.0-546.0-0.0","0","0","44506","","null","","","null","60","","","","","","","","","","","","","","","",""
"","ITI","","html-keyboard-response","397","372393","0.0-1.0-549.0","0","0","44506","","null","","","null","60","","","","","","","","","","","","","","","NaN",""
"","S1","","html-keyboard-response","398","372645","0.0-1.0-551.0","0","0","44506","","null","","","null","61","","","","","","","","","","","","","","","",""
"","ISI","","html-keyboard-response","399","373646","0.0-1.0-552.0","0","0","44506","","null","","","null","61","NaN","","","","","","","","","","","","","","",""
"","S2","","html-keyboard-response","400","373899","0.0-1.0-553.0","0","0","44506","","null","","","null","61","","NaN","","","","","","","","","","","","","",""
"","response","","html-keyboard-response","401","374227","0.0-1.0-554.0-0.0","0","0","44506","","328","","","68","61","","","2","61","training","adjacent","GF","7","6","M.jpg","Q.jpg","1","0","0","",""
"","feedback","","html-keyboard-response","402","375229","0.0-1.0-555.0-0.0","0","0","44506","","null","","","null","61","","","","","","","","","","","","","","","",""
"","time_out","","html-keyboard-response","403","377231","0.0-1.0-557.0-0.0","0","0","44506","","null","","","null","61","","","","","","","","","","","","","","","",""
"","ITI","","html-keyboard-response","404","378232","0.0-1.0-558.0","0","0","44506","","null","","","null","61","","","","","","","","","","","","","","","NaN",""
"","S1","","html-keyboard-response","405","378484","0.0-1.0-560.0","0","0","44506","","null","","","null","62","","","","","","","","","","","","","","","",""
"","ISI","","html-keyboard-response","406","379486","0.0-1.0-561.0","0","0","44506","","null","","","null","62","NaN","","","","","","","","","","","","","","",""
"","S2","","html-keyboard-response","407","379738","0.0-1.0-562.0","0","0","44506","","null","","","null","62","","NaN","","","","","","","","","","","","","",""
"","response","","html-keyboard-response","408","380077","0.0-1.0-563.0-0.0","0","0","44506","","337","","","75","62","","","2","62","training","adjacent","BA","2","1","N.jpg","L.jpg","0","0","1","",""
"","feedback","","html-keyboard-response","409","381079","0.0-1.0-564.0-0.0","0","0","44506","","null","","","null","62","","","","","","","","","","","","","","","",""
"","ITI","","html-keyboard-response","410","382081","0.0-1.0-567.0","0","0","44506","","null","","","null","62","","","","","","","","","","","","","","","NaN",""
"","S1","","html-keyboard-response","411","382332","0.0-1.0-569.0","0","0","44506","","null","","","null","63","","","","","","","","","","","","","","","",""
"","ISI","","html-keyboard-response","412","383334","0.0-1.0-570.0","0","0","44506","","null","","","null","63","NaN","","","","","","","","","","","","","","",""
"","S2","","html-keyboard-response","413","383586","0.0-1.0-571.0","0","0","44506","","null","","","null","63","","NaN","","","","","","","","","","","","","",""
"","response","","html-keyboard-response","414","384075","0.0-1.0-572.0-0.0","0","0","44506","","488","","","75","63","","","2","63","training","adjacent","DE","4","5","R.jpg","P.jpg","0","1","0","",""
"","feedback","","html-keyboard-response","415","385077","0.0-1.0-573.0-0.0","0","0","44506","","null","","","null","63","","","","","","","","","","","","","","","",""
"","time_out","","html-keyboard-response","416","387079","0.0-1.0-575.0-0.0","0","0","44506","","null","","","null","63","","","","","","","","","","","","","","","",""
"","ITI","","html-keyboard-response","417","388081","0.0-1.0-576.0","0","0","44506","","null","","","null","63","","","","","","","","","","","","","","","NaN",""
"","S1","","html-keyboard-response","418","388334","0.0-1.0-578.0","0","0","44506","","null","","","null","64","","","","","","","","","","","","","","","",""
"","ISI","","html-keyboard-response","419","389335","0.0-1.0-579.0","0","0","44506","","null","","","null","64","NaN","","","","","","","","","","","","","","",""
"","S2","","html-keyboard-response","420","389587","0.0-1.0-580.0","0","0","44506","","null","","","null","64","","NaN","","","","","","","","","","","","","",""
"","response","","html-keyboard-response","421","389871","0.0-1.0-581.0-0.0","0","0","44506","","283","","","75","64","","","2","64","training","adjacent","BA","2","1","N.jpg","L.jpg","0","0","1","",""
"","feedback","","html-keyboard-response","422","390872","0.0-1.0-582.0-0.0","0","0","44506","","null","","","null","64","","","","","","","","","","","","","","","",""
"","ITI","","html-keyboard-response","423","391874","0.0-1.0-585.0","0","0","44506","","null","","","null","64","","","","","","","","","","","","","","","NaN",""
"","S1","","html-keyboard-response","424","392126","0.0-1.0-587.0","0","0","44506","","null","","","null","65","","","","","","","","","","","","","","","",""
"","ISI","","html-keyboard-response","425","393128","0.0-1.0-588.0","0","0","44506","","null","","","null","65","NaN","","","","","","","","","","","","","","",""
"","S2","","html-keyboard-response","426","393380","0.0-1.0-589.0","0","0","44506","","null","","","null","65","","NaN","","","","","","","","","","","","","",""
"","response","","html-keyboard-response","427","393669","0.0-1.0-590.0-0.0","0","0","44506","","288","","","68","65","","","2","65","training","adjacent","DC","4","3","R.jpg","O.jpg","1","0","0","",""
"","feedback","","html-keyboard-response","428","394671","0.0-1.0-591.0-0.0","0","0","44506","","null","","","null","65","","","","","","","","","","","","","","","",""
"","time_out","","html-keyboard-response","429","396672","0.0-1.0-593.0-0.0","0","0","44506","","null","","","null","65","","","","","","","","","","","","","","","",""
"","ITI","","html-keyboard-response","430","397674","0.0-1.0-594.0","0","0","44506","","null","","","null","65","","","","","","","","","","","","","","","NaN",""
"","S1","","html-keyboard-response","431","397925","0.0-1.0-596.0","0","0","44506","","null","","","null","66","","","","","","","","","","","","","","","",""
"","ISI","","html-keyboard-response","432","398926","0.0-1.0-597.0","0","0","44506","","null","","","null","66","NaN","","","","","","","","","","","","","","",""
"","S2","","html-keyboard-response","433","399179","0.0-1.0-598.0","0","0","44506","","null","","","null","66","","NaN","","","","","","","","","","","","","",""
"","response","","html-keyboard-response","434","399495","0.0-1.0-599.0-0.0","0","0","44506","","315","","","75","66","","","2","66","training","adjacent","AB","1","2","L.jpg","N.jpg","0","1","0","",""
"","feedback","","html-keyboard-response","435","400497","0.0-1.0-600.0-0.0","0","0","44506","","null","","","null","66","","","","","","","","","","","","","","","",""
"","time_out","","html-keyboard-response","436","402499","0.0-1.0-602.0-0.0","0","0","44506","","null","","","null","66","","","","","","","","","","","","","","","",""
"","ITI","","html-keyboard-response","437","403501","0.0-1.0-603.0","0","0","44506","","null","","","null","66","","","","","","","","","","","","","","","NaN",""
"","S1","","html-keyboard-response","438","403752","0.0-1.0-605.0","0","0","44506","","null","","","null","67","","","","","","","","","","","","","","","",""
"","ISI","","html-keyboard-response","439","404754","0.0-1.0-606.0","0","0","44506","","null","","","null","67","NaN","","","","","","","","","","","","","","",""
"","S2","","html-keyboard-response","440","405006","0.0-1.0-607.0","0","0","44506","","null","","","null","67","","NaN","","","","","","","","","","","","","",""
"","response","","html-keyboard-response","441","405367","0.0-1.0-608.0-0.0","0","0","44506","","360","","","75","67","","","2","67","training","adjacent","DC","4","3","R.jpg","O.jpg","0","0","1","",""
"","feedback","","html-keyboard-response","442","406369","0.0-1.0-609.0-0.0","0","0","44506","","null","","","null","67","","","","","","","","","","","","","","","",""
"","ITI","","html-keyboard-response","443","407370","0.0-1.0-612.0","0","0","44506","","null","","","null","67","","","","","","","","","","","","","","","NaN",""
"","S1","","html-keyboard-response","444","407622","0.0-1.0-614.0","0","0","44506","","null","","","null","68","","","","","","","","","","","","","","","",""
"","ISI","","html-keyboard-response","445","408625","0.0-1.0-615.0","0","0","44506","","null","","","null","68","NaN","","","","","","","","","","","","","","",""
"","S2","","html-keyboard-response","446","408877","0.0-1.0-616.0","0","0","44506","","null","","","null","68","","NaN","","","","","","","","","","","","","",""
"","response","","html-keyboard-response","447","409366","0.0-1.0-617.0-0.0","0","0","44506","","488","","","75","68","","","2","68","training","adjacent","DC","4","3","R.jpg","O.jpg","0","0","1","",""
"","feedback","","html-keyboard-response","448","410367","0.0-1.0-618.0-0.0","0","0","44506","","null","","","null","68","","","","","","","","","","","","","","","",""
"","ITI","","html-keyboard-response","449","411368","0.0-1.0-621.0","0","0","44506","","null","","","null","68","","","","","","","","","","","","","","","NaN",""
"","S1","","html-keyboard-response","450","411620","0.0-1.0-623.0","0","0","44506","","null","","","null","69","","","","","","","","","","","","","","","",""
"","ISI","","html-keyboard-response","451","412621","0.0-1.0-624.0","0","0","44506","","null","","","null","69","NaN","","","","","","","","","","","","","","",""
"","S2","","html-keyboard-response","452","412873","0.0-1.0-625.0","0","0","44506","","null","","","null","69","","NaN","","","","","","","","","","","","","",""
"","response","","html-keyboard-response","453","413487","0.0-1.0-626.0-0.0","0","0","44506","","612","","","68","69","","","2","69","training","adjacent","BC","2","3","N.jpg","O.jpg","1","1","1","",""
"","feedback","","html-keyboard-response","454","414489","0.0-1.0-627.0-0.0","0","0","44506","","null","","","null","69","","","","","","","","","","","","","","","",""
"","ITI","","html-keyboard-response","455","415490","0.0-1.0-630.0","0","0","44506","","null","","","null","69","","","","","","","","","","","","","","","NaN",""
"","S1","","html-keyboard-response","456","415742","0.0-1.0-632.0","0","0","44506","","null","","","null","70","","","","","","","","","","","","","","","",""
"","ISI","","html-keyboard-response","457","416744","0.0-1.0-633.0","0","0","44506","","null","","","null","70","NaN","","","","","","","","","","","","","","",""
"","S2","","html-keyboard-response","458","416996","0.0-1.0-634.0","0","0","44506","","null","","","null","70","","NaN","","","","","","","","","","","","","",""
"","response","","html-keyboard-response","459","417594","0.0-1.0-635.0-0.0","0","0","44506","","597","","","75","70","","","2","70","training","adjacent","DE","4","5","R.jpg","P.jpg","0","1","0","",""
"","feedback","","html-keyboard-response","460","418597","0.0-1.0-636.0-0.0","0","0","44506","","null","","","null","70","","","","","","","","","","","","","","","",""
"","time_out","","html-keyboard-response","461","420598","0.0-1.0-638.0-0.0","0","0","44506","","null","","","null","70","","","","","","","","","","","","","","","",""
"","ITI","","html-keyboard-response","462","421600","0.0-1.0-639.0","0","0","44506","","null","","","null","70","","","","","","","","","","","","","","","NaN",""
"","S1","","html-keyboard-response","463","421852","0.0-1.0-641.0","0","0","44506","","null","","","null","71","","","","","","","","","","","","","","","",""
"","ISI","","html-keyboard-response","464","422854","0.0-1.0-642.0","0","0","44506","","null","","","null","71","NaN","","","","","","","","","","","","","","",""
"","S2","","html-keyboard-response","465","423105","0.0-1.0-643.0","0","0","44506","","null","","","null","71","","NaN","","","","","","","","","","","","","",""
"","response","","html-keyboard-response","466","423559","0.0-1.0-644.0-0.0","0","0","44506","","453","","","68","71","","","2","71","training","adjacent","FE","6","5","Q.jpg","P.jpg","1","0","0","",""
"","feedback","","html-keyboard-response","467","424560","0.0-1.0-645.0-0.0","0","0","44506","","null","","","null","71","","","","","","","","","","","","","","","",""
"","time_out","","html-keyboard-response","468","426562","0.0-1.0-647.0-0.0","0","0","44506","","null","","","null","71","","","","","","","","","","","","","","","",""
"","ITI","","html-keyboard-response","469","427564","0.0-1.0-648.0","0","0","44506","","null","","","null","71","","","","","","","","","","","","","","","NaN",""
"","S1","","html-keyboard-response","470","427820","0.0-1.0-650.0","0","0","44506","","null","","","null","72","","","","","","","","","","","","","","","",""
"","ISI","","html-keyboard-response","471","428822","0.0-1.0-651.0","0","0","44506","","null","","","null","72","NaN","","","","","","","","","","","","","","",""
"","S2","","html-keyboard-response","472","429074","0.0-1.0-652.0","0","0","44506","","null","","","null","72","","NaN","","","","","","","","","","","","","",""
"","response","","html-keyboard-response","473","430118","0.0-1.0-653.0-0.0","0","0","44506","","1043","","","75","72","","","2","72","training","adjacent","EF","5","6","P.jpg","Q.jpg","0","1","0","",""
"","feedback","","html-keyboard-response","474","431120","0.0-1.0-654.0-0.0","0","0","44506","","null","","","null","72","","","","","","","","","","","","","","","",""
"","time_out","","html-keyboard-response","475","433122","0.0-1.0-656.0-0.0","0","0","44506","","null","","","null","72","","","","","","","","","","","","","","","",""
"","ITI","","html-keyboard-response","476","434123","0.0-1.0-657.0","0","0","44506","","null","","","null","72","","","","","","","","","","","","","","","NaN",""
"","S1","","html-keyboard-response","477","434375","0.0-1.0-659.0","0","0","44506","","null","","","null","73","","","","","","","","","","","","","","","",""
"","ISI","","html-keyboard-response","478","435376","0.0-1.0-660.0","0","0","44506","","null","","","null","73","NaN","","","","","","","","","","","","","","",""
"","S2","","html-keyboard-response","479","435628","0.0-1.0-661.0","0","0","44506","","null","","","null","73","","NaN","","","","","","","","","","","","","",""
"","response","","html-keyboard-response","480","436086","0.0-1.0-662.0-0.0","0","0","44506","","457","","","75","73","","","2","73","training","adjacent","CD","3","4","O.jpg","R.jpg","0","1","0","",""
"","feedback","","html-keyboard-response","481","437088","0.0-1.0-663.0-0.0","0","0","44506","","null","","","null","73","","","","","","","","","","","","","","","",""
"","time_out","","html-keyboard-response","482","439089","0.0-1.0-665.0-0.0","0","0","44506","","null","","","null","73","","","","","","","","","","","","","","","",""
"","ITI","","html-keyboard-response","483","440091","0.0-1.0-666.0","0","0","44506","","null","","","null","73","","","","","","","","","","","","","","","NaN",""
"","S1","","html-keyboard-response","484","440343","0.0-1.0-668.0","0","0","44506","","null","","","null","74","","","","","","","","","","","","","","","",""
"","ISI","","html-keyboard-response","485","441345","0.0-1.0-669.0","0","0","44506","","null","","","null","74","NaN","","","","","","","","","","","","","","",""
"","S2","","html-keyboard-response","486","441597","0.0-1.0-670.0","0","0","44506","","null","","","null","74","","NaN","","","","","","","","","","","","","",""
"","response","","html-keyboard-response","487","441933","0.0-1.0-671.0-0.0","0","0","44506","","335","","","68","74","","","2","74","training","adjacent","BC","2","3","N.jpg","O.jpg","1","1","1","",""
"","feedback","","html-keyboard-response","488","442935","0.0-1.0-672.0-0.0","0","0","44506","","null","","","null","74","","","","","","","","","","","","","","","",""
"","ITI","","html-keyboard-response","489","443936","0.0-1.0-675.0","0","0","44506","","null","","","null","74","","","","","","","","","","","","","","","NaN",""
"","S1","","html-keyboard-response","490","444189","0.0-1.0-677.0","0","0","44506","","null","","","null","75","","","","","","","","","","","","","","","",""
"","ISI","","html-keyboard-response","491","445190","0.0-1.0-678.0","0","0","44506","","null","","","null","75","NaN","","","","","","","","","","","","","","",""
"","S2","","html-keyboard-response","492","445442","0.0-1.0-679.0","0","0","44506","","null","","","null","75","","NaN","","","","","","","","","","","","","",""
"","response","","html-keyboard-response","493","446344","0.0-1.0-680.0-0.0","0","0","44506","","900","","","68","75","","","2","75","training","adjacent","GF","7","6","M.jpg","Q.jpg","1","0","0","",""
"","feedback","","html-keyboard-response","494","447345","0.0-1.0-681.0-0.0","0","0","44506","","null","","","null","75","","","","","","","","","","","","","","","",""
"","time_out","","html-keyboard-response","495","449347","0.0-1.0-683.0-0.0","0","0","44506","","null","","","null","75","","","","","","","","","","","","","","","",""
"","ITI","","html-keyboard-response","496","450348","0.0-1.0-684.0","0","0","44506","","null","","","null","75","","","","","","","","","","","","","","","NaN",""
"","S1","","html-keyboard-response","497","450600","0.0-1.0-686.0","0","0","44506","","null","","","null","76","","","","","","","","","","","","","","","",""
"","ISI","","html-keyboard-response","498","451602","0.0-1.0-687.0","0","0","44506","","null","","","null","76","NaN","","","","","","","","","","","","","","",""
"","S2","","html-keyboard-response","499","451853","0.0-1.0-688.0","0","0","44506","","null","","","null","76","","NaN","","","","","","","","","","","","","",""
"","response","","html-keyboard-response","500","452280","0.0-1.0-689.0-0.0","0","0","44506","","426","","","75","76","","","2","76","training","adjacent","DE","4","5","R.jpg","P.jpg","0","1","0","",""
"","feedback","","html-keyboard-response","501","453284","0.0-1.0-690.0-0.0","0","0","44506","","null","","","null","76","","","","","","","","","","","","","","","",""
"","time_out","","html-keyboard-response","502","455286","0.0-1.0-692.0-0.0","0","0","44506","","null","","","null","76","","","","","","","","","","","","","","","",""
"","ITI","","html-keyboard-response","503","456288","0.0-1.0-693.0","0","0","44506","","null","","","null","76","","","","","","","","","","","","","","","NaN",""
"","S1","","html-keyboard-response","504","456539","0.0-1.0-695.0","0","0","44506","","null","","","null","77","","","","","","","","","","","","","","","",""
"","ISI","","html-keyboard-response","505","457541","0.0-1.0-696.0","0","0","44506","","null","","","null","77","NaN","","","","","","","","","","","","","","",""
"","S2","","html-keyboard-response","506","457792","0.0-1.0-697.0","0","0","44506","","null","","","null","77","","NaN","","","","","","","","","","","","","",""
"","response","","html-keyboard-response","507","458193","0.0-1.0-698.0-0.0","0","0","44506","","399","","","75","77","","","2","77","training","adjacent","ED","5","4","P.jpg","R.jpg","0","0","1","",""
"","feedback","","html-keyboard-response","508","459195","0.0-1.0-699.0-0.0","0","0","44506","","null","","","null","77","","","","","","","","","","","","","","","",""
"","ITI","","html-keyboard-response","509","460197","0.0-1.0-702.0","0","0","44506","","null","","","null","77","","","","","","","","","","","","","","","NaN",""
"","S1","","html-keyboard-response","510","460448","0.0-1.0-704.0","0","0","44506","","null","","","null","78","","","","","","","","","","","","","","","",""
"","ISI","","html-keyboard-response","511","461450","0.0-1.0-705.0","0","0","44506","","null","","","null","78","NaN","","","","","","","","","","","","","","",""
"","S2","","html-keyboard-response","512","461701","0.0-1.0-706.0","0","0","44506","","null","","","null","78","","NaN","","","","","","","","","","","","","",""
"","response","","html-keyboard-response","513","462636","0.0-1.0-707.0-0.0","0","0","44506","","934","","","68","78","","","2","78","training","adjacent","BA","2","1","N.jpg","L.jpg","1","0","0","",""
"","feedback","","html-keyboard-response","514","463638","0.0-1.0-708.0-0.0","0","0","44506","","null","","","null","78","","","","","","","","","","","","","","","",""
"","time_out","","html-keyboard-response","515","465640","0.0-1.0-710.0-0.0","0","0","44506","","null","","","null","78","","","","","","","","","","","","","","","",""
"","ITI","","html-keyboard-response","516","466642","0.0-1.0-711.0","0","0","44506","","null","","","null","78","","","","","","","","","","","","","","","NaN",""
"","S1","","html-keyboard-response","517","466894","0.0-1.0-713.0","0","0","44506","","null","","","null","79","","","","","","","","","","","","","","","",""
"","ISI","","html-keyboard-response","518","467896","0.0-1.0-714.0","0","0","44506","","null","","","null","79","NaN","","","","","","","","","","","","","","",""
"","S2","","html-keyboard-response","519","468148","0.0-1.0-715.0","0","0","44506","","null","","","null","79","","NaN","","","","","","","","","","","","","",""
"","response","","html-keyboard-response","520","468947","0.0-1.0-716.0-0.0","0","0","44506","","797","","","68","79","","","2","79","training","adjacent","GF","7","6","M.jpg","Q.jpg","1","0","0","",""
"","feedback","","html-keyboard-response","521","469948","0.0-1.0-717.0-0.0","0","0","44506","","null","","","null","79","","","","","","","","","","","","","","","",""
"","time_out","","html-keyboard-response","522","471950","0.0-1.0-719.0-0.0","0","0","44506","","null","","","null","79","","","","","","","","","","","","","","","",""
"","ITI","","html-keyboard-response","523","472952","0.0-1.0-720.0","0","0","44506","","null","","","null","79","","","","","","","","","","","","","","","NaN",""
"","S1","","html-keyboard-response","524","473204","0.0-1.0-722.0","0","0","44506","","null","","","null","80","","","","","","","","","","","","","","","",""
"","ISI","","html-keyboard-response","525","474205","0.0-1.0-723.0","0","0","44506","","null","","","null","80","NaN","","","","","","","","","","","","","","",""
"","S2","","html-keyboard-response","526","474457","0.0-1.0-724.0","0","0","44506","","null","","","null","80","","NaN","","","","","","","","","","","","","",""
"","response","","html-keyboard-response","527","474957","0.0-1.0-725.0-0.0","0","0","44506","","498","","","68","80","","","2","80","training","adjacent","DC","4","3","R.jpg","O.jpg","1","0","0","",""
"","feedback","","html-keyboard-response","528","475959","0.0-1.0-726.0-0.0","0","0","44506","","null","","","null","80","","","","","","","","","","","","","","","",""
"","time_out","","html-keyboard-response","529","477960","0.0-1.0-728.0-0.0","0","0","44506","","null","","","null","80","","","","","","","","","","","","","","","",""
"","ITI","","html-keyboard-response","530","478962","0.0-1.0-729.0","0","0","44506","","null","","","null","80","","","","","","","","","","","","","","","NaN",""
"","S1","","html-keyboard-response","531","479214","0.0-1.0-731.0","0","0","44506","","null","","","null","81","","","","","","","","","","","","","","","",""
"","ISI","","html-keyboard-response","532","480216","0.0-1.0-732.0","0","0","44506","","null","","","null","81","NaN","","","","","","","","","","","","","","",""
"","S2","","html-keyboard-response","533","480467","0.0-1.0-733.0","0","0","44506","","null","","","null","81","","NaN","","","","","","","","","","","","","",""
"","response","","html-keyboard-response","534","480822","0.0-1.0-734.0-0.0","0","0","44506","","354","","","68","81","","","2","81","training","adjacent","FG","6","7","Q.jpg","M.jpg","1","1","1","",""
"","feedback","","html-keyboard-response","535","481823","0.0-1.0-735.0-0.0","0","0","44506","","null","","","null","81","","","","","","","","","","","","","","","",""
"","ITI","","html-keyboard-response","536","482825","0.0-1.0-738.0","0","0","44506","","null","","","null","81","","","","","","","","","","","","","","","NaN",""
"","S1","","html-keyboard-response","537","483077","0.0-1.0-740.0","0","0","44506","","null","","","null","82","","","","","","","","","","","","","","","",""
"","ISI","","html-keyboard-response","538","484080","0.0-1.0-741.0","0","0","44506","","null","","","null","82","NaN","","","","","","","","","","","","","","",""
"","S2","","html-keyboard-response","539","484333","0.0-1.0-742.0","0","0","44506","","null","","","null","82","","NaN","","","","","","","","","","","","","",""
"","response","","html-keyboard-response","540","485248","0.0-1.0-743.0-0.0","0","0","44506","","914","","","68","82","","","2","82","training","adjacent","FE","6","5","Q.jpg","P.jpg","1","0","0","",""
"","feedback","","html-keyboard-response","541","486250","0.0-1.0-744.0-0.0","0","0","44506","","null","","","null","82","","","","","","","","","","","","","","","",""
"","time_out","","html-keyboard-response","542","488252","0.0-1.0-746.0-0.0","0","0","44506","","null","","","null","82","","","","","","","","","","","","","","","",""
"","ITI","","html-keyboard-response","543","489254","0.0-1.0-747.0","0","0","44506","","null","","","null","82","","","","","","","","","","","","","","","NaN",""
"","S1","","html-keyboard-response","544","489506","0.0-1.0-749.0","0","0","44506","","null","","","null","83","","","","","","","","","","","","","","","",""
"","ISI","","html-keyboard-response","545","490508","0.0-1.0-750.0","0","0","44506","","null","","","null","83","NaN","","","","","","","","","","","","","","",""
"","S2","","html-keyboard-response","546","490759","0.0-1.0-751.0","0","0","44506","","null","","","null","83","","NaN","","","","","","","","","","","","","",""
"","response","","html-keyboard-response","547","492116","0.0-1.0-752.0-0.0","0","0","44506","","1356","","","75","83","","","2","83","training","adjacent","AB","1","2","L.jpg","N.jpg","0","1","0","",""
"","feedback","","html-keyboard-response","548","493118","0.0-1.0-753.0-0.0","0","0","44506","","null","","","null","83","","","","","","","","","","","","","","","",""
"","time_out","","html-keyboard-response","549","495120","0.0-1.0-755.0-0.0","0","0","44506","","null","","","null","83","","","","","","","","","","","","","","","",""
"","ITI","","html-keyboard-response","550","496121","0.0-1.0-756.0","0","0","44506","","null","","","null","83","","","","","","","","","","","","","","","NaN",""
"","S1","","html-keyboard-response","551","496373","0.0-1.0-758.0","0","0","44506","","null","","","null","84","","","","","","","","","","","","","","","",""
"","ISI","","html-keyboard-response","552","497375","0.0-1.0-759.0","0","0","44506","","null","","","null","84","NaN","","","","","","","","","","","","","","",""
"","S2","","html-keyboard-response","553","497627","0.0-1.0-760.0","0","0","44506","","null","","","null","84","","NaN","","","","","","","","","","","","","",""
"","response","","html-keyboard-response","554","498884","0.0-1.0-761.0-0.0","0","0","44506","","1255","","","75","84","","","2","84","training","adjacent","CB","3","2","O.jpg","N.jpg","0","0","1","",""
"","feedback","","html-keyboard-response","555","499885","0.0-1.0-762.0-0.0","0","0","44506","","null","","","null","84","","","","","","","","","","","","","","","",""
"","ITI","","html-keyboard-response","556","500888","0.0-1.0-765.0","0","0","44506","","null","","","null","84","","","","","","","","","","","","","","","NaN",""
"","S1","","html-keyboard-response","557","501139","0.0-1.0-767.0","0","0","44506","","null","","","null","85","","","","","","","","","","","","","","","",""
"","ISI","","html-keyboard-response","558","502141","0.0-1.0-768.0","0","0","44506","","null","","","null","85","NaN","","","","","","","","","","","","","","",""
"","S2","","html-keyboard-response","559","502393","0.0-1.0-769.0","0","0","44506","","null","","","null","85","","NaN","","","","","","","","","","","","","",""
"","response","","html-keyboard-response","560","503392","0.0-1.0-770.0-0.0","0","0","44506","","998","","","68","85","","","2","85","training","adjacent","EF","5","6","P.jpg","Q.jpg","1","1","1","",""
"","feedback","","html-keyboard-response","561","504393","0.0-1.0-771.0-0.0","0","0","44506","","null","","","null","85","","","","","","","","","","","","","","","",""
"","ITI","","html-keyboard-response","562","505395","0.0-1.0-774.0","0","0","44506","","null","","","null","85","","","","","","","","","","","","","","","NaN",""
"","S1","","html-keyboard-response","563","505654","0.0-1.0-776.0","0","0","44506","","null","","","null","86","","","","","","","","","","","","","","","",""
"","ISI","","html-keyboard-response","564","506657","0.0-1.0-777.0","0","0","44506","","null","","","null","86","NaN","","","","","","","","","","","","","","",""
"","S2","","html-keyboard-response","565","506909","0.0-1.0-778.0","0","0","44506","","null","","","null","86","","NaN","","","","","","","","","","","","","",""
"","response","","html-keyboard-response","566","507882","0.0-1.0-779.0-0.0","0","0","44506","","972","","","68","86","","","2","86","training","adjacent","BC","2","3","N.jpg","O.jpg","1","1","1","",""
"","feedback","","html-keyboard-response","567","508884","0.0-1.0-780.0-0.0","0","0","44506","","null","","","null","86","","","","","","","","","","","","","","","",""
"","ITI","","html-keyboard-response","568","509885","0.0-1.0-783.0","0","0","44506","","null","","","null","86","","","","","","","","","","","","","","","NaN",""
"","S1","","html-keyboard-response","569","510137","0.0-1.0-785.0","0","0","44506","","null","","","null","87","","","","","","","","","","","","","","","",""
"","ISI","","html-keyboard-response","570","511139","0.0-1.0-786.0","0","0","44506","","null","","","null","87","NaN","","","","","","","","","","","","","","",""
"","S2","","html-keyboard-response","571","511391","0.0-1.0-787.0","0","0","44506","","null","","","null","87","","NaN","","","","","","","","","","","","","",""
"","response","","html-keyboard-response","572","512054","0.0-1.0-788.0-0.0","0","0","44506","","661","","","68","87","","","2","87","training","adjacent","FE","6","5","Q.jpg","P.jpg","1","0","0","",""
"","feedback","","html-keyboard-response","573","513056","0.0-1.0-789.0-0.0","0","0","44506","","null","","","null","87","","","","","","","","","","","","","","","",""
"","time_out","","html-keyboard-response","574","515058","0.0-1.0-791.0-0.0","0","0","44506","","null","","","null","87","","","","","","","","","","","","","","","",""
"","ITI","","html-keyboard-response","575","516059","0.0-1.0-792.0","0","0","44506","","null","","","null","87","","","","","","","","","","","","","","","NaN",""
"","S1","","html-keyboard-response","576","516311","0.0-1.0-794.0","0","0","44506","","null","","","null","88","","","","","","","","","","","","","","","",""
"","ISI","","html-keyboard-response","577","517313","0.0-1.0-795.0","0","0","44506","","null","","","null","88","NaN","","","","","","","","","","","","","","",""
"","S2","","html-keyboard-response","578","517566","0.0-1.0-796.0","0","0","44506","","null","","","null","88","","NaN","","","","","","","","","","","","","",""
"","response","","html-keyboard-response","579","518024","0.0-1.0-797.0-0.0","0","0","44506","","457","","","75","88","","","2","88","training","adjacent","AB","1","2","L.jpg","N.jpg","0","1","0","",""
"","feedback","","html-keyboard-response","580","519026","0.0-1.0-798.0-0.0","0","0","44506","","null","","","null","88","","","","","","","","","","","","","","","",""
"","time_out","","html-keyboard-response","581","521029","0.0-1.0-800.0-0.0","0","0","44506","","null","","","null","88","","","","","","","","","","","","","","","",""
"","ITI","","html-keyboard-response","582","522030","0.0-1.0-801.0","0","0","44506","","null","","","null","88","","","","","","","","","","","","","","","NaN",""
