"success","ttype","start_time","trial_type","trial_index","time_elapsed","internal_node_id","warning","missed_checkup","PID","view_history","rt","responses","repeat_instructions","key_press","index","keypress_isi","keypress_S2","block","trial_num","phase","group_type","pair_type","S1_stim","S2_stim","S1_img","S2_img","S1_chosen","S1_higher","accuracy","keypress_iti","total_bonus_tally"
"true","full_screen","d04142023hr2020","fullscreen","0","12300","0.0-0.0","0","0","12066","","","","","","","","","","","","","","","","","","","","","",""
"","instructions","","instructions","1","60746","0.0-1.0-0.0-0.0","0","0","12066","[{""page_index"":0,""viewing_time"":5695},{""page_index"":1,""viewing_time"":22779},{""page_index"":2,""viewing_time"":17479},{""page_index"":3,""viewing_time"":2476}]","48432","","","","","","","","","","","","","","","","","","","",""
"","comprehension_check","","survey-multi-choice","2","91417","0.0-1.0-0.0-1.0","0","0","12066","","30617","{""Q0"":""True"",""Q1"":""D"",""Q2"":""Once the second image appears and while the screen 'MAKE A CHOICE' is shown"",""Q3"":""Green mark"",""Q4"":""either D or K""}","0","","","","","","","","","","","","","","","","","",""
"","start_exp","","html-keyboard-response","3","95249","0.0-1.0-1.0","0","0","12066","","3802","","","32","","","","","","","","","","","","","","","","",""
"","S1","","html-keyboard-response","4","95516","0.0-1.0-2.0","0","0","12066","","null","","","null","0","","","","","","","","","","","","","","","",""
"","ISI","","html-keyboard-response","5","96537","0.0-1.0-3.0","0","0","12066","","null","","","null","0","NaN","","","","","","","","","","","","","","",""
"","S2","","html-keyboard-response","6","96804","0.0-1.0-4.0","0","0","12066","","null","","","null","0","","NaN","","","","","","","","","","","","","",""
"","response","","html-keyboard-response","7","97806","0.0-1.0-5.0-0.0","0","0","12066","","992","","","75","0","","","1","0","training","adjacent","BC","2","3","O.jpg","P.jpg","0","1","0","",""
"","feedback","","html-keyboard-response","8","98833","0.0-1.0-6.0-0.0","0","0","12066","","null","","","null","0","","","","","","","","","","","","","","","",""
"","time_out","","html-keyboard-response","9","100846","0.0-1.0-8.0-0.0","0","0","12066","","null","","","null","0","","","","","","","","","","","","","","","",""
"","ITI","","html-keyboard-response","10","101873","0.0-1.0-9.0","0","0","12066","","null","","","null","0","","","","","","","","","","","","","","","NaN",""
"","S1","","html-keyboard-response","11","102135","0.0-1.0-11.0","0","0","12066","","null","","","null","1","","","","","","","","","","","","","","","",""
"","ISI","","html-keyboard-response","12","103146","0.0-1.0-12.0","0","0","12066","","null","","","null","1","NaN","","","","","","","","","","","","","","",""
"","S2","","html-keyboard-response","13","103420","0.0-1.0-13.0","0","0","12066","","null","","","null","1","","NaN","","","","","","","","","","","","","",""
"","response","","html-keyboard-response","14","104534","0.0-1.0-14.0-0.0","0","0","12066","","1103","","","75","1","","","1","1","training","adjacent","DC","4","3","M.jpg","P.jpg","0","0","1","",""
"","feedback","","html-keyboard-response","15","105556","0.0-1.0-15.0-0.0","0","0","12066","","null","","","null","1","","","","","","","","","","","","","","","",""
"","ITI","","html-keyboard-response","16","106569","0.0-1.0-18.0","0","0","12066","","null","","","null","1","","","","","","","","","","","","","","","NaN",""
"","S1","","html-keyboard-response","17","106834","0.0-1.0-20.0","0","0","12066","","null","","","null","2","","","","","","","","","","","","","","","",""
"","ISI","","html-keyboard-response","18","107848","0.0-1.0-21.0","0","0","12066","","null","","","null","2","NaN","","","","","","","","","","","","","","",""
"","S2","","html-keyboard-response","19","108116","0.0-1.0-22.0","0","0","12066","","null","","","null","2","","NaN","","","","","","","","","","","","","",""
"","response","","html-keyboard-response","20","108788","0.0-1.0-23.0-0.0","0","0","12066","","661","","","75","2","","","1","2","training","adjacent","BC","2","3","O.jpg","P.jpg","0","1","0","",""
"","feedback","","html-keyboard-response","21","109812","0.0-1.0-24.0-0.0","0","0","12066","","null","","","null","2","","","","","","","","","","","","","","","",""
"","time_out","","html-keyboard-response","22","111821","0.0-1.0-26.0-0.0","0","0","12066","","null","","","null","2","","","","","","","","","","","","","","","",""
"","ITI","","html-keyboard-response","23","112831","0.0-1.0-27.0","0","0","12066","","null","","","null","2","","","","","","","","","","","","","","","NaN",""
"","S1","","html-keyboard-response","24","113091","0.0-1.0-29.0","0","0","12066","","null","","","null","3","","","","","","","","","","","","","","","",""
"","ISI","","html-keyboard-response","25","114104","0.0-1.0-30.0","0","0","12066","","null","","","null","3","NaN","","","","","","","","","","","","","","",""
"","S2","","html-keyboard-response","26","114367","0.0-1.0-31.0","0","0","12066","","null","","","null","3","","NaN","","","","","","","","","","","","","",""
"","response","","html-keyboard-response","27","114972","0.0-1.0-32.0-0.0","0","0","12066","","592","","","75","3","","","1","3","training","adjacent","FG","6","7","Q.jpg","L.jpg","0","1","0","",""
"","feedback","","html-keyboard-response","28","115986","0.0-1.0-33.0-0.0","0","0","12066","","null","","","null","3","","","","","","","","","","","","","","","",""
"","time_out","","html-keyboard-response","29","118001","0.0-1.0-35.0-0.0","0","0","12066","","null","","","null","3","","","","","","","","","","","","","","","",""
"","ITI","","html-keyboard-response","30","119016","0.0-1.0-36.0","0","0","12066","","null","","","null","3","","","","","","","","","","","","","","","NaN",""
"","S1","","html-keyboard-response","31","119281","0.0-1.0-38.0","0","0","12066","","null","","","null","4","","","","","","","","","","","","","","","",""
"","ISI","","html-keyboard-response","32","120298","0.0-1.0-39.0","0","0","12066","","null","","","null","4","NaN","","","","","","","","","","","","","","",""
"","S2","","html-keyboard-response","33","120562","0.0-1.0-40.0","0","0","12066","","null","","","null","4","","NaN","","","","","","","","","","","","","",""
"","response","","html-keyboard-response","34","121064","0.0-1.0-41.0-0.0","0","0","12066","","492","","","75","4","","","1","4","training","adjacent","CD","3","4","P.jpg","M.jpg","0","1","0","",""
"","feedback","","html-keyboard-response","35","122077","0.0-1.0-42.0-0.0","0","0","12066","","null","","","null","4","","","","","","","","","","","","","","","",""
"","time_out","","html-keyboard-response","36","124099","0.0-1.0-44.0-0.0","0","0","12066","","null","","","null","4","","","","","","","","","","","","","","","",""
"","ITI","","html-keyboard-response","37","125114","0.0-1.0-45.0","0","0","12066","","null","","","null","4","","","","","","","","","","","","","","","NaN",""
"","S1","","html-keyboard-response","38","125386","0.0-1.0-47.0","0","0","12066","","null","","","null","5","","","","","","","","","","","","","","","",""
"","ISI","","html-keyboard-response","39","126398","0.0-1.0-48.0","0","0","12066","","null","","","null","5","NaN","","","","","","","","","","","","","","",""
"","S2","","html-keyboard-response","40","126664","0.0-1.0-49.0","0","0","12066","","null","","","null","5","","NaN","","","","","","","","","","","","","",""
"","response","","html-keyboard-response","41","127039","0.0-1.0-50.0-0.0","0","0","12066","","363","","","68","5","","","1","5","training","adjacent","BC","2","3","O.jpg","P.jpg","1","1","1","",""
"","feedback","","html-keyboard-response","42","128060","0.0-1.0-51.0-0.0","0","0","12066","","null","","","null","5","","","","","","","","","","","","","","","",""
"","ITI","","html-keyboard-response","43","129076","0.0-1.0-54.0","0","0","12066","","null","","","null","5","","","","","","","","","","","","","","","NaN",""
"","S1","","html-keyboard-response","44","129347","0.0-1.0-56.0","0","0","12066","","null","","","null","6","","","","","","","","","","","","","","","",""
"","ISI","","html-keyboard-response","45","130364","0.0-1.0-57.0","0","0","12066","","null","","","null","6","NaN","","","","","","","","","","","","","","",""
"","S2","","html-keyboard-response","46","130623","0.0-1.0-58.0","0","0","12066","","null","","","null","6","","NaN","","","","","","","","","","","","","",""
"","response","","html-keyboard-response","47","131245","0.0-1.0-59.0-0.0","0","0","12066","","612","","","68","6","","","1","6","training","adjacent","DE","4","5","M.jpg","N.jpg","1","1","1","",""
"","feedback","","html-keyboard-response","48","132266","0.0-1.0-60.0-0.0","0","0","12066","","null","","","null","6","","","","","","","","","","","","","","","",""
"","ITI","","html-keyboard-response","49","133290","0.0-1.0-63.0","0","0","12066","","null","","","null","6","","","","","","","","","","","","","","","NaN",""
"","S1","","html-keyboard-response","50","133551","0.0-1.0-65.0","0","0","12066","","null","","","null","7","","","","","","","","","","","","","","","",""
"","ISI","","html-keyboard-response","51","134565","0.0-1.0-66.0","0","0","12066","","null","","","null","7","NaN","","","","","","","","","","","","","","",""
"","S2","","html-keyboard-response","52","134832","0.0-1.0-67.0","0","0","12066","","null","","","null","7","","NaN","","","","","","","","","","","","","",""
"","response","","html-keyboard-response","53","135402","0.0-1.0-68.0-0.0","0","0","12066","","559","","","68","7","","","1","7","training","adjacent","AB","1","2","R.jpg","O.jpg","1","1","1","",""
"","feedback","","html-keyboard-response","54","136416","0.0-1.0-69.0-0.0","0","0","12066","","null","","","null","7","","","","","","","","","","","","","","","",""
"","ITI","","html-keyboard-response","55","137427","0.0-1.0-72.0","0","0","12066","","null","","","null","7","","","","","","","","","","","","","","","NaN",""
"","S1","","html-keyboard-response","56","137687","0.0-1.0-74.0","0","0","12066","","null","","","null","8","","","","","","","","","","","","","","","",""
"","ISI","","html-keyboard-response","57","138707","0.0-1.0-75.0","0","0","12066","","null","","","null","8","NaN","","","","","","","","","","","","","","",""
"","S2","","html-keyboard-response","58","138978","0.0-1.0-76.0","0","0","12066","","null","","","null","8","","NaN","","","","","","","","","","","","","",""
"","response","","html-keyboard-response","59","139517","0.0-1.0-77.0-0.0","0","0","12066","","527","","","68","8","","","1","8","training","adjacent","DC","4","3","M.jpg","P.jpg","1","0","0","",""
"","feedback","","html-keyboard-response","60","140546","0.0-1.0-78.0-0.0","0","0","12066","","null","","","null","8","","","","","","","","","","","","","","","",""
"","time_out","","html-keyboard-response","61","142562","0.0-1.0-80.0-0.0","0","0","12066","","null","","","null","8","","","","","","","","","","","","","","","",""
"","ITI","","html-keyboard-response","62","143578","0.0-1.0-81.0","0","0","12066","","null","","","null","8","","","","","","","","","","","","","","","NaN",""
"","S1","","html-keyboard-response","63","143853","0.0-1.0-83.0","0","0","12066","","null","","","null","9","","","","","","","","","","","","","","","",""
"","ISI","","html-keyboard-response","64","144867","0.0-1.0-84.0","0","0","12066","","null","","","null","9","NaN","","","","","","","","","","","","","","",""
"","S2","","html-keyboard-response","65","145135","0.0-1.0-85.0","0","0","12066","","null","","","null","9","","NaN","","","","","","","","","","","","","",""
"","response","","html-keyboard-response","66","145441","0.0-1.0-86.0-0.0","0","0","12066","","294","","","75","9","","","1","9","training","adjacent","EF","5","6","N.jpg","Q.jpg","0","1","0","",""
"","feedback","","html-keyboard-response","67","146469","0.0-1.0-87.0-0.0","0","0","12066","","null","","","null","9","","","","","","","","","","","","","","","",""
"","time_out","","html-keyboard-response","68","148490","0.0-1.0-89.0-0.0","0","0","12066","","null","","","null","9","","","","","","","","","","","","","","","",""
"","ITI","","html-keyboard-response","69","149510","0.0-1.0-90.0","0","0","12066","","null","","","null","9","","","","","","","","","","","","","","","NaN",""
"","S1","","html-keyboard-response","70","149773","0.0-1.0-92.0","0","0","12066","","null","","","null","10","","","","","","","","","","","","","","","",""
"","ISI","","html-keyboard-response","71","150785","0.0-1.0-93.0","0","0","12066","","null","","","null","10","NaN","","","","","","","","","","","","","","",""
"","S2","","html-keyboard-response","72","151057","0.0-1.0-94.0","0","0","12066","","null","","","null","10","","NaN","","","","","","","","","","","","","",""
"","response","","html-keyboard-response","73","151311","0.0-1.0-95.0-0.0","0","0","12066","","243","","","68","10","","","1","10","training","adjacent","GF","7","6","L.jpg","Q.jpg","1","0","0","",""
"","feedback","","html-keyboard-response","74","152337","0.0-1.0-96.0-0.0","0","0","12066","","null","","","null","10","","","","","","","","","","","","","","","",""
"","time_out","","html-keyboard-response","75","154359","0.0-1.0-98.0-0.0","0","0","12066","","null","","","null","10","","","","","","","","","","","","","","","",""
"","ITI","","html-keyboard-response","76","155378","0.0-1.0-99.0","0","0","12066","","null","","","null","10","","","","","","","","","","","","","","","NaN",""
"","S1","","html-keyboard-response","77","155652","0.0-1.0-101.0","0","0","12066","","null","","","null","11","","","","","","","","","","","","","","","",""
"","ISI","","html-keyboard-response","78","156664","0.0-1.0-102.0","0","0","12066","","null","","","null","11","NaN","","","","","","","","","","","","","","",""
"","S2","","html-keyboard-response","79","156930","0.0-1.0-103.0","0","0","12066","","null","","","null","11","","NaN","","","","","","","","","","","","","",""
"","response","","html-keyboard-response","80","157353","0.0-1.0-104.0-0.0","0","0","12066","","411","","","75","11","","","1","11","training","adjacent","ED","5","4","N.jpg","M.jpg","0","0","1","",""
"","feedback","","html-keyboard-response","81","158381","0.0-1.0-105.0-0.0","0","0","12066","","null","","","null","11","","","","","","","","","","","","","","","",""
"","ITI","","html-keyboard-response","82","159407","0.0-1.0-108.0","0","0","12066","","null","","","null","11","","","","","","","","","","","","","","","NaN",""
"","S1","","html-keyboard-response","83","159676","0.0-1.0-110.0","0","0","12066","","null","","","null","12","","","","","","","","","","","","","","","",""
"","ISI","","html-keyboard-response","84","160687","0.0-1.0-111.0","0","0","12066","","null","","","null","12","NaN","","","","","","","","","","","","","","",""
"","S2","","html-keyboard-response","85","160967","0.0-1.0-112.0","0","0","12066","","null","","","null","12","","NaN","","","","","","","","","","","","","",""
"","response","","html-keyboard-response","86","161492","0.0-1.0-113.0-0.0","0","0","12066","","513","","","75","12","","","1","12","training","adjacent","BA","2","1","O.jpg","R.jpg","0","0","1","",""
"","feedback","","html-keyboard-response","87","162503","0.0-1.0-114.0-0.0","0","0","12066","","null","","","null","12","","","","","","","","","","","","","","","",""
"","ITI","","html-keyboard-response","88","163520","0.0-1.0-117.0","0","0","12066","","null","","","null","12","","","","","","","","","","","","","","","NaN",""
"","S1","","html-keyboard-response","89","163786","0.0-1.0-119.0","0","0","12066","","null","","","null","13","","","","","","","","","","","","","","","",""
"","ISI","","html-keyboard-response","90","164801","0.0-1.0-120.0","0","0","12066","","null","","","null","13","NaN","","","","","","","","","","","","","","",""
"","S2","","html-keyboard-response","91","165065","0.0-1.0-121.0","0","0","12066","","null","","","null","13","","NaN","","","","","","","","","","","","","",""
"","response","","html-keyboard-response","92","165623","0.0-1.0-122.0-0.0","0","0","12066","","547","","","75","13","","","1","13","training","adjacent","CB","3","2","P.jpg","O.jpg","0","0","1","",""
"","feedback","","html-keyboard-response","93","166636","0.0-1.0-123.0-0.0","0","0","12066","","null","","","null","13","","","","","","","","","","","","","","","",""
"","ITI","","html-keyboard-response","94","167656","0.0-1.0-126.0","0","0","12066","","null","","","null","13","","","","","","","","","","","","","","","NaN",""
"","S1","","html-keyboard-response","95","167930","0.0-1.0-128.0","0","0","12066","","null","","","null","14","","","","","","","","","","","","","","","",""
"","ISI","","html-keyboard-response","96","168948","0.0-1.0-129.0","0","0","12066","","null","","","null","14","NaN","","","","","","","","","","","","","","",""
"","S2","","html-keyboard-response","97","169213","0.0-1.0-130.0","0","0","12066","","null","","","null","14","","NaN","","","","","","","","","","","","","",""
"","response","","html-keyboard-response","98","169919","0.0-1.0-131.0-0.0","0","0","12066","","695","","","68","14","","","1","14","training","adjacent","GF","7","6","L.jpg","Q.jpg","1","0","0","",""
"","feedback","","html-keyboard-response","99","170948","0.0-1.0-132.0-0.0","0","0","12066","","null","","","null","14","","","","","","","","","","","","","","","",""
"","time_out","","html-keyboard-response","100","172960","0.0-1.0-134.0-0.0","0","0","12066","","null","","","null","14","","","","","","","","","","","","","","","",""
"","ITI","","html-keyboard-response","101","173987","0.0-1.0-135.0","0","0","12066","","null","","","null","14","","","","","","","","","","","","","","","NaN",""
"","S1","","html-keyboard-response","102","174250","0.0-1.0-137.0","0","0","12066","","null","","","null","15","","","","","","","","","","","","","","","",""
"","ISI","","html-keyboard-response","103","175264","0.0-1.0-138.0","0","0","12066","","null","","","null","15","NaN","","","","","","","","","","","","","","",""
"","S2","","html-keyboard-response","104","175529","0.0-1.0-139.0","0","0","12066","","null","","","null","15","","NaN","","","","","","","","","","","","","",""
"","response","","html-keyboard-response","105","175971","0.0-1.0-140.0-0.0","0","0","12066","","429","","","75","15","","","1","15","training","adjacent","FG","6","7","Q.jpg","L.jpg","0","1","0","",""
"","feedback","","html-keyboard-response","106","176996","0.0-1.0-141.0-0.0","0","0","12066","","null","","","null","15","","","","","","","","","","","","","","","",""
"","time_out","","html-keyboard-response","107","179009","0.0-1.0-143.0-0.0","0","0","12066","","null","","","null","15","","","","","","","","","","","","","","","",""
"","ITI","","html-keyboard-response","108","180021","0.0-1.0-144.0","0","0","12066","","null","","","null","15","","","","","","","","","","","","","","","NaN",""
"","S1","","html-keyboard-response","109","180290","0.0-1.0-146.0","0","0","12066","","null","","","null","16","","","","","","","","","","","","","","","",""
"","ISI","","html-keyboard-response","110","181306","0.0-1.0-147.0","0","0","12066","","null","","","null","16","NaN","","","","","","","","","","","","","","",""
"","S2","","html-keyboard-response","111","181573","0.0-1.0-148.0","0","0","12066","","null","","","null","16","","NaN","","","","","","","","","","","","","",""
"","response","","html-keyboard-response","112","181862","0.0-1.0-149.0-0.0","0","0","12066","","277","","","75","16","","","1","16","training","adjacent","FE","6","5","Q.jpg","N.jpg","0","0","1","",""
"","feedback","","html-keyboard-response","113","182889","0.0-1.0-150.0-0.0","0","0","12066","","null","","","null","16","","","","","","","","","","","","","","","",""
"","ITI","","html-keyboard-response","114","183911","0.0-1.0-153.0","0","0","12066","","null","","","null","16","","","","","","","","","","","","","","","NaN",""
"","S1","","html-keyboard-response","115","184188","0.0-1.0-155.0","0","0","12066","","null","","","null","17","","","","","","","","","","","","","","","",""
"","ISI","","html-keyboard-response","116","185204","0.0-1.0-156.0","0","0","12066","","null","","","null","17","NaN","","","","","","","","","","","","","","",""
"","S2","","html-keyboard-response","117","185477","0.0-1.0-157.0","0","0","12066","","null","","","null","17","","NaN","","","","","","","","","","","","","",""
"","response","","html-keyboard-response","118","186017","0.0-1.0-158.0-0.0","0","0","12066","","529","","","75","17","","","1","17","training","adjacent","BA","2","1","O.jpg","R.jpg","0","0","1","",""
"","feedback","","html-keyboard-response","119","187034","0.0-1.0-159.0-0.0","0","0","12066","","null","","","null","17","","","","","","","","","","","","","","","",""
"","ITI","","html-keyboard-response","120","188047","0.0-1.0-162.0","0","0","12066","","null","","","null","17","","","","","","","","","","","","","","","NaN",""
"","S1","","html-keyboard-response","121","188317","0.0-1.0-164.0","0","0","12066","","null","","","null","18","","","","","","","","","","","","","","","",""
"","ISI","","html-keyboard-response","122","189333","0.0-1.0-165.0","0","0","12066","","null","","","null","18","NaN","","","","","","","","","","","","","","",""
"","S2","","html-keyboard-response","123","189598","0.0-1.0-166.0","0","0","12066","","null","","","null","18","","NaN","","","","","","","","","","","","","",""
"","response","","html-keyboard-response","124","189945","0.0-1.0-167.0-0.0","0","0","12066","","334","","","68","18","","","1","18","training","adjacent","FG","6","7","Q.jpg","L.jpg","1","1","1","",""
"","feedback","","html-keyboard-response","125","190968","0.0-1.0-168.0-0.0","0","0","12066","","null","","","null","18","","","","","","","","","","","","","","","",""
"","ITI","","html-keyboard-response","126","191980","0.0-1.0-171.0","0","0","12066","","null","","","null","18","","","","","","","","","","","","","","","NaN",""
"","S1","","html-keyboard-response","127","192249","0.0-1.0-173.0","0","0","12066","","null","","","null","19","","","","","","","","","","","","","","","",""
"","ISI","","html-keyboard-response","128","193274","0.0-1.0-174.0","0","0","12066","","null","","","null","19","NaN","","","","","","","","","","","","","","",""
"","S2","","html-keyboard-response","129","193547","0.0-1.0-175.0","0","0","12066","","null","","","null","19","","NaN","","","","","","","","","","","","","",""
"","response","","html-keyboard-response","130","194270","0.0-1.0-176.0-0.0","0","0","12066","","710","","","75","19","","","1","19","training","adjacent","BC","2","3","O.jpg","P.jpg","0","1","0","",""
"","feedback","","html-keyboard-response","131","195286","0.0-1.0-177.0-0.0","0","0","12066","","null","","","null","19","","","","","","","","","","","","","","","",""
"","time_out","","html-keyboard-response","132","197302","0.0-1.0-179.0-0.0","0","0","12066","","null","","","null","19","","","","","","","","","","","","","","","",""
"","ITI","","html-keyboard-response","133","198316","0.0-1.0-180.0","0","0","12066","","null","","","null","19","","","","","","","","","","","","","","","NaN",""
"","S1","","html-keyboard-response","134","198587","0.0-1.0-182.0","0","0","12066","","null","","","null","20","","","","","","","","","","","","","","","",""
"","ISI","","html-keyboard-response","135","199612","0.0-1.0-183.0","0","0","12066","","null","","","null","20","NaN","","","","","","","","","","","","","","",""
"","S2","","html-keyboard-response","136","199887","0.0-1.0-184.0","0","0","12066","","null","","","null","20","","NaN","","","","","","","","","","","","","",""
"","response","","html-keyboard-response","137","201214","0.0-1.0-185.0-0.0","0","0","12066","","1315","","","68","20","","","1","20","training","adjacent","ED","5","4","N.jpg","M.jpg","1","0","0","",""
"","feedback","","html-keyboard-response","138","202233","0.0-1.0-186.0-0.0","0","0","12066","","null","","","null","20","","","","","","","","","","","","","","","",""
"","time_out","","html-keyboard-response","139","204245","0.0-1.0-188.0-0.0","0","0","12066","","null","","","null","20","","","","","","","","","","","","","","","",""
"","ITI","","html-keyboard-response","140","205265","0.0-1.0-189.0","0","0","12066","","null","","","null","20","","","","","","","","","","","","","","","NaN",""
"","S1","","html-keyboard-response","141","205539","0.0-1.0-191.0","0","0","12066","","null","","","null","21","","","","","","","","","","","","","","","",""
"","ISI","","html-keyboard-response","142","206565","0.0-1.0-192.0","0","0","12066","","null","","","null","21","NaN","","","","","","","","","","","","","","",""
"","S2","","html-keyboard-response","143","206840","0.0-1.0-193.0","0","0","12066","","null","","","null","21","","NaN","","","","","","","","","","","","","",""
"","response","","html-keyboard-response","144","207455","0.0-1.0-194.0-0.0","0","0","12066","","603","","","68","21","","","1","21","training","adjacent","DC","4","3","M.jpg","P.jpg","1","0","0","",""
"","feedback","","html-keyboard-response","145","208476","0.0-1.0-195.0-0.0","0","0","12066","","null","","","null","21","","","","","","","","","","","","","","","",""
"","time_out","","html-keyboard-response","146","210491","0.0-1.0-197.0-0.0","0","0","12066","","null","","","null","21","","","","","","","","","","","","","","","",""
"","ITI","","html-keyboard-response","147","211504","0.0-1.0-198.0","0","0","12066","","null","","","null","21","","","","","","","","","","","","","","","NaN",""
"","S1","","html-keyboard-response","148","211775","0.0-1.0-200.0","0","0","12066","","null","","","null","22","","","","","","","","","","","","","","","",""
"","ISI","","html-keyboard-response","149","212789","0.0-1.0-201.0","0","0","12066","","null","","","null","22","NaN","","","","","","","","","","","","","","",""
"","S2","","html-keyboard-response","150","213056","0.0-1.0-202.0","0","0","12066","","null","","","null","22","","NaN","","","","","","","","","","","","","",""
"","response","","html-keyboard-response","151","214087","0.0-1.0-203.0-0.0","0","0","12066","","1020","","","68","22","","","1","22","training","adjacent","BA","2","1","O.jpg","R.jpg","1","0","0","",""
"","feedback","","html-keyboard-response","152","215111","0.0-1.0-204.0-0.0","0","0","12066","","null","","","null","22","","","","","","","","","","","","","","","",""
"","time_out","","html-keyboard-response","153","217126","0.0-1.0-206.0-0.0","0","0","12066","","null","","","null","22","","","","","","","","","","","","","","","",""
"","ITI","","html-keyboard-response","154","218145","0.0-1.0-207.0","0","0","12066","","null","","","null","22","","","","","","","","","","","","","","","NaN",""
"","S1","","html-keyboard-response","155","218420","0.0-1.0-209.0","0","0","12066","","null","","","null","23","","","","","","","","","","","","","","","",""
"","ISI","","html-keyboard-response","156","219439","0.0-1.0-210.0","0","0","12066","","null","","","null","23","NaN","","","","","","","","","","","","","","",""
"","S2","","html-keyboard-response","157","219716","0.0-1.0-211.0","0","0","12066","","null","","","null","23","","NaN","","","","","","","","","","","","","",""
"","response","","html-keyboard-response","158","220843","0.0-1.0-212.0-0.0","0","0","12066","","1119","","","68","23","","","1","23","training","adjacent","FG","6","7","Q.jpg","L.jpg","1","1","1","",""
"","feedback","","html-keyboard-response","159","221859","0.0-1.0-213.0-0.0","0","0","12066","","null","","","null","23","","","","","","","","","","","","","","","",""
"","ITI","","html-keyboard-response","160","222875","0.0-1.0-216.0","0","0","12066","","null","","","null","23","","","","","","","","","","","","","","","NaN",""
"","S1","","html-keyboard-response","161","223143","0.0-1.0-218.0","0","0","12066","","null","","","null","24","","","","","","","","","","","","","","","",""
"","ISI","","html-keyboard-response","162","224156","0.0-1.0-219.0","0","0","12066","","null","","","null","24","NaN","","","","","","","","","","","","","","",""
"","S2","","html-keyboard-response","163","224422","0.0-1.0-220.0","0","0","12066","","null","","","null","24","","NaN","","","","","","","","","","","","","",""
"","response","","html-keyboard-response","164","225515","0.0-1.0-221.0-0.0","0","0","12066","","1084","","","68","24","","","1","24","training","adjacent","FE","6","5","Q.jpg","N.jpg","1","0","0","",""
"","feedback","","html-keyboard-response","165","226525","0.0-1.0-222.0-0.0","0","0","12066","","null","","","null","24","","","","","","","","","","","","","","","",""
"","time_out","","html-keyboard-response","166","228538","0.0-1.0-224.0-0.0","0","0","12066","","null","","","null","24","","","","","","","","","","","","","","","",""
"","ITI","","html-keyboard-response","167","229557","0.0-1.0-225.0","0","0","12066","","null","","","null","24","","","","","","","","","","","","","","","NaN",""
"","S1","","html-keyboard-response","168","229824","0.0-1.0-227.0","0","0","12066","","null","","","null","25","","","","","","","","","","","","","","","",""
"","ISI","","html-keyboard-response","169","230848","0.0-1.0-228.0","0","0","12066","","null","","","null","25","NaN","","","","","","","","","","","","","","",""
"","S2","","html-keyboard-response","170","231118","0.0-1.0-229.0","0","0","12066","","null","","","null","25","","NaN","","","","","","","","","","","","","",""
"","response","","html-keyboard-response","171","231407","0.0-1.0-230.0-0.0","0","0","12066","","278","","","75","25","","","1","25","training","adjacent","ED","5","4","N.jpg","M.jpg","0","0","1","",""
"","feedback","","html-keyboard-response","172","232426","0.0-1.0-231.0-0.0","0","0","12066","","null","","","null","25","","","","","","","","","","","","","","","",""
"","ITI","","html-keyboard-response","173","233450","0.0-1.0-234.0","0","0","12066","","null","","","null","25","","","","","","","","","","","","","","","NaN",""
"","S1","","html-keyboard-response","174","233721","0.0-1.0-236.0","0","0","12066","","null","","","null","26","","","","","","","","","","","","","","","",""
"","ISI","","html-keyboard-response","175","234740","0.0-1.0-237.0","0","0","12066","","null","","","null","26","NaN","","","","","","","","","","","","","","",""
"","S2","","html-keyboard-response","176","235009","0.0-1.0-238.0","0","0","12066","","null","","","null","26","","NaN","","","","","","","","","","","","","",""
"","response","","html-keyboard-response","177","236420","0.0-1.0-239.0-0.0","0","0","12066","","1399","","","75","26","","","1","26","training","adjacent","GF","7","6","L.jpg","Q.jpg","0","0","1","",""
"","feedback","","html-keyboard-response","178","237441","0.0-1.0-240.0-0.0","0","0","12066","","null","","","null","26","","","","","","","","","","","","","","","",""
"","ITI","","html-keyboard-response","179","238465","0.0-1.0-243.0","0","0","12066","","null","","","null","26","","","","","","","","","","","","","","","NaN",""
"","S1","","html-keyboard-response","180","238735","0.0-1.0-245.0","0","0","12066","","null","","","null","27","","","","","","","","","","","","","","","",""
"","ISI","","html-keyboard-response","181","239758","0.0-1.0-246.0","0","0","12066","","null","","","null","27","NaN","","","","","","","","","","","","","","",""
"","S2","","html-keyboard-response","182","240032","0.0-1.0-247.0","0","0","12066","","null","","","null","27","","NaN","","","","","","","","","","","","","",""
"","response","","html-keyboard-response","183","241242","0.0-1.0-248.0-0.0","0","0","12066","","1199","","","68","27","","","1","27","training","adjacent","CD","3","4","P.jpg","M.jpg","1","1","1","",""
"","feedback","","html-keyboard-response","184","242264","0.0-1.0-249.0-0.0","0","0","12066","","null","","","null","27","","","","","","","","","","","","","","","",""
"","ITI","","html-keyboard-response","185","243287","0.0-1.0-252.0","0","0","12066","","null","","","null","27","","","","","","","","","","","","","","","NaN",""
"","S1","","html-keyboard-response","186","243558","0.0-1.0-254.0","0","0","12066","","null","","","null","28","","","","","","","","","","","","","","","",""
"","ISI","","html-keyboard-response","187","244569","0.0-1.0-255.0","0","0","12066","","null","","","null","28","NaN","","","","","","","","","","","","","","",""
"","S2","","html-keyboard-response","188","244834","0.0-1.0-256.0","0","0","12066","","null","","","null","28","","NaN","","","","","","","","","","","","","",""
"","response","","html-keyboard-response","189","245882","0.0-1.0-257.0-0.0","0","0","12066","","1041","","","75","28","","","1","28","training","adjacent","AB","1","2","R.jpg","O.jpg","0","1","0","",""
"","feedback","","html-keyboard-response","190","246894","0.0-1.0-258.0-0.0","0","0","12066","","null","","","null","28","","","","","","","","","","","","","","","",""
"","time_out","","html-keyboard-response","191","248911","0.0-1.0-260.0-0.0","0","0","12066","","null","","","null","28","","","","","","","","","","","","","","","",""
"","ITI","","html-keyboard-response","192","249929","0.0-1.0-261.0","0","0","12066","","null","","","null","28","","","","","","","","","","","","","","","NaN",""
"","S1","","html-keyboard-response","193","250204","0.0-1.0-263.0","0","0","12066","","null","","","null","29","","","","","","","","","","","","","","","",""
"","ISI","","html-keyboard-response","194","251217","0.0-1.0-264.0","0","0","12066","","null","","","null","29","NaN","","","","","","","","","","","","","","",""
"","S2","","html-keyboard-response","195","251490","0.0-1.0-265.0","0","0","12066","","null","","","null","29","","NaN","","","","","","","","","","","","","",""
"","response","","html-keyboard-response","196","251801","0.0-1.0-266.0-0.0","0","0","12066","","298","","","68","29","","","1","29","training","adjacent","CB","3","2","P.jpg","O.jpg","1","0","0","",""
"","feedback","","html-keyboard-response","197","252815","0.0-1.0-267.0-0.0","0","0","12066","","null","","","null","29","","","","","","","","","","","","","","","",""
"","time_out","","html-keyboard-response","198","254836","0.0-1.0-269.0-0.0","0","0","12066","","null","","","null","29","","","","","","","","","","","","","","","",""
"","ITI","","html-keyboard-response","199","255848","0.0-1.0-270.0","0","0","12066","","null","","","null","29","","","","","","","","","","","","","","","NaN",""
"","S1","","html-keyboard-response","200","256118","0.0-1.0-272.0","0","0","12066","","null","","","null","30","","","","","","","","","","","","","","","",""
"","ISI","","html-keyboard-response","201","257140","0.0-1.0-273.0","0","0","12066","","null","","","null","30","NaN","","","","","","","","","","","","","","",""
"","S2","","html-keyboard-response","202","257406","0.0-1.0-274.0","0","0","12066","","null","","","null","30","","NaN","","","","","","","","","","","","","",""
"","response","","html-keyboard-response","203","258154","0.0-1.0-275.0-0.0","0","0","12066","","735","","","68","30","","","1","30","training","adjacent","BA","2","1","O.jpg","R.jpg","1","0","0","",""
"","feedback","","html-keyboard-response","204","259170","0.0-1.0-276.0-0.0","0","0","12066","","null","","","null","30","","","","","","","","","","","","","","","",""
"","time_out","","html-keyboard-response","205","261189","0.0-1.0-278.0-0.0","0","0","12066","","null","","","null","30","","","","","","","","","","","","","","","",""
"","ITI","","html-keyboard-response","206","262210","0.0-1.0-279.0","0","0","12066","","null","","","null","30","","","","","","","","","","","","","","","NaN",""
"","S1","","html-keyboard-response","207","262476","0.0-1.0-281.0","0","0","12066","","null","","","null","31","","","","","","","","","","","","","","","",""
"","ISI","","html-keyboard-response","208","263495","0.0-1.0-282.0","0","0","12066","","null","","","null","31","NaN","","","","","","","","","","","","","","",""
"","S2","","html-keyboard-response","209","263766","0.0-1.0-283.0","0","0","12066","","null","","","null","31","","NaN","","","","","","","","","","","","","",""
"","response","","html-keyboard-response","210","264046","0.0-1.0-284.0-0.0","0","0","12066","","268","","","75","31","","","1","31","training","adjacent","DE","4","5","M.jpg","N.jpg","0","1","0","",""
"","feedback","","html-keyboard-response","211","265066","0.0-1.0-285.0-0.0","0","0","12066","","null","","","null","31","","","","","","","","","","","","","","","",""
"","time_out","","html-keyboard-response","212","267085","0.0-1.0-287.0-0.0","0","0","12066","","null","","","null","31","","","","","","","","","","","","","","","",""
"","ITI","","html-keyboard-response","213","268104","0.0-1.0-288.0","0","0","12066","","null","","","null","31","","","","","","","","","","","","","","","NaN",""
"","S1","","html-keyboard-response","214","268368","0.0-1.0-290.0","0","0","12066","","null","","","null","32","","","","","","","","","","","","","","","",""
"","ISI","","html-keyboard-response","215","269387","0.0-1.0-291.0","0","0","12066","","null","","","null","32","NaN","","","","","","","","","","","","","","",""
"","S2","","html-keyboard-response","216","269661","0.0-1.0-292.0","0","0","12066","","null","","","null","32","","NaN","","","","","","","","","","","","","",""
"","response","","html-keyboard-response","217","270072","0.0-1.0-293.0-0.0","0","0","12066","","400","","","75","32","","","1","32","training","adjacent","GF","7","6","L.jpg","Q.jpg","0","0","1","",""
"","feedback","","html-keyboard-response","218","271089","0.0-1.0-294.0-0.0","0","0","12066","","null","","","null","32","","","","","","","","","","","","","","","",""
"","ITI","","html-keyboard-response","219","272101","0.0-1.0-297.0","0","0","12066","","null","","","null","32","","","","","","","","","","","","","","","NaN",""
"","S1","","html-keyboard-response","220","272379","0.0-1.0-299.0","0","0","12066","","null","","","null","33","","","","","","","","","","","","","","","",""
"","ISI","","html-keyboard-response","221","273396","0.0-1.0-300.0","0","0","12066","","null","","","null","33","NaN","","","","","","","","","","","","","","",""
"","S2","","html-keyboard-response","222","273656","0.0-1.0-301.0","0","0","12066","","null","","","null","33","","NaN","","","","","","","","","","","","","",""
"","response","","html-keyboard-response","223","274263","0.0-1.0-302.0-0.0","0","0","12066","","594","","","75","33","","","1","33","training","adjacent","CD","3","4","P.jpg","M.jpg","0","1","0","",""
"","feedback","","html-keyboard-response","224","275280","0.0-1.0-303.0-0.0","0","0","12066","","null","","","null","33","","","","","","","","","","","","","","","",""
"","time_out","","html-keyboard-response","225","277292","0.0-1.0-305.0-0.0","0","0","12066","","null","","","null","33","","","","","","","","","","","","","","","",""
"","ITI","","html-keyboard-response","226","278315","0.0-1.0-306.0","0","0","12066","","null","","","null","33","","","","","","","","","","","","","","","NaN",""
"","S1","","html-keyboard-response","227","278578","0.0-1.0-308.0","0","0","12066","","null","","","null","34","","","","","","","","","","","","","","","",""
"","ISI","","html-keyboard-response","228","279597","0.0-1.0-309.0","0","0","12066","","null","","","null","34","NaN","","","","","","","","","","","","","","",""
"","S2","","html-keyboard-response","229","279872","0.0-1.0-310.0","0","0","12066","","null","","","null","34","","NaN","","","","","","","","","","","","","",""
"","response","","html-keyboard-response","230","280177","0.0-1.0-311.0-0.0","0","0","12066","","293","","","68","34","","","1","34","training","adjacent","AB","1","2","R.jpg","O.jpg","1","1","1","",""
"","feedback","","html-keyboard-response","231","281206","0.0-1.0-312.0-0.0","0","0","12066","","null","","","null","34","","","","","","","","","","","","","","","",""
"","ITI","","html-keyboard-response","232","282228","0.0-1.0-315.0","0","0","12066","","null","","","null","34","","","","","","","","","","","","","","","NaN",""
"","S1","","html-keyboard-response","233","282490","0.0-1.0-317.0","0","0","12066","","null","","","null","35","","","","","","","","","","","","","","","",""
"","ISI","","html-keyboard-response","234","283506","0.0-1.0-318.0","0","0","12066","","null","","","null","35","NaN","","","","","","","","","","","","","","",""
"","S2","","html-keyboard-response","235","283772","0.0-1.0-319.0","0","0","12066","","null","","","null","35","","NaN","","","","","","","","","","","","","",""
"","response","","html-keyboard-response","236","284214","0.0-1.0-320.0-0.0","0","0","12066","","429","","","68","35","","","1","35","training","adjacent","DE","4","5","M.jpg","N.jpg","1","1","1","",""
"","feedback","","html-keyboard-response","237","285231","0.0-1.0-321.0-0.0","0","0","12066","","null","","","null","35","","","","","","","","","","","","","","","",""
"","ITI","","html-keyboard-response","238","286250","0.0-1.0-324.0","0","0","12066","","null","","","null","35","","","","","","","","","","","","","","","NaN",""
"","S1","","html-keyboard-response","239","286522","0.0-1.0-326.0","0","0","12066","","null","","","null","36","","","","","","","","","","","","","","","",""
"","ISI","","html-keyboard-response","240","287532","0.0-1.0-327.0","0","0","12066","","null","","","null","36","NaN","","","","","","","","","","","","","","",""
"","S2","","html-keyboard-response","241","287793","0.0-1.0-328.0","0","0","12066","","null","","","null","36","","NaN","","","","","","","","","","","","","",""
"","response","","html-keyboard-response","242","288244","0.0-1.0-329.0-0.0","0","0","12066","","441","","","75","36","","","1","36","training","adjacent","EF","5","6","N.jpg","Q.jpg","0","1","0","",""
"","feedback","","html-keyboard-response","243","289264","0.0-1.0-330.0-0.0","0","0","12066","","null","","","null","36","","","","","","","","","","","","","","","",""
"","time_out","","html-keyboard-response","244","291281","0.0-1.0-332.0-0.0","0","0","12066","","null","","","null","36","","","","","","","","","","","","","","","",""
"","ITI","","html-keyboard-response","245","292299","0.0-1.0-333.0","0","0","12066","","null","","","null","36","","","","","","","","","","","","","","","NaN",""
"","S1","","html-keyboard-response","246","292577","0.0-1.0-335.0","0","0","12066","","null","","","null","37","","","","","","","","","","","","","","","",""
"","ISI","","html-keyboard-response","247","293589","0.0-1.0-336.0","0","0","12066","","null","","","null","37","NaN","","","","","","","","","","","","","","",""
"","S2","","html-keyboard-response","248","293858","0.0-1.0-337.0","0","0","12066","","null","","","null","37","","NaN","","","","","","","","","","","","","",""
"","response","","html-keyboard-response","249","294714","0.0-1.0-338.0-0.0","0","0","12066","","848","","","68","37","","","1","37","training","adjacent","FE","6","5","Q.jpg","N.jpg","1","0","0","",""
"","feedback","","html-keyboard-response","250","295731","0.0-1.0-339.0-0.0","0","0","12066","","null","","","null","37","","","","","","","","","","","","","","","",""
"","time_out","","html-keyboard-response","251","297746","0.0-1.0-341.0-0.0","0","0","12066","","null","","","null","37","","","","","","","","","","","","","","","",""
"","ITI","","html-keyboard-response","252","298769","0.0-1.0-342.0","0","0","12066","","null","","","null","37","","","","","","","","","","","","","","","NaN",""
"","S1","","html-keyboard-response","253","299046","0.0-1.0-344.0","0","0","12066","","null","","","null","38","","","","","","","","","","","","","","","",""
"","ISI","","html-keyboard-response","254","300071","0.0-1.0-345.0","0","0","12066","","null","","","null","38","NaN","","","","","","","","","","","","","","",""
"","S2","","html-keyboard-response","255","300349","0.0-1.0-346.0","0","0","12066","","null","","","null","38","","NaN","","","","","","","","","","","","","",""
"","response","","html-keyboard-response","256","300839","0.0-1.0-347.0-0.0","0","0","12066","","478","","","75","38","","","1","38","training","adjacent","AB","1","2","R.jpg","O.jpg","0","1","0","",""
"","feedback","","html-keyboard-response","257","301863","0.0-1.0-348.0-0.0","0","0","12066","","null","","","null","38","","","","","","","","","","","","","","","",""
"","time_out","","html-keyboard-response","258","303880","0.0-1.0-350.0-0.0","0","0","12066","","null","","","null","38","","","","","","","","","","","","","","","",""
"","ITI","","html-keyboard-response","259","304900","0.0-1.0-351.0","0","0","12066","","null","","","null","38","","","","","","","","","","","","","","","NaN",""
"","S1","","html-keyboard-response","260","305176","0.0-1.0-353.0","0","0","12066","","null","","","null","39","","","","","","","","","","","","","","","",""
"","ISI","","html-keyboard-response","261","306195","0.0-1.0-354.0","0","0","12066","","null","","","null","39","NaN","","","","","","","","","","","","","","",""
"","S2","","html-keyboard-response","262","306462","0.0-1.0-355.0","0","0","12066","","null","","","null","39","","NaN","","","","","","","","","","","","","",""
"","response","","html-keyboard-response","263","307511","0.0-1.0-356.0-0.0","0","0","12066","","1042","","","68","39","","","1","39","training","adjacent","CB","3","2","P.jpg","O.jpg","1","0","0","",""
"","feedback","","html-keyboard-response","264","308528","0.0-1.0-357.0-0.0","0","0","12066","","null","","","null","39","","","","","","","","","","","","","","","",""
"","time_out","","html-keyboard-response","265","310550","0.0-1.0-359.0-0.0","0","0","12066","","null","","","null","39","","","","","","","","","","","","","","","",""
"","ITI","","html-keyboard-response","266","311568","0.0-1.0-360.0","0","0","12066","","null","","","null","39","","","","","","","","","","","","","","","NaN",""
"","S1","","html-keyboard-response","267","311834","0.0-1.0-362.0","0","0","12066","","null","","","null","40","","","","","","","","","","","","","","","",""
"","ISI","","html-keyboard-response","268","312846","0.0-1.0-363.0","0","0","12066","","null","","","null","40","NaN","","","","","","","","","","","","","","",""
"","S2","","html-keyboard-response","269","313107","0.0-1.0-364.0","0","0","12066","","null","","","null","40","","NaN","","","","","","","","","","","","","",""
"","response","","html-keyboard-response","270","313696","0.0-1.0-365.0-0.0","0","0","12066","","580","","","68","40","","","1","40","training","adjacent","CB","3","2","P.jpg","O.jpg","1","0","0","",""
"","feedback","","html-keyboard-response","271","314721","0.0-1.0-366.0-0.0","0","0","12066","","null","","","null","40","","","","","","","","","","","","","","","",""
"","time_out","","html-keyboard-response","272","316736","0.0-1.0-368.0-0.0","0","0","12066","","null","","","null","40","","","","","","","","","","","","","","","",""
"","ITI","","html-keyboard-response","273","317756","0.0-1.0-369.0","0","0","12066","","null","","","null","40","","","","","","","","","","","","","","","NaN",""
"","S1","","html-keyboard-response","274","318021","0.0-1.0-371.0","0","0","12066","","null","","","null","41","","","","","","","","","","","","","","","",""
"","ISI","","html-keyboard-response","275","319037","0.0-1.0-372.0","0","0","12066","","null","","","null","41","NaN","","","","","","","","","","","","","","",""
"","S2","","html-keyboard-response","276","319303","0.0-1.0-373.0","0","0","12066","","null","","","null","41","","NaN","","","","","","","","","","","","","",""
"","response","","html-keyboard-response","277","320408","0.0-1.0-374.0-0.0","0","0","12066","","1096","","","75","41","","","1","41","training","adjacent","EF","5","6","N.jpg","Q.jpg","0","1","0","",""
"","feedback","","html-keyboard-response","278","321435","0.0-1.0-375.0-0.0","0","0","12066","","null","","","null","41","","","","","","","","","","","","","","","",""
"","time_out","","html-keyboard-response","279","323445","0.0-1.0-377.0-0.0","0","0","12066","","null","","","null","41","","","","","","","","","","","","","","","",""
"","ITI","","html-keyboard-response","280","324462","0.0-1.0-378.0","0","0","12066","","null","","","null","41","","","","","","","","","","","","","","","NaN",""
"","S1","","html-keyboard-response","281","324740","0.0-1.0-380.0","0","0","12066","","null","","","null","42","","","","","","","","","","","","","","","",""
"","ISI","","html-keyboard-response","282","325752","0.0-1.0-381.0","0","0","12066","","null","","","null","42","NaN","","","","","","","","","","","","","","",""
"","S2","","html-keyboard-response","283","326024","0.0-1.0-382.0","0","0","12066","","null","","","null","42","","NaN","","","","","","","","","","","","","",""
"","response","","html-keyboard-response","284","326985","0.0-1.0-383.0-0.0","0","0","12066","","948","","","75","42","","","1","42","training","adjacent","DC","4","3","M.jpg","P.jpg","0","0","1","",""
"","feedback","","html-keyboard-response","285","328002","0.0-1.0-384.0-0.0","0","0","12066","","null","","","null","42","","","","","","","","","","","","","","","",""
"","ITI","","html-keyboard-response","286","329015","0.0-1.0-387.0","0","0","12066","","null","","","null","42","","","","","","","","","","","","","","","NaN",""
"","S1","","html-keyboard-response","287","329286","0.0-1.0-389.0","0","0","12066","","null","","","null","43","","","","","","","","","","","","","","","",""
"","ISI","","html-keyboard-response","288","330309","0.0-1.0-390.0","0","0","12066","","null","","","null","43","NaN","","","","","","","","","","","","","","",""
"","S2","","html-keyboard-response","289","330584","0.0-1.0-391.0","0","0","12066","","null","","","null","43","","NaN","","","","","","","","","","","","","",""
"","response","","html-keyboard-response","290","331300","0.0-1.0-392.0-0.0","0","0","12066","","705","","","68","43","","","1","43","training","adjacent","DE","4","5","M.jpg","N.jpg","1","1","1","",""
"","feedback","","html-keyboard-response","291","332323","0.0-1.0-393.0-0.0","0","0","12066","","null","","","null","43","","","","","","","","","","","","","","","",""
"","ITI","","html-keyboard-response","292","333344","0.0-1.0-396.0","0","0","12066","","null","","","null","43","","","","","","","","","","","","","","","NaN",""
"","S1","","html-keyboard-response","293","333614","0.0-1.0-398.0","0","0","12066","","null","","","null","44","","","","","","","","","","","","","","","",""
"","ISI","","html-keyboard-response","294","334630","0.0-1.0-399.0","0","0","12066","","null","","","null","44","NaN","","","","","","","","","","","","","","",""
"","S2","","html-keyboard-response","295","334901","0.0-1.0-400.0","0","0","12066","","null","","","null","44","","NaN","","","","","","","","","","","","","",""
"","response","","html-keyboard-response","296","336078","0.0-1.0-401.0-0.0","0","0","12066","","1164","","","68","44","","","1","44","training","adjacent","FE","6","5","Q.jpg","N.jpg","1","0","0","",""
"","feedback","","html-keyboard-response","297","337093","0.0-1.0-402.0-0.0","0","0","12066","","null","","","null","44","","","","","","","","","","","","","","","",""
"","time_out","","html-keyboard-response","298","339114","0.0-1.0-404.0-0.0","0","0","12066","","null","","","null","44","","","","","","","","","","","","","","","",""
"","ITI","","html-keyboard-response","299","340130","0.0-1.0-405.0","0","0","12066","","null","","","null","44","","","","","","","","","","","","","","","NaN",""
"","S1","","html-keyboard-response","300","340406","0.0-1.0-407.0","0","0","12066","","null","","","null","45","","","","","","","","","","","","","","","",""
"","ISI","","html-keyboard-response","301","341427","0.0-1.0-408.0","0","0","12066","","null","","","null","45","NaN","","","","","","","","","","","","","","",""
"","S2","","html-keyboard-response","302","341706","0.0-1.0-409.0","0","0","12066","","null","","","null","45","","NaN","","","","","","","","","","","","","",""
"","response","","html-keyboard-response","303","342554","0.0-1.0-410.0-0.0","0","0","12066","","836","","","68","45","","","1","45","training","adjacent","EF","5","6","N.jpg","Q.jpg","1","1","1","",""
"","feedback","","html-keyboard-response","304","343569","0.0-1.0-411.0-0.0","0","0","12066","","null","","","null","45","","","","","","","","","","","","","","","",""
"","ITI","","html-keyboard-response","305","344584","0.0-1.0-414.0","0","0","12066","","null","","","null","45","","","","","","","","","","","","","","","NaN",""
"","S1","","html-keyboard-response","306","344850","0.0-1.0-416.0","0","0","12066","","null","","","null","46","","","","","","","","","","","","","","","",""
"","ISI","","html-keyboard-response","307","345864","0.0-1.0-417.0","0","0","12066","","null","","","null","46","NaN","","","","","","","","","","","","","","",""
"","S2","","html-keyboard-response","308","346124","0.0-1.0-418.0","0","0","12066","","null","","","null","46","","NaN","","","","","","","","","","","","","",""
"","response","","html-keyboard-response","309","347541","0.0-1.0-419.0-0.0","0","0","12066","","1408","","","68","46","","","1","46","training","adjacent","ED","5","4","N.jpg","M.jpg","1","0","0","",""
"","feedback","","html-keyboard-response","310","348564","0.0-1.0-420.0-0.0","0","0","12066","","null","","","null","46","","","","","","","","","","","","","","","",""
"","time_out","","html-keyboard-response","311","350591","0.0-1.0-422.0-0.0","0","0","12066","","null","","","null","46","","","","","","","","","","","","","","","",""
"","ITI","","html-keyboard-response","312","351605","0.0-1.0-423.0","0","0","12066","","null","","","null","46","","","","","","","","","","","","","","","NaN",""
"","S1","","html-keyboard-response","313","351882","0.0-1.0-425.0","0","0","12066","","null","","","null","47","","","","","","","","","","","","","","","",""
"","ISI","","html-keyboard-response","314","352909","0.0-1.0-426.0","0","0","12066","","null","","","null","47","NaN","","","","","","","","","","","","","","",""
"","S2","","html-keyboard-response","315","353180","0.0-1.0-427.0","0","0","12066","","null","","","null","47","","NaN","","","","","","","","","","","","","",""
"","response","","html-keyboard-response","316","354228","0.0-1.0-428.0-0.0","0","0","12066","","1034","","","75","47","","","1","47","training","adjacent","CD","3","4","P.jpg","M.jpg","0","1","0","",""
"","feedback","","html-keyboard-response","317","355246","0.0-1.0-429.0-0.0","0","0","12066","","null","","","null","47","","","","","","","","","","","","","","","",""
"","time_out","","html-keyboard-response","318","357261","0.0-1.0-431.0-0.0","0","0","12066","","null","","","null","47","","","","","","","","","","","","","","","",""
"","ITI","","html-keyboard-response","319","358280","0.0-1.0-432.0","0","0","12066","","null","","","null","47","","","","","","","","","","","","","","","NaN",""
"","block_over","","html-keyboard-response","320","362845","0.0-1.0-433.0-0.0","0","0","12066","","4549","","","32","47","","","","","","","","","","","","","","","",""
"","S1","","html-keyboard-response","321","363108","0.0-1.0-434.0","0","0","12066","","null","","","null","48","","","","","","","","","","","","","","","",""
"","ISI","","html-keyboard-response","322","364124","0.0-1.0-435.0","0","0","12066","","null","","","null","48","NaN","","","","","","","","","","","","","","",""
"","S2","","html-keyboard-response","323","364387","0.0-1.0-436.0","0","0","12066","","null","","","null","48","","NaN","","","","","","","","","","","","","",""
"","response","","html-keyboard-response","324","364946","0.0-1.0-437.0-0.0","0","0","12066","","546","","","68","48","","","2","48","training","adjacent","GF","7","6","L.jpg","Q.jpg","1","0","0","",""
"","feedback","","html-keyboard-response","325","365965","0.0-1.0-438.0-0.0","0","0","12066","","null","","","null","48","","","","","","","","","","","","","","","",""
"","time_out","","html-keyboard-response","326","367978","0.0-1.0-440.0-0.0","0","0","12066","","null","","","null","48","","","","","","","","","","","","","","","",""
"","ITI","","html-keyboard-response","327","369004","0.0-1.0-441.0","0","0","12066","","null","","","null","48","","","","","","","","","","","","","","","NaN",""
"","S1","","html-keyboard-response","328","369283","0.0-1.0-443.0","0","0","12066","","null","","","null","49","","","","","","","","","","","","","","","",""
"","ISI","","html-keyboard-response","329","370300","0.0-1.0-444.0","0","0","12066","","null","","","null","49","NaN","","","","","","","","","","","","","","",""
"","S2","","html-keyboard-response","330","370570","0.0-1.0-445.0","0","0","12066","","null","","","null","49","","NaN","","","","","","","","","","","","","",""
"","response","","html-keyboard-response","331","371743","0.0-1.0-446.0-0.0","0","0","12066","","1160","","","75","49","","","2","49","training","adjacent","BC","2","3","O.jpg","P.jpg","0","1","0","",""
"","feedback","","html-keyboard-response","332","372764","0.0-1.0-447.0-0.0","0","0","12066","","null","","","null","49","","","","","","","","","","","","","","","",""
"","time_out","","html-keyboard-response","333","374780","0.0-1.0-449.0-0.0","0","0","12066","","null","","","null","49","","","","","","","","","","","","","","","",""
"","ITI","","html-keyboard-response","334","375799","0.0-1.0-450.0","0","0","12066","","null","","","null","49","","","","","","","","","","","","","","","NaN",""
"","S1","","html-keyboard-response","335","376071","0.0-1.0-452.0","0","0","12066","","null","","","null","50","","","","","","","","","","","","","","","",""
"","ISI","","html-keyboard-response","336","377085","0.0-1.0-453.0","0","0","12066","","null","","","null","50","NaN","","","","","","","","","","","","","","",""
"","S2","","html-keyboard-response","337","377354","0.0-1.0-454.0","0","0","12066","","null","","","null","50","","NaN","","","","","","","","","","","","","",""
"","response","","html-keyboard-response","338","378703","0.0-1.0-455.0-0.0","0","0","12066","","1336","","","75","50","","","2","50","training","adjacent","EF","5","6","N.jpg","Q.jpg","0","1","0","",""
"","feedback","","html-keyboard-response","339","379713","0.0-1.0-456.0-0.0","0","0","12066","","null","","","null","50","","","","","","","","","","","","","","","",""
"","time_out","","html-keyboard-response","340","381730","0.0-1.0-458.0-0.0","0","0","12066","","null","","","null","50","","","","","","","","","","","","","","","",""
"","ITI","","html-keyboard-response","341","382754","0.0-1.0-459.0","0","0","12066","","null","","","null","50","","","","","","","","","","","","","","","NaN",""
"","S1","","html-keyboard-response","342","383030","0.0-1.0-461.0","0","0","12066","","null","","","null","51","","","","","","","","","","","","","","","",""
"","ISI","","html-keyboard-response","343","384055","0.0-1.0-462.0","0","0","12066","","null","","","null","51","NaN","","","","","","","","","","","","","","",""
"","S2","","html-keyboard-response","344","384322","0.0-1.0-463.0","0","0","12066","","null","","","null","51","","NaN","","","","","","","","","","","","","",""
"","response","","html-keyboard-response","345","385415","0.0-1.0-464.0-0.0","0","0","12066","","1081","","","75","51","","","2","51","training","adjacent","BA","2","1","O.jpg","R.jpg","0","0","1","",""
"","feedback","","html-keyboard-response","346","386431","0.0-1.0-465.0-0.0","0","0","12066","","null","","","null","51","","","","","","","","","","","","","","","",""
"","ITI","","html-keyboard-response","347","387449","0.0-1.0-468.0","0","0","12066","","null","","","null","51","","","","","","","","","","","","","","","NaN",""
"","S1","","html-keyboard-response","348","387719","0.0-1.0-470.0","0","0","12066","","null","","","null","52","","","","","","","","","","","","","","","",""
"","ISI","","html-keyboard-response","349","388734","0.0-1.0-471.0","0","0","12066","","null","","","null","52","NaN","","","","","","","","","","","","","","",""
"","S2","","html-keyboard-response","350","389002","0.0-1.0-472.0","0","0","12066","","null","","","null","52","","NaN","","","","","","","","","","","","","",""
"","response","","html-keyboard-response","351","390414","0.0-1.0-473.0-0.0","0","0","12066","","1399","","","68","52","","","2","52","training","adjacent","FG","6","7","Q.jpg","L.jpg","1","1","1","",""
"","feedback","","html-keyboard-response","352","391443","0.0-1.0-474.0-0.0","0","0","12066","","null","","","null","52","","","","","","","","","","","","","","","",""
"","ITI","","html-keyboard-response","353","392461","0.0-1.0-477.0","0","0","12066","","null","","","null","52","","","","","","","","","","","","","","","NaN",""
"","S1","","html-keyboard-response","354","392738","0.0-1.0-479.0","0","0","12066","","null","","","null","53","","","","","","","","","","","","","","","",""
"","ISI","","html-keyboard-response","355","393757","0.0-1.0-480.0","0","0","12066","","null","","","null","53","NaN","","","","","","","","","","","","","","",""
"","S2","","html-keyboard-response","356","394023","0.0-1.0-481.0","0","0","12066","","null","","","null","53","","NaN","","","","","","","","","","","","","",""
"","response","","html-keyboard-response","357","394816","0.0-1.0-482.0-0.0","0","0","12066","","780","","","75","53","","","2","53","training","adjacent","GF","7","6","L.jpg","Q.jpg","0","0","1","",""
"","feedback","","html-keyboard-response","358","395836","0.0-1.0-483.0-0.0","0","0","12066","","null","","","null","53","","","","","","","","","","","","","","","",""
"","ITI","","html-keyboard-response","359","396861","0.0-1.0-486.0","0","0","12066","","null","","","null","53","","","","","","","","","","","","","","","NaN",""
"","S1","","html-keyboard-response","360","397133","0.0-1.0-488.0","0","0","12066","","null","","","null","54","","","","","","","","","","","","","","","",""
"","ISI","","html-keyboard-response","361","398145","0.0-1.0-489.0","0","0","12066","","null","","","null","54","NaN","","","","","","","","","","","","","","",""
"","S2","","html-keyboard-response","362","398416","0.0-1.0-490.0","0","0","12066","","null","","","null","54","","NaN","","","","","","","","","","","","","",""
"","response","","html-keyboard-response","363","399463","0.0-1.0-491.0-0.0","0","0","12066","","1035","","","68","54","","","2","54","training","adjacent","BA","2","1","O.jpg","R.jpg","1","0","0","",""
"","feedback","","html-keyboard-response","364","400487","0.0-1.0-492.0-0.0","0","0","12066","","null","","","null","54","","","","","","","","","","","","","","","",""
"","time_out","","html-keyboard-response","365","402501","0.0-1.0-494.0-0.0","0","0","12066","","null","","","null","54","","","","","","","","","","","","","","","",""
"","ITI","","html-keyboard-response","366","403521","0.0-1.0-495.0","0","0","12066","","null","","","null","54","","","","","","","","","","","","","","","NaN",""
"","S1","","html-keyboard-response","367","403795","0.0-1.0-497.0","0","0","12066","","null","","","null","55","","","","","","","","","","","","","","","",""
"","ISI","","html-keyboard-response","368","404802","0.0-1.0-498.0","0","0","12066","","null","","","null","55","NaN","","","","","","","","","","","","","","",""
"","S2","","html-keyboard-response","369","405079","0.0-1.0-499.0","0","0","12066","","null","","","null","55","","NaN","","","","","","","","","","","","","",""
"","response","","html-keyboard-response","370","405964","0.0-1.0-500.0-0.0","0","0","12066","","872","","","75","55","","","2","55","training","adjacent","CB","3","2","P.jpg","O.jpg","0","0","1","",""
"","feedback","","html-keyboard-response","371","406985","0.0-1.0-501.0-0.0","0","0","12066","","null","","","null","55","","","","","","","","","","","","","","","",""
"","ITI","","html-keyboard-response","372","408002","0.0-1.0-504.0","0","0","12066","","null","","","null","55","","","","","","","","","","","","","","","NaN",""
"","S1","","html-keyboard-response","373","408276","0.0-1.0-506.0","0","0","12066","","null","","","null","56","","","","","","","","","","","","","","","",""
"","ISI","","html-keyboard-response","374","409299","0.0-1.0-507.0","0","0","12066","","null","","","null","56","NaN","","","","","","","","","","","","","","",""
"","S2","","html-keyboard-response","375","409564","0.0-1.0-508.0","0","0","12066","","null","","","null","56","","NaN","","","","","","","","","","","","","",""
"","response","","html-keyboard-response","376","410257","0.0-1.0-509.0-0.0","0","0","12066","","681","","","75","56","","","2","56","training","adjacent","AB","1","2","R.jpg","O.jpg","0","1","0","",""
"","feedback","","html-keyboard-response","377","411284","0.0-1.0-510.0-0.0","0","0","12066","","null","","","null","56","","","","","","","","","","","","","","","",""
"","time_out","","html-keyboard-response","378","413301","0.0-1.0-512.0-0.0","0","0","12066","","null","","","null","56","","","","","","","","","","","","","","","",""
"","ITI","","html-keyboard-response","379","414317","0.0-1.0-513.0","0","0","12066","","null","","","null","56","","","","","","","","","","","","","","","NaN",""
"","S1","","html-keyboard-response","380","414583","0.0-1.0-515.0","0","0","12066","","null","","","null","57","","","","","","","","","","","","","","","",""
"","ISI","","html-keyboard-response","381","415608","0.0-1.0-516.0","0","0","12066","","null","","","null","57","NaN","","","","","","","","","","","","","","",""
"","S2","","html-keyboard-response","382","415877","0.0-1.0-517.0","0","0","12066","","null","","","null","57","","NaN","","","","","","","","","","","","","",""
"","response","","html-keyboard-response","383","417198","0.0-1.0-518.0-0.0","0","0","12066","","1309","","","68","57","","","2","57","training","adjacent","GF","7","6","L.jpg","Q.jpg","1","0","0","",""
"","feedback","","html-keyboard-response","384","418219","0.0-1.0-519.0-0.0","0","0","12066","","null","","","null","57","","","","","","","","","","","","","","","",""
"","time_out","","html-keyboard-response","385","420234","0.0-1.0-521.0-0.0","0","0","12066","","null","","","null","57","","","","","","","","","","","","","","","",""
"","ITI","","html-keyboard-response","386","421251","0.0-1.0-522.0","0","0","12066","","null","","","null","57","","","","","","","","","","","","","","","NaN",""
"","S1","","html-keyboard-response","387","421510","0.0-1.0-524.0","0","0","12066","","null","","","null","58","","","","","","","","","","","","","","","",""
"","ISI","","html-keyboard-response","388","422533","0.0-1.0-525.0","0","0","12066","","null","","","null","58","NaN","","","","","","","","","","","","","","",""
"","S2","","html-keyboard-response","389","422797","0.0-1.0-526.0","0","0","12066","","null","","","null","58","","NaN","","","","","","","","","","","","","",""
"","response","","html-keyboard-response","390","423820","0.0-1.0-527.0-0.0","0","0","12066","","1011","","","75","58","","","2","58","training","adjacent","BC","2","3","O.jpg","P.jpg","0","1","0","",""
"","feedback","","html-keyboard-response","391","424840","0.0-1.0-528.0-0.0","0","0","12066","","null","","","null","58","","","","","","","","","","","","","","","",""
"","time_out","","html-keyboard-response","392","426862","0.0-1.0-530.0-0.0","0","0","12066","","null","","","null","58","","","","","","","","","","","","","","","",""
"","ITI","","html-keyboard-response","393","427874","0.0-1.0-531.0","0","0","12066","","null","","","null","58","","","","","","","","","","","","","","","NaN",""
"","S1","","html-keyboard-response","394","428151","0.0-1.0-533.0","0","0","12066","","null","","","null","59","","","","","","","","","","","","","","","",""
"","ISI","","html-keyboard-response","395","429179","0.0-1.0-534.0","0","0","12066","","null","","","null","59","NaN","","","","","","","","","","","","","","",""
"","S2","","html-keyboard-response","396","429450","0.0-1.0-535.0","0","0","12066","","null","","","null","59","","NaN","","","","","","","","","","","","","",""
"","response","","html-keyboard-response","397","429743","0.0-1.0-536.0-0.0","0","0","12066","","285","","","68","59","","","2","59","training","adjacent","DE","4","5","M.jpg","N.jpg","1","1","1","",""
"","feedback","","html-keyboard-response","398","430757","0.0-1.0-537.0-0.0","0","0","12066","","null","","","null","59","","","","","","","","","","","","","","","",""
"","ITI","","html-keyboard-response","399","431785","0.0-1.0-540.0","0","0","12066","","null","","","null","59","","","","","","","","","","","","","","","NaN",""
"","S1","","html-keyboard-response","400","432051","0.0-1.0-542.0","0","0","12066","","null","","","null","60","","","","","","","","","","","","","","","",""
"","ISI","","html-keyboard-response","401","433063","0.0-1.0-543.0","0","0","12066","","null","","","null","60","NaN","","","","","","","","","","","","","","",""
"","S2","","html-keyboard-response","402","433328","0.0-1.0-544.0","0","0","12066","","null","","","null","60","","NaN","","","","","","","","","","","","","",""
"","response","","html-keyboard-response","403","434007","0.0-1.0-545.0-0.0","0","0","12066","","667","","","75","60","","","2","60","training","adjacent","CB","3","2","P.jpg","O.jpg","0","0","1","",""
"","feedback","","html-keyboard-response","404","435024","0.0-1.0-546.0-0.0","0","0","12066","","null","","","null","60","","","","","","","","","","","","","","","",""
"","ITI","","html-keyboard-response","405","436042","0.0-1.0-549.0","0","0","12066","","null","","","null","60","","","","","","","","","","","","","","","NaN",""
"","S1","","html-keyboard-response","406","436317","0.0-1.0-551.0","0","0","12066","","null","","","null","61","","","","","","","","","","","","","","","",""
"","ISI","","html-keyboard-response","407","437336","0.0-1.0-552.0","0","0","12066","","null","","","null","61","NaN","","","","","","","","","","","","","","",""
"","S2","","html-keyboard-response","408","437611","0.0-1.0-553.0","0","0","12066","","null","","","null","61","","NaN","","","","","","","","","","","","","",""
"","response","","html-keyboard-response","409","438701","0.0-1.0-554.0-0.0","0","0","12066","","1077","","","68","61","","","2","61","training","adjacent","FE","6","5","Q.jpg","N.jpg","1","0","0","",""
"","feedback","","html-keyboard-response","410","439719","0.0-1.0-555.0-0.0","0","0","12066","","null","","","null","61","","","","","","","","","","","","","","","",""
"","time_out","","html-keyboard-response","411","441737","0.0-1.0-557.0-0.0","0","0","12066","","null","","","null","61","","","","","","","","","","","","","","","",""
"","ITI","","html-keyboard-response","412","442762","0.0-1.0-558.0","0","0","12066","","null","","","null","61","","","","","","","","","","","","","","","NaN",""
"","S1","","html-keyboard-response","413","443028","0.0-1.0-560.0","0","0","12066","","null","","","null","62","","","","","","","","","","","","","","","",""
"","ISI","","html-keyboard-response","414","444048","0.0-1.0-561.0","0","0","12066","","null","","","null","62","NaN","","","","","","","","","","","","","","",""
"","S2","","html-keyboard-response","415","444311","0.0-1.0-562.0","0","0","12066","","null","","","null","62","","NaN","","","","","","","","","","","","","",""
"","response","","html-keyboard-response","416","445569","0.0-1.0-563.0-0.0","0","0","12066","","1246","","","68","62","","","2","62","training","adjacent","BA","2","1","O.jpg","R.jpg","1","0","0","",""
"","feedback","","html-keyboard-response","417","446585","0.0-1.0-564.0-0.0","0","0","12066","","null","","","null","62","","","","","","","","","","","","","","","",""
"","time_out","","html-keyboard-response","418","448598","0.0-1.0-566.0-0.0","0","0","12066","","null","","","null","62","","","","","","","","","","","","","","","",""
"","ITI","","html-keyboard-response","419","449612","0.0-1.0-567.0","0","0","12066","","null","","","null","62","","","","","","","","","","","","","","","NaN",""
"","S1","","html-keyboard-response","420","449877","0.0-1.0-569.0","0","0","12066","","null","","","null","63","","","","","","","","","","","","","","","",""
"","ISI","","html-keyboard-response","421","450889","0.0-1.0-570.0","0","0","12066","","null","","","null","63","NaN","","","","","","","","","","","","","","",""
"","S2","","html-keyboard-response","422","451154","0.0-1.0-571.0","0","0","12066","","null","","","null","63","","NaN","","","","","","","","","","","","","",""
"","response","","html-keyboard-response","423","452922","0.0-1.0-572.0-0.0","0","0","12066","","null","","","null","63","","","2","63","training","adjacent","CB","3","2","P.jpg","O.jpg","NaN","0","0","",""
"","too_slow_prompt","","html-keyboard-response","424","453944","0.0-1.0-574.0-0.0","1","0","12066","","null","","","null","","","","","","","","","","","","","","","","",""
"","time_out","","html-keyboard-response","425","455965","0.0-1.0-575.0-0.0","0","0","12066","","null","","","null","63","","","","","","","","","","","","","","","",""
"","ITI","","html-keyboard-response","426","456985","0.0-1.0-576.0","0","0","12066","","null","","","null","63","","","","","","","","","","","","","","","NaN",""
"","S1","","html-keyboard-response","427","457256","0.0-1.0-578.0","0","0","12066","","null","","","null","64","","","","","","","","","","","","","","","",""
"","ISI","","html-keyboard-response","428","458276","0.0-1.0-579.0","0","0","12066","","null","","","null","64","NaN","","","","","","","","","","","","","","",""
"","S2","","html-keyboard-response","429","458553","0.0-1.0-580.0","0","0","12066","","null","","","null","64","","NaN","","","","","","","","","","","","","",""
"","response","","html-keyboard-response","430","459161","0.0-1.0-581.0-0.0","0","0","12066","","595","","","68","64","","","2","64","training","adjacent","FG","6","7","Q.jpg","L.jpg","1","1","1","",""
"","feedback","","html-keyboard-response","431","460185","0.0-1.0-582.0-0.0","0","0","12066","","null","","","null","64","","","","","","","","","","","","","","","",""
"","ITI","","html-keyboard-response","432","461204","0.0-1.0-585.0","0","0","12066","","null","","","null","64","","","","","","","","","","","","","","","NaN",""
"","S1","","html-keyboard-response","433","461475","0.0-1.0-587.0","0","0","12066","","null","","","null","65","","","","","","","","","","","","","","","",""
"","ISI","","html-keyboard-response","434","462488","0.0-1.0-588.0","0","0","12066","","null","","","null","65","NaN","","","","","","","","","","","","","","",""
"","S2","","html-keyboard-response","435","462763","0.0-1.0-589.0","0","0","12066","","null","","","null","65","","NaN","","","","","","","","","","","","","",""
"","response","","html-keyboard-response","436","463521","0.0-1.0-590.0-0.0","0","0","12066","","745","","","68","65","","","2","65","training","adjacent","DE","4","5","M.jpg","N.jpg","1","1","1","",""
"","feedback","","html-keyboard-response","437","464544","0.0-1.0-591.0-0.0","0","0","12066","","null","","","null","65","","","","","","","","","","","","","","","",""
"","ITI","","html-keyboard-response","438","465564","0.0-1.0-594.0","0","0","12066","","null","","","null","65","","","","","","","","","","","","","","","NaN",""
"","S1","","html-keyboard-response","439","465832","0.0-1.0-596.0","0","0","12066","","null","","","null","66","","","","","","","","","","","","","","","",""
"","ISI","","html-keyboard-response","440","466843","0.0-1.0-597.0","0","0","12066","","null","","","null","66","NaN","","","","","","","","","","","","","","",""
"","S2","","html-keyboard-response","441","467114","0.0-1.0-598.0","0","0","12066","","null","","","null","66","","NaN","","","","","","","","","","","","","",""
"","response","","html-keyboard-response","442","467769","0.0-1.0-599.0-0.0","0","0","12066","","642","","","68","66","","","2","66","training","adjacent","DE","4","5","M.jpg","N.jpg","1","1","1","",""
"","feedback","","html-keyboard-response","443","468797","0.0-1.0-600.0-0.0","0","0","12066","","null","","","null","66","","","","","","","","","","","","","","","",""
"","ITI","","html-keyboard-response","444","469813","0.0-1.0-603.0","0","0","12066","","null","","","null","66","","","","","","","","","","","","","","","NaN",""
"","S1","","html-keyboard-response","445","470088","0.0-1.0-605.0","0","0","12066","","null","","","null","67","","","","","","","","","","","","","","","",""
"","ISI","","html-keyboard-response","446","471105","0.0-1.0-606.0","0","0","12066","","null","","","null","67","NaN","","","","","","","","","","","","","","",""
"","S2","","html-keyboard-response","447","471370","0.0-1.0-607.0","0","0","12066","","null","","","null","67","","NaN","","","","","","","","","","","","","",""
"","response","","html-keyboard-response","448","471872","0.0-1.0-608.0-0.0","0","0","12066","","489","","","68","67","","","2","67","training","adjacent","DC","4","3","M.jpg","P.jpg","1","0","0","",""
"","feedback","","html-keyboard-response","449","472899","0.0-1.0-609.0-0.0","0","0","12066","","null","","","null","67","","","","","","","","","","","","","","","",""
"","time_out","","html-keyboard-response","450","474919","0.0-1.0-611.0-0.0","0","0","12066","","null","","","null","67","","","","","","","","","","","","","","","",""
"","ITI","","html-keyboard-response","451","475931","0.0-1.0-612.0","0","0","12066","","null","","","null","67","","","","","","","","","","","","","","","NaN",""
"","S1","","html-keyboard-response","452","476199","0.0-1.0-614.0","0","0","12066","","null","","","null","68","","","","","","","","","","","","","","","",""
"","ISI","","html-keyboard-response","453","477226","0.0-1.0-615.0","0","0","12066","","null","","","null","68","NaN","","","","","","","","","","","","","","",""
"","S2","","html-keyboard-response","454","477502","0.0-1.0-616.0","0","0","12066","","null","","","null","68","","NaN","","","","","","","","","","","","","",""
"","response","","html-keyboard-response","455","478442","0.0-1.0-617.0-0.0","0","0","12066","","927","","","75","68","","","2","68","training","adjacent","FE","6","5","Q.jpg","N.jpg","0","0","1","",""
"","feedback","","html-keyboard-response","456","479458","0.0-1.0-618.0-0.0","0","0","12066","","null","","","null","68","","","","","","","","","","","","","","","",""
"","ITI","","html-keyboard-response","457","480473","0.0-1.0-621.0","0","0","12066","","null","","","null","68","","","","","","","","","","","","","","","NaN",""
"","S1","","html-keyboard-response","458","480739","0.0-1.0-623.0","0","0","12066","","null","","","null","69","","","","","","","","","","","","","","","",""
"","ISI","","html-keyboard-response","459","481757","0.0-1.0-624.0","0","0","12066","","null","","","null","69","NaN","","","","","","","","","","","","","","",""
"","S2","","html-keyboard-response","460","482036","0.0-1.0-625.0","0","0","12066","","null","","","null","69","","NaN","","","","","","","","","","","","","",""
"","response","","html-keyboard-response","461","482467","0.0-1.0-626.0-0.0","0","0","12066","","419","","","75","69","","","2","69","training","adjacent","FE","6","5","Q.jpg","N.jpg","0","0","1","",""
"","feedback","","html-keyboard-response","462","483498","0.0-1.0-627.0-0.0","0","0","12066","","null","","","null","69","","","","","","","","","","","","","","","",""
"","ITI","","html-keyboard-response","463","484527","0.0-1.0-630.0","0","0","12066","","null","","","null","69","","","","","","","","","","","","","","","NaN",""
"","S1","","html-keyboard-response","464","484797","0.0-1.0-632.0","0","0","12066","","null","","","null","70","","","","","","","","","","","","","","","",""
"","ISI","","html-keyboard-response","465","485814","0.0-1.0-633.0","0","0","12066","","null","","","null","70","NaN","","","","","","","","","","","","","","",""
"","S2","","html-keyboard-response","466","486086","0.0-1.0-634.0","0","0","12066","","null","","","null","70","","NaN","","","","","","","","","","","","","",""
"","response","","html-keyboard-response","467","487280","0.0-1.0-635.0-0.0","0","0","12066","","1182","","","68","70","","","2","70","training","adjacent","ED","5","4","N.jpg","M.jpg","1","0","0","",""
"","feedback","","html-keyboard-response","468","488302","0.0-1.0-636.0-0.0","0","0","12066","","null","","","null","70","","","","","","","","","","","","","","","",""
"","time_out","","html-keyboard-response","469","490315","0.0-1.0-638.0-0.0","0","0","12066","","null","","","null","70","","","","","","","","","","","","","","","",""
"","ITI","","html-keyboard-response","470","491333","0.0-1.0-639.0","0","0","12066","","null","","","null","70","","","","","","","","","","","","","","","NaN",""
"","S1","","html-keyboard-response","471","491597","0.0-1.0-641.0","0","0","12066","","null","","","null","71","","","","","","","","","","","","","","","",""
"","ISI","","html-keyboard-response","472","492616","0.0-1.0-642.0","0","0","12066","","null","","","null","71","NaN","","","","","","","","","","","","","","",""
"","S2","","html-keyboard-response","473","492885","0.0-1.0-643.0","0","0","12066","","null","","","null","71","","NaN","","","","","","","","","","","","","",""
"","response","","html-keyboard-response","474","493442","0.0-1.0-644.0-0.0","0","0","12066","","545","","","75","71","","","2","71","training","adjacent","FG","6","7","Q.jpg","L.jpg","0","1","0","",""
"","feedback","","html-keyboard-response","475","494470","0.0-1.0-645.0-0.0","0","0","12066","","null","","","null","71","","","","","","","","","","","","","","","",""
"","time_out","","html-keyboard-response","476","496479","0.0-1.0-647.0-0.0","0","0","12066","","null","","","null","71","","","","","","","","","","","","","","","",""
"","ITI","","html-keyboard-response","477","497495","0.0-1.0-648.0","0","0","12066","","null","","","null","71","","","","","","","","","","","","","","","NaN",""
"","S1","","html-keyboard-response","478","497762","0.0-1.0-650.0","0","0","12066","","null","","","null","72","","","","","","","","","","","","","","","",""
"","ISI","","html-keyboard-response","479","498780","0.0-1.0-651.0","0","0","12066","","null","","","null","72","NaN","","","","","","","","","","","","","","",""
"","S2","","html-keyboard-response","480","499058","0.0-1.0-652.0","0","0","12066","","null","","","null","72","","NaN","","","","","","","","","","","","","",""
"","response","","html-keyboard-response","481","499713","0.0-1.0-653.0-0.0","0","0","12066","","642","","","68","72","","","2","72","training","adjacent","EF","5","6","N.jpg","Q.jpg","1","1","1","",""
"","feedback","","html-keyboard-response","482","500738","0.0-1.0-654.0-0.0","0","0","12066","","null","","","null","72","","","","","","","","","","","","","","","",""
"","ITI","","html-keyboard-response","483","501764","0.0-1.0-657.0","0","0","12066","","null","","","null","72","","","","","","","","","","","","","","","NaN",""
"","S1","","html-keyboard-response","484","502037","0.0-1.0-659.0","0","0","12066","","null","","","null","73","","","","","","","","","","","","","","","",""
"","ISI","","html-keyboard-response","485","503057","0.0-1.0-660.0","0","0","12066","","null","","","null","73","NaN","","","","","","","","","","","","","","",""
"","S2","","html-keyboard-response","486","503332","0.0-1.0-661.0","0","0","12066","","null","","","null","73","","NaN","","","","","","","","","","","","","",""
"","response","","html-keyboard-response","487","504842","0.0-1.0-662.0-0.0","0","0","12066","","1502","","","75","73","","","2","73","training","adjacent","BC","2","3","O.jpg","P.jpg","0","1","0","",""
"","feedback","","html-keyboard-response","488","505860","0.0-1.0-663.0-0.0","0","0","12066","","null","","","null","73","","","","","","","","","","","","","","","",""
"","time_out","","html-keyboard-response","489","507873","0.0-1.0-665.0-0.0","0","0","12066","","null","","","null","73","","","","","","","","","","","","","","","",""
"","ITI","","html-keyboard-response","490","508882","0.0-1.0-666.0","0","0","12066","","null","","","null","73","","","","","","","","","","","","","","","NaN",""
"","S1","","html-keyboard-response","491","509141","0.0-1.0-668.0","0","0","12066","","null","","","null","74","","","","","","","","","","","","","","","",""
"","ISI","","html-keyboard-response","492","510153","0.0-1.0-669.0","0","0","12066","","null","","","null","74","NaN","","","","","","","","","","","","","","",""
"","S2","","html-keyboard-response","493","510424","0.0-1.0-670.0","0","0","12066","","null","","","null","74","","NaN","","","","","","","","","","","","","",""
"","response","","html-keyboard-response","494","510779","0.0-1.0-671.0-0.0","0","0","12066","","343","","","68","74","","","2","74","training","adjacent","ED","5","4","N.jpg","M.jpg","1","0","0","",""
"","feedback","","html-keyboard-response","495","511808","0.0-1.0-672.0-0.0","0","0","12066","","null","","","null","74","","","","","","","","","","","","","","","",""
"","time_out","","html-keyboard-response","496","513823","0.0-1.0-674.0-0.0","0","0","12066","","null","","","null","74","","","","","","","","","","","","","","","",""
"","ITI","","html-keyboard-response","497","514838","0.0-1.0-675.0","0","0","12066","","null","","","null","74","","","","","","","","","","","","","","","NaN",""
"","S1","","html-keyboard-response","498","515114","0.0-1.0-677.0","0","0","12066","","null","","","null","75","","","","","","","","","","","","","","","",""
"","ISI","","html-keyboard-response","499","516129","0.0-1.0-678.0","0","0","12066","","null","","","null","75","NaN","","","","","","","","","","","","","","",""
"","S2","","html-keyboard-response","500","516397","0.0-1.0-679.0","0","0","12066","","null","","","null","75","","NaN","","","","","","","","","","","","","",""
"","response","","html-keyboard-response","501","517155","0.0-1.0-680.0-0.0","0","0","12066","","746","","","75","75","","","2","75","training","adjacent","CD","3","4","P.jpg","M.jpg","0","1","0","",""
"","feedback","","html-keyboard-response","502","518187","0.0-1.0-681.0-0.0","0","0","12066","","null","","","null","75","","","","","","","","","","","","","","","",""
"","time_out","","html-keyboard-response","503","520209","0.0-1.0-683.0-0.0","0","0","12066","","null","","","null","75","","","","","","","","","","","","","","","",""
"","ITI","","html-keyboard-response","504","521221","0.0-1.0-684.0","0","0","12066","","null","","","null","75","","","","","","","","","","","","","","","NaN",""
"","S1","","html-keyboard-response","505","521491","0.0-1.0-686.0","0","0","12066","","null","","","null","76","","","","","","","","","","","","","","","",""
"","ISI","","html-keyboard-response","506","522516","0.0-1.0-687.0","0","0","12066","","null","","","null","76","NaN","","","","","","","","","","","","","","",""
"","S2","","html-keyboard-response","507","522784","0.0-1.0-688.0","0","0","12066","","null","","","null","76","","NaN","","","","","","","","","","","","","",""
"","response","","html-keyboard-response","508","523264","0.0-1.0-689.0-0.0","0","0","12066","","467","","","75","76","","","2","76","training","adjacent","DC","4","3","M.jpg","P.jpg","0","0","1","",""
"","feedback","","html-keyboard-response","509","524289","0.0-1.0-690.0-0.0","0","0","12066","","null","","","null","76","","","","","","","","","","","","","","","",""
"","ITI","","html-keyboard-response","510","525313","0.0-1.0-693.0","0","0","12066","","null","","","null","76","","","","","","","","","","","","","","","NaN",""
"","S1","","html-keyboard-response","511","525584","0.0-1.0-695.0","0","0","12066","","null","","","null","77","","","","","","","","","","","","","","","",""
"","ISI","","html-keyboard-response","512","526608","0.0-1.0-696.0","0","0","12066","","null","","","null","77","NaN","","","","","","","","","","","","","","",""
"","S2","","html-keyboard-response","513","526884","0.0-1.0-697.0","0","0","12066","","null","","","null","77","","NaN","","","","","","","","","","","","","",""
"","response","","html-keyboard-response","514","527970","0.0-1.0-698.0-0.0","0","0","12066","","1073","","","75","77","","","2","77","training","adjacent","ED","5","4","N.jpg","M.jpg","0","0","1","",""
"","feedback","","html-keyboard-response","515","528988","0.0-1.0-699.0-0.0","0","0","12066","","null","","","null","77","","","","","","","","","","","","","","","",""
"","ITI","","html-keyboard-response","516","530005","0.0-1.0-702.0","0","0","12066","","null","","","null","77","","","","","","","","","","","","","","","NaN",""
"","S1","","html-keyboard-response","517","530266","0.0-1.0-704.0","0","0","12066","","null","","","null","78","","","","","","","","","","","","","","","",""
"","ISI","","html-keyboard-response","518","531279","0.0-1.0-705.0","0","0","12066","","null","","","null","78","NaN","","","","","","","","","","","","","","",""
"","S2","","html-keyboard-response","519","531544","0.0-1.0-706.0","0","0","12066","","null","","","null","78","","NaN","","","","","","","","","","","","","",""
"","response","","html-keyboard-response","520","531789","0.0-1.0-707.0-0.0","0","0","12066","","232","","","68","78","","","2","78","training","adjacent","BA","2","1","O.jpg","R.jpg","1","0","0","",""
"","feedback","","html-keyboard-response","521","532814","0.0-1.0-708.0-0.0","0","0","12066","","null","","","null","78","","","","","","","","","","","","","","","",""
"","time_out","","html-keyboard-response","522","534833","0.0-1.0-710.0-0.0","0","0","12066","","null","","","null","78","","","","","","","","","","","","","","","",""
"","ITI","","html-keyboard-response","523","535848","0.0-1.0-711.0","0","0","12066","","null","","","null","78","","","","","","","","","","","","","","","NaN",""
"","S1","","html-keyboard-response","524","536123","0.0-1.0-713.0","0","0","12066","","null","","","null","79","","","","","","","","","","","","","","","",""
"","ISI","","html-keyboard-response","525","537135","0.0-1.0-714.0","0","0","12066","","null","","","null","79","NaN","","","","","","","","","","","","","","",""
"","S2","","html-keyboard-response","526","537401","0.0-1.0-715.0","0","0","12066","","null","","","null","79","","NaN","","","","","","","","","","","","","",""
"","response","","html-keyboard-response","527","538420","0.0-1.0-716.0-0.0","0","0","12066","","1011","","","75","79","","","2","79","training","adjacent","BC","2","3","O.jpg","P.jpg","0","1","0","",""
"","feedback","","html-keyboard-response","528","539433","0.0-1.0-717.0-0.0","0","0","12066","","null","","","null","79","","","","","","","","","","","","","","","",""
"","time_out","","html-keyboard-response","529","541449","0.0-1.0-719.0-0.0","0","0","12066","","null","","","null","79","","","","","","","","","","","","","","","",""
"","ITI","","html-keyboard-response","530","542468","0.0-1.0-720.0","0","0","12066","","null","","","null","79","","","","","","","","","","","","","","","NaN",""
"","S1","","html-keyboard-response","531","542735","0.0-1.0-722.0","0","0","12066","","null","","","null","80","","","","","","","","","","","","","","","",""
"","ISI","","html-keyboard-response","532","543762","0.0-1.0-723.0","0","0","12066","","null","","","null","80","NaN","","","","","","","","","","","","","","",""
"","S2","","html-keyboard-response","533","544026","0.0-1.0-724.0","0","0","12066","","null","","","null","80","","NaN","","","","","","","","","","","","","",""
"","response","","html-keyboard-response","534","544657","0.0-1.0-725.0-0.0","0","0","12066","","618","","","68","80","","","2","80","training","adjacent","CD","3","4","P.jpg","M.jpg","1","1","1","",""
"","feedback","","html-keyboard-response","535","545683","0.0-1.0-726.0-0.0","0","0","12066","","null","","","null","80","","","","","","","","","","","","","","","",""
"","ITI","","html-keyboard-response","536","546698","0.0-1.0-729.0","0","0","12066","","null","","","null","80","","","","","","","","","","","","","","","NaN",""
"","S1","","html-keyboard-response","537","546966","0.0-1.0-731.0","0","0","12066","","null","","","null","81","","","","","","","","","","","","","","","",""
"","ISI","","html-keyboard-response","538","547981","0.0-1.0-732.0","0","0","12066","","null","","","null","81","NaN","","","","","","","","","","","","","","",""
"","S2","","html-keyboard-response","539","548247","0.0-1.0-733.0","0","0","12066","","null","","","null","81","","NaN","","","","","","","","","","","","","",""
"","response","","html-keyboard-response","540","549598","0.0-1.0-734.0-0.0","0","0","12066","","1339","","","75","81","","","2","81","training","adjacent","FG","6","7","Q.jpg","L.jpg","0","1","0","",""
"","feedback","","html-keyboard-response","541","550618","0.0-1.0-735.0-0.0","0","0","12066","","null","","","null","81","","","","","","","","","","","","","","","",""
"","time_out","","html-keyboard-response","542","552634","0.0-1.0-737.0-0.0","0","0","12066","","null","","","null","81","","","","","","","","","","","","","","","",""
"","ITI","","html-keyboard-response","543","553650","0.0-1.0-738.0","0","0","12066","","null","","","null","81","","","","","","","","","","","","","","","NaN",""
"","S1","","html-keyboard-response","544","553923","0.0-1.0-740.0","0","0","12066","","null","","","null","82","","","","","","","","","","","","","","","",""
"","ISI","","html-keyboard-response","545","554933","0.0-1.0-741.0","0","0","12066","","null","","","null","82","NaN","","","","","","","","","","","","","","",""
"","S2","","html-keyboard-response","546","555196","0.0-1.0-742.0","0","0","12066","","null","","","null","82","","NaN","","","","","","","","","","","","","",""
"","response","","html-keyboard-response","547","555990","0.0-1.0-743.0-0.0","0","0","12066","","784","","","68","82","","","2","82","training","adjacent","DC","4","3","M.jpg","P.jpg","1","0","0","",""
"","feedback","","html-keyboard-response","548","557022","0.0-1.0-744.0-0.0","0","0","12066","","null","","","null","82","","","","","","","","","","","","","","","",""
"","time_out","","html-keyboard-response","549","559036","0.0-1.0-746.0-0.0","0","0","12066","","null","","","null","82","","","","","","","","","","","","","","","",""
"","ITI","","html-keyboard-response","550","560055","0.0-1.0-747.0","0","0","12066","","null","","","null","82","","","","","","","","","","","","","","","NaN",""
"","S1","","html-keyboard-response","551","560322","0.0-1.0-749.0","0","0","12066","","null","","","null","83","","","","","","","","","","","","","","","",""
"","ISI","","html-keyboard-response","552","561339","0.0-1.0-750.0","0","0","12066","","null","","","null","83","NaN","","","","","","","","","","","","","","",""
"","S2","","html-keyboard-response","553","561608","0.0-1.0-751.0","0","0","12066","","null","","","null","83","","NaN","","","","","","","","","","","","","",""
"","response","","html-keyboard-response","554","561644","0.0-1.0-752.0-0.0","0","0","12066","","27","","","68","83","","","2","83","training","adjacent","ED","5","4","N.jpg","M.jpg","1","0","0","",""
"","feedback","","html-keyboard-response","555","562664","0.0-1.0-753.0-0.0","0","0","12066","","null","","","null","83","","","","","","","","","","","","","","","",""
"","time_out","","html-keyboard-response","556","564685","0.0-1.0-755.0-0.0","0","0","12066","","null","","","null","83","","","","","","","","","","","","","","","",""
"","ITI","","html-keyboard-response","557","565695","0.0-1.0-756.0","0","0","12066","","null","","","null","83","","","","","","","","","","","","","","","NaN",""
"","S1","","html-keyboard-response","558","565963","0.0-1.0-758.0","0","0","12066","","null","","","null","84","","","","","","","","","","","","","","","",""
"","ISI","","html-keyboard-response","559","566989","0.0-1.0-759.0","0","0","12066","","null","","","null","84","NaN","","","","","","","","","","","","","","",""
"","S2","","html-keyboard-response","560","567256","0.0-1.0-760.0","0","0","12066","","null","","","null","84","","NaN","","","","","","","","","","","","","",""
"","response","","html-keyboard-response","561","567885","0.0-1.0-761.0-0.0","0","0","12066","","617","","","75","84","","","2","84","training","adjacent","EF","5","6","N.jpg","Q.jpg","0","1","0","",""
"","feedback","","html-keyboard-response","562","568909","0.0-1.0-762.0-0.0","0","0","12066","","null","","","null","84","","","","","","","","","","","","","","","",""
"","time_out","","html-keyboard-response","563","570924","0.0-1.0-764.0-0.0","0","0","12066","","null","","","null","84","","","","","","","","","","","","","","","",""
"","ITI","","html-keyboard-response","564","571945","0.0-1.0-765.0","0","0","12066","","null","","","null","84","","","","","","","","","","","","","","","NaN",""
"","S1","","html-keyboard-response","565","572207","0.0-1.0-767.0","0","0","12066","","null","","","null","85","","","","","","","","","","","","","","","",""
"","ISI","","html-keyboard-response","566","573223","0.0-1.0-768.0","0","0","12066","","null","","","null","85","NaN","","","","","","","","","","","","","","",""
"","S2","","html-keyboard-response","567","573495","0.0-1.0-769.0","0","0","12066","","null","","","null","85","","NaN","","","","","","","","","","","","","",""
"","response","","html-keyboard-response","568","573942","0.0-1.0-770.0-0.0","0","0","12066","","435","","","75","85","","","2","85","training","adjacent","CB","3","2","P.jpg","O.jpg","0","0","1","",""
"","feedback","","html-keyboard-response","569","574962","0.0-1.0-771.0-0.0","0","0","12066","","null","","","null","85","","","","","","","","","","","","","","","",""
"","ITI","","html-keyboard-response","570","575982","0.0-1.0-774.0","0","0","12066","","null","","","null","85","","","","","","","","","","","","","","","NaN",""
"","S1","","html-keyboard-response","571","576257","0.0-1.0-776.0","0","0","12066","","null","","","null","86","","","","","","","","","","","","","","","",""
"","ISI","","html-keyboard-response","572","577284","0.0-1.0-777.0","0","0","12066","","null","","","null","86","NaN","","","","","","","","","","","","","","",""
"","S2","","html-keyboard-response","573","577551","0.0-1.0-778.0","0","0","12066","","null","","","null","86","","NaN","","","","","","","","","","","","","",""
"","response","","html-keyboard-response","574","578909","0.0-1.0-779.0-0.0","0","0","12066","","1346","","","75","86","","","2","86","training","adjacent","AB","1","2","R.jpg","O.jpg","0","1","0","",""
"","feedback","","html-keyboard-response","575","579931","0.0-1.0-780.0-0.0","0","0","12066","","null","","","null","86","","","","","","","","","","","","","","","",""
"","time_out","","html-keyboard-response","576","581955","0.0-1.0-782.0-0.0","0","0","12066","","null","","","null","86","","","","","","","","","","","","","","","",""
"","ITI","","html-keyboard-response","577","582974","0.0-1.0-783.0","0","0","12066","","null","","","null","86","","","","","","","","","","","","","","","NaN",""
"","S1","","html-keyboard-response","578","583240","0.0-1.0-785.0","0","0","12066","","null","","","null","87","","","","","","","","","","","","","","","",""
"","ISI","","html-keyboard-response","579","584258","0.0-1.0-786.0","0","0","12066","","null","","","null","87","NaN","","","","","","","","","","","","","","",""
"","S2","","html-keyboard-response","580","584526","0.0-1.0-787.0","0","0","12066","","null","","","null","87","","NaN","","","","","","","","","","","","","",""
"","response","","html-keyboard-response","581","584761","0.0-1.0-788.0-0.0","0","0","12066","","225","","","68","87","","","2","87","training","adjacent","AB","1","2","R.jpg","O.jpg","1","1","1","",""
"","feedback","","html-keyboard-response","582","585793","0.0-1.0-789.0-0.0","0","0","12066","","null","","","null","87","","","","","","","","","","","","","","","",""
