"success","ttype","start_time","trial_type","trial_index","time_elapsed","internal_node_id","warning","missed_checkup","PID","view_history","rt","responses","repeat_instructions","key_press","index","keypress_isi","keypress_S2","block","trial_num","phase","group_type","pair_type","S1_stim","S2_stim","S1_img","S2_img","S1_chosen","S1_higher","accuracy","keypress_iti","total_bonus_tally"
"true","full_screen","d04132023hr1537","fullscreen","0","17528","0.0-0.0","0","0","65425","","","","","","","","","","","","","","","","","","","","","",""
"","instructions","","instructions","1","70225","0.0-1.0-0.0-0.0","0","0","65425","[{""page_index"":0,""viewing_time"":7149},{""page_index"":1,""viewing_time"":33373},{""page_index"":2,""viewing_time"":10240},{""page_index"":3,""viewing_time"":1933}]","52695","","","","","","","","","","","","","","","","","","","",""
"","comprehension_check","","survey-multi-choice","2","102028","0.0-1.0-0.0-1.0","0","0","65425","","31800","{""Q0"":""True"",""Q1"":""D"",""Q2"":""Once the second image appears and while the screen 'MAKE A CHOICE' is shown"",""Q3"":""Green mark"",""Q4"":""either D or K""}","1","","","","","","","","","","","","","","","","","",""
"","missed_instruction_checkup","","html-keyboard-response","3","105532","0.0-1.0-0.0-2.0-0.0","0","1","65425","","3502","","","32","","","","","","","","","","","","","","","","",""
"","instructions","","instructions","4","129461","0.0-1.0-0.1-0.1","0","0","65425","[{""page_index"":0,""viewing_time"":2278},{""page_index"":1,""viewing_time"":18154},{""page_index"":2,""viewing_time"":2146},{""page_index"":3,""viewing_time"":1350}]","23928","","","","","","","","","","","","","","","","","","","",""
"","comprehension_check","","survey-multi-choice","5","146963","0.0-1.0-0.1-1.1","0","0","65425","","17499","{""Q0"":""True"",""Q1"":""K"",""Q2"":""Once the second image appears and while the screen 'MAKE A CHOICE' is shown"",""Q3"":""Green mark"",""Q4"":""either D or K""}","0","","","","","","","","","","","","","","","","","",""
"","start_exp","","html-keyboard-response","6","151277","0.0-1.0-1.0","0","0","65425","","4313","","","32","","","","","","","","","","","","","","","","",""
"","S1","","html-keyboard-response","7","151531","0.0-1.0-2.0","0","0","65425","","null","","","null","0","","","","","","","","","","","","","","","",""
"","ISI","","html-keyboard-response","8","152533","0.0-1.0-3.0","0","0","65425","","null","","","null","0","NaN","","","","","","","","","","","","","","",""
"","S2","","html-keyboard-response","9","152786","0.0-1.0-4.0","0","0","65425","","null","","","null","0","","NaN","","","","","","","","","","","","","",""
"","response","","html-keyboard-response","10","153372","0.0-1.0-5.0-0.0","0","0","65425","","584","","","75","0","","","1","0","training","adjacent","CD","3","4","N.jpg","P.jpg","1","1","1","",""
"","feedback","","html-keyboard-response","11","154376","0.0-1.0-6.0-0.0","0","0","65425","","null","","","null","0","","","","","","","","","","","","","","","",""
"","ITI","","html-keyboard-response","12","155379","0.0-1.0-9.0","0","0","65425","","null","","","null","0","","","","","","","","","","","","","","","NaN",""
"","S1","","html-keyboard-response","13","155647","0.0-1.0-11.0","0","0","65425","","null","","","null","1","","","","","","","","","","","","","","","",""
"","ISI","","html-keyboard-response","14","156650","0.0-1.0-12.0","0","0","65425","","null","","","null","1","NaN","","","","","","","","","","","","","","",""
"","S2","","html-keyboard-response","15","156903","0.0-1.0-13.0","0","0","65425","","null","","","null","1","","NaN","","","","","","","","","","","","","",""
"","response","","html-keyboard-response","16","157255","0.0-1.0-14.0-0.0","0","0","65425","","351","","","75","1","","","1","1","training","adjacent","DE","4","5","P.jpg","Q.jpg","1","1","1","",""
"","feedback","","html-keyboard-response","17","158258","0.0-1.0-15.0-0.0","0","0","65425","","null","","","null","1","","","","","","","","","","","","","","","",""
"","ITI","","html-keyboard-response","18","159260","0.0-1.0-18.0","0","0","65425","","null","","","null","1","","","","","","","","","","","","","","","NaN",""
"","S1","","html-keyboard-response","19","159513","0.0-1.0-20.0","0","0","65425","","null","","","null","2","","","","","","","","","","","","","","","",""
"","ISI","","html-keyboard-response","20","160515","0.0-1.0-21.0","0","0","65425","","null","","","null","2","NaN","","","","","","","","","","","","","","",""
"","S2","","html-keyboard-response","21","160744","0.0-1.0-22.0","0","0","65425","","227","","","75","2","","k","1","2","training","adjacent","DC","4","3","P.jpg","N.jpg","1","0","0","",""
"","feedback","","html-keyboard-response","22","161748","0.0-1.0-24.0-0.0","0","0","65425","","null","","","null","2","","","","","","","","","","","","","","","",""
"","time_out","","html-keyboard-response","23","163751","0.0-1.0-26.0-0.0","0","0","65425","","null","","","null","2","","","","","","","","","","","","","","","",""
"","ITI","","html-keyboard-response","24","164754","0.0-1.0-27.0","0","0","65425","","null","","","null","2","","","","","","","","","","","","","","","NaN",""
"","S1","","html-keyboard-response","25","165006","0.0-1.0-29.0","0","0","65425","","null","","","null","3","","","","","","","","","","","","","","","",""
"","ISI","","html-keyboard-response","26","166009","0.0-1.0-30.0","0","0","65425","","null","","","null","3","NaN","","","","","","","","","","","","","","",""
"","S2","","html-keyboard-response","27","166262","0.0-1.0-31.0","0","0","65425","","null","","","null","3","","NaN","","","","","","","","","","","","","",""
"","response","","html-keyboard-response","28","166570","0.0-1.0-32.0-0.0","0","0","65425","","307","","","68","3","","","1","3","training","adjacent","BC","2","3","R.jpg","N.jpg","0","1","0","",""
"","feedback","","html-keyboard-response","29","167573","0.0-1.0-33.0-0.0","0","0","65425","","null","","","null","3","","","","","","","","","","","","","","","",""
"","time_out","","html-keyboard-response","30","169575","0.0-1.0-35.0-0.0","0","0","65425","","null","","","null","3","","","","","","","","","","","","","","","",""
"","ITI","","html-keyboard-response","31","170578","0.0-1.0-36.0","0","0","65425","","null","","","null","3","","","","","","","","","","","","","","","NaN",""
"","S1","","html-keyboard-response","32","170830","0.0-1.0-38.0","0","0","65425","","null","","","null","4","","","","","","","","","","","","","","","",""
"","ISI","","html-keyboard-response","33","171833","0.0-1.0-39.0","0","0","65425","","null","","","null","4","NaN","","","","","","","","","","","","","","",""
"","S2","","html-keyboard-response","34","172087","0.0-1.0-40.0","0","0","65425","","null","","","null","4","","NaN","","","","","","","","","","","","","",""
"","response","","html-keyboard-response","35","172450","0.0-1.0-41.0-0.0","0","0","65425","","362","","","75","4","","","1","4","training","adjacent","DC","4","3","P.jpg","N.jpg","1","0","0","",""
"","feedback","","html-keyboard-response","36","173453","0.0-1.0-42.0-0.0","0","0","65425","","null","","","null","4","","","","","","","","","","","","","","","",""
"","time_out","","html-keyboard-response","37","175456","0.0-1.0-44.0-0.0","0","0","65425","","null","","","null","4","","","","","","","","","","","","","","","",""
"","ITI","","html-keyboard-response","38","176458","0.0-1.0-45.0","0","0","65425","","null","","","null","4","","","","","","","","","","","","","","","NaN",""
"","S1","","html-keyboard-response","39","176711","0.0-1.0-47.0","0","0","65425","","null","","","null","5","","","","","","","","","","","","","","","",""
"","ISI","","html-keyboard-response","40","177714","0.0-1.0-48.0","0","0","65425","","null","","","null","5","NaN","","","","","","","","","","","","","","",""
"","S2","","html-keyboard-response","41","177966","0.0-1.0-49.0","0","0","65425","","null","","","null","5","","NaN","","","","","","","","","","","","","",""
"","response","","html-keyboard-response","42","178349","0.0-1.0-50.0-0.0","0","0","65425","","382","","","75","5","","","1","5","training","adjacent","BC","2","3","R.jpg","N.jpg","1","1","1","",""
"","feedback","","html-keyboard-response","43","179351","0.0-1.0-51.0-0.0","0","0","65425","","null","","","null","5","","","","","","","","","","","","","","","",""
"","ITI","","html-keyboard-response","44","180354","0.0-1.0-54.0","0","0","65425","","null","","","null","5","","","","","","","","","","","","","","","NaN",""
"","S1","","html-keyboard-response","45","180607","0.0-1.0-56.0","0","0","65425","","null","","","null","6","","","","","","","","","","","","","","","",""
"","ISI","","html-keyboard-response","46","181610","0.0-1.0-57.0","0","0","65425","","null","","","null","6","NaN","","","","","","","","","","","","","","",""
"","S2","","html-keyboard-response","47","181863","0.0-1.0-58.0","0","0","65425","","null","","","null","6","","NaN","","","","","","","","","","","","","",""
"","response","","html-keyboard-response","48","182228","0.0-1.0-59.0-0.0","0","0","65425","","364","","","68","6","","","1","6","training","adjacent","FE","6","5","L.jpg","Q.jpg","0","0","1","",""
"","feedback","","html-keyboard-response","49","183231","0.0-1.0-60.0-0.0","0","0","65425","","null","","","null","6","","","","","","","","","","","","","","","",""
"","ITI","","html-keyboard-response","50","184234","0.0-1.0-63.0","0","0","65425","","null","","","null","6","","","","","","","","","","","","","","","NaN",""
"","S1","","html-keyboard-response","51","184488","0.0-1.0-65.0","0","0","65425","","null","","","null","7","","","","","","","","","","","","","","","",""
"","ISI","","html-keyboard-response","52","185492","0.0-1.0-66.0","0","0","65425","","null","","","null","7","NaN","","","","","","","","","","","","","","",""
"","S2","","html-keyboard-response","53","185745","0.0-1.0-67.0","0","0","65425","","null","","","null","7","","NaN","","","","","","","","","","","","","",""
"","response","","html-keyboard-response","54","186217","0.0-1.0-68.0-0.0","0","0","65425","","471","","","68","7","","","1","7","training","adjacent","CB","3","2","N.jpg","R.jpg","0","0","1","",""
"","feedback","","html-keyboard-response","55","187219","0.0-1.0-69.0-0.0","0","0","65425","","null","","","null","7","","","","","","","","","","","","","","","",""
"","ITI","","html-keyboard-response","56","188222","0.0-1.0-72.0","0","0","65425","","null","","","null","7","","","","","","","","","","","","","","","NaN",""
"","S1","","html-keyboard-response","57","188474","0.0-1.0-74.0","0","0","65425","","null","","","null","8","","","","","","","","","","","","","","","",""
"","ISI","","html-keyboard-response","58","189477","0.0-1.0-75.0","0","0","65425","","null","","","null","8","NaN","","","","","","","","","","","","","","",""
"","S2","","html-keyboard-response","59","189730","0.0-1.0-76.0","0","0","65425","","null","","","null","8","","NaN","","","","","","","","","","","","","",""
"","response","","html-keyboard-response","60","190119","0.0-1.0-77.0-0.0","0","0","65425","","388","","","68","8","","","1","8","training","adjacent","AB","1","2","M.jpg","R.jpg","0","1","0","",""
"","feedback","","html-keyboard-response","61","191122","0.0-1.0-78.0-0.0","0","0","65425","","null","","","null","8","","","","","","","","","","","","","","","",""
"","time_out","","html-keyboard-response","62","193124","0.0-1.0-80.0-0.0","0","0","65425","","null","","","null","8","","","","","","","","","","","","","","","",""
"","ITI","","html-keyboard-response","63","194126","0.0-1.0-81.0","0","0","65425","","null","","","null","8","","","","","","","","","","","","","","","NaN",""
"","S1","","html-keyboard-response","64","194379","0.0-1.0-83.0","0","0","65425","","null","","","null","9","","","","","","","","","","","","","","","",""
"","ISI","","html-keyboard-response","65","195382","0.0-1.0-84.0","0","0","65425","","null","","","null","9","NaN","","","","","","","","","","","","","","",""
"","S2","","html-keyboard-response","66","195635","0.0-1.0-85.0","0","0","65425","","null","","","null","9","","NaN","","","","","","","","","","","","","",""
"","response","","html-keyboard-response","67","195919","0.0-1.0-86.0-0.0","0","0","65425","","282","","","75","9","","","1","9","training","adjacent","BA","2","1","R.jpg","M.jpg","1","0","0","",""
"","feedback","","html-keyboard-response","68","196922","0.0-1.0-87.0-0.0","0","0","65425","","null","","","null","9","","","","","","","","","","","","","","","",""
"","time_out","","html-keyboard-response","69","198924","0.0-1.0-89.0-0.0","0","0","65425","","null","","","null","9","","","","","","","","","","","","","","","",""
"","ITI","","html-keyboard-response","70","199927","0.0-1.0-90.0","0","0","65425","","null","","","null","9","","","","","","","","","","","","","","","NaN",""
"","S1","","html-keyboard-response","71","200180","0.0-1.0-92.0","0","0","65425","","null","","","null","10","","","","","","","","","","","","","","","",""
"","ISI","","html-keyboard-response","72","201183","0.0-1.0-93.0","0","0","65425","","null","","","null","10","NaN","","","","","","","","","","","","","","",""
"","S2","","html-keyboard-response","73","201436","0.0-1.0-94.0","0","0","65425","","null","","","null","10","","NaN","","","","","","","","","","","","","",""
"","response","","html-keyboard-response","74","201889","0.0-1.0-95.0-0.0","0","0","65425","","451","","","75","10","","","1","10","training","adjacent","GF","7","6","O.jpg","L.jpg","1","0","0","",""
"","feedback","","html-keyboard-response","75","202891","0.0-1.0-96.0-0.0","0","0","65425","","null","","","null","10","","","","","","","","","","","","","","","",""
"","time_out","","html-keyboard-response","76","204894","0.0-1.0-98.0-0.0","0","0","65425","","null","","","null","10","","","","","","","","","","","","","","","",""
"","ITI","","html-keyboard-response","77","205896","0.0-1.0-99.0","0","0","65425","","null","","","null","10","","","","","","","","","","","","","","","NaN",""
"","S1","","html-keyboard-response","78","206149","0.0-1.0-101.0","0","0","65425","","null","","","null","11","","","","","","","","","","","","","","","",""
"","ISI","","html-keyboard-response","79","207151","0.0-1.0-102.0","0","0","65425","","null","","","null","11","NaN","","","","","","","","","","","","","","",""
"","S2","","html-keyboard-response","80","207403","0.0-1.0-103.0","0","0","65425","","null","","","null","11","","NaN","","","","","","","","","","","","","",""
"","response","","html-keyboard-response","81","207911","0.0-1.0-104.0-0.0","0","0","65425","","507","","","68","11","","","1","11","training","adjacent","FE","6","5","L.jpg","Q.jpg","0","0","1","",""
"","feedback","","html-keyboard-response","82","208926","0.0-1.0-105.0-0.0","0","0","65425","","null","","","null","11","","","","","","","","","","","","","","","",""
"","ITI","","html-keyboard-response","83","209930","0.0-1.0-108.0","0","0","65425","","null","","","null","11","","","","","","","","","","","","","","","NaN",""
"","S1","","html-keyboard-response","84","210183","0.0-1.0-110.0","0","0","65425","","null","","","null","12","","","","","","","","","","","","","","","",""
"","ISI","","html-keyboard-response","85","211186","0.0-1.0-111.0","0","0","65425","","null","","","null","12","NaN","","","","","","","","","","","","","","",""
"","S2","","html-keyboard-response","86","211438","0.0-1.0-112.0","0","0","65425","","null","","","null","12","","NaN","","","","","","","","","","","","","",""
"","response","","html-keyboard-response","87","211660","0.0-1.0-113.0-0.0","0","0","65425","","221","","","68","12","","","1","12","training","adjacent","FG","6","7","L.jpg","O.jpg","0","1","0","",""
"","feedback","","html-keyboard-response","88","212662","0.0-1.0-114.0-0.0","0","0","65425","","null","","","null","12","","","","","","","","","","","","","","","",""
"","time_out","","html-keyboard-response","89","214665","0.0-1.0-116.0-0.0","0","0","65425","","null","","","null","12","","","","","","","","","","","","","","","",""
"","ITI","","html-keyboard-response","90","215668","0.0-1.0-117.0","0","0","65425","","null","","","null","12","","","","","","","","","","","","","","","NaN",""
"","S1","","html-keyboard-response","91","215924","0.0-1.0-119.0","0","0","65425","","null","","","null","13","","","","","","","","","","","","","","","",""
"","ISI","","html-keyboard-response","92","216926","0.0-1.0-120.0","0","0","65425","","null","","","null","13","NaN","","","","","","","","","","","","","","",""
"","S2","","html-keyboard-response","93","217179","0.0-1.0-121.0","0","0","65425","","null","","","null","13","","NaN","","","","","","","","","","","","","",""
"","response","","html-keyboard-response","94","217422","0.0-1.0-122.0-0.0","0","0","65425","","242","","","75","13","","","1","13","training","adjacent","ED","5","4","Q.jpg","P.jpg","1","0","0","",""
"","feedback","","html-keyboard-response","95","218424","0.0-1.0-123.0-0.0","0","0","65425","","null","","","null","13","","","","","","","","","","","","","","","",""
"","time_out","","html-keyboard-response","96","220427","0.0-1.0-125.0-0.0","0","0","65425","","null","","","null","13","","","","","","","","","","","","","","","",""
"","ITI","","html-keyboard-response","97","221430","0.0-1.0-126.0","0","0","65425","","null","","","null","13","","","","","","","","","","","","","","","NaN",""
"","S1","","html-keyboard-response","98","221683","0.0-1.0-128.0","0","0","65425","","null","","","null","14","","","","","","","","","","","","","","","",""
"","ISI","","html-keyboard-response","99","222686","0.0-1.0-129.0","0","0","65425","","null","","","null","14","NaN","","","","","","","","","","","","","","",""
"","S2","","html-keyboard-response","100","222940","0.0-1.0-130.0","0","0","65425","","null","","","null","14","","NaN","","","","","","","","","","","","","",""
"","response","","html-keyboard-response","101","223620","0.0-1.0-131.0-0.0","0","0","65425","","679","","","75","14","","","1","14","training","adjacent","EF","5","6","Q.jpg","L.jpg","1","1","1","",""
"","feedback","","html-keyboard-response","102","224623","0.0-1.0-132.0-0.0","0","0","65425","","null","","","null","14","","","","","","","","","","","","","","","",""
"","ITI","","html-keyboard-response","103","225626","0.0-1.0-135.0","0","0","65425","","null","","","null","14","","","","","","","","","","","","","","","NaN",""
"","S1","","html-keyboard-response","104","225878","0.0-1.0-137.0","0","0","65425","","null","","","null","15","","","","","","","","","","","","","","","",""
"","ISI","","html-keyboard-response","105","226880","0.0-1.0-138.0","0","0","65425","","null","","","null","15","NaN","","","","","","","","","","","","","","",""
"","S2","","html-keyboard-response","106","227133","0.0-1.0-139.0","0","0","65425","","null","","","null","15","","NaN","","","","","","","","","","","","","",""
"","response","","html-keyboard-response","107","227663","0.0-1.0-140.0-0.0","0","0","65425","","529","","","68","15","","","1","15","training","adjacent","GF","7","6","O.jpg","L.jpg","0","0","1","",""
"","feedback","","html-keyboard-response","108","228667","0.0-1.0-141.0-0.0","0","0","65425","","null","","","null","15","","","","","","","","","","","","","","","",""
"","ITI","","html-keyboard-response","109","229669","0.0-1.0-144.0","0","0","65425","","null","","","null","15","","","","","","","","","","","","","","","NaN",""
"","S1","","html-keyboard-response","110","229921","0.0-1.0-146.0","0","0","65425","","null","","","null","16","","","","","","","","","","","","","","","",""
"","ISI","","html-keyboard-response","111","230923","0.0-1.0-147.0","0","0","65425","","null","","","null","16","NaN","","","","","","","","","","","","","","",""
"","S2","","html-keyboard-response","112","231176","0.0-1.0-148.0","0","0","65425","","null","","","null","16","","NaN","","","","","","","","","","","","","",""
"","response","","html-keyboard-response","113","231895","0.0-1.0-149.0-0.0","0","0","65425","","717","","","68","16","","","1","16","training","adjacent","FE","6","5","L.jpg","Q.jpg","0","0","1","",""
"","feedback","","html-keyboard-response","114","232898","0.0-1.0-150.0-0.0","0","0","65425","","null","","","null","16","","","","","","","","","","","","","","","",""
"","ITI","","html-keyboard-response","115","233901","0.0-1.0-153.0","0","0","65425","","null","","","null","16","","","","","","","","","","","","","","","NaN",""
"","S1","","html-keyboard-response","116","234153","0.0-1.0-155.0","0","0","65425","","null","","","null","17","","","","","","","","","","","","","","","",""
"","ISI","","html-keyboard-response","117","235155","0.0-1.0-156.0","0","0","65425","","null","","","null","17","NaN","","","","","","","","","","","","","","",""
"","S2","","html-keyboard-response","118","235408","0.0-1.0-157.0","0","0","65425","","null","","","null","17","","NaN","","","","","","","","","","","","","",""
"","response","","html-keyboard-response","119","235852","0.0-1.0-158.0-0.0","0","0","65425","","442","","","75","17","","","1","17","training","adjacent","AB","1","2","M.jpg","R.jpg","1","1","1","",""
"","feedback","","html-keyboard-response","120","236854","0.0-1.0-159.0-0.0","0","0","65425","","null","","","null","17","","","","","","","","","","","","","","","",""
"","ITI","","html-keyboard-response","121","237857","0.0-1.0-162.0","0","0","65425","","null","","","null","17","","","","","","","","","","","","","","","NaN",""
"","S1","","html-keyboard-response","122","238109","0.0-1.0-164.0","0","0","65425","","null","","","null","18","","","","","","","","","","","","","","","",""
"","ISI","","html-keyboard-response","123","239111","0.0-1.0-165.0","0","0","65425","","null","","","null","18","NaN","","","","","","","","","","","","","","",""
"","S2","","html-keyboard-response","124","239364","0.0-1.0-166.0","0","0","65425","","null","","","null","18","","NaN","","","","","","","","","","","","","",""
"","response","","html-keyboard-response","125","239717","0.0-1.0-167.0-0.0","0","0","65425","","352","","","75","18","","","1","18","training","adjacent","EF","5","6","Q.jpg","L.jpg","1","1","1","",""
"","feedback","","html-keyboard-response","126","240719","0.0-1.0-168.0-0.0","0","0","65425","","null","","","null","18","","","","","","","","","","","","","","","",""
"","ITI","","html-keyboard-response","127","241721","0.0-1.0-171.0","0","0","65425","","null","","","null","18","","","","","","","","","","","","","","","NaN",""
"","S1","","html-keyboard-response","128","241974","0.0-1.0-173.0","0","0","65425","","null","","","null","19","","","","","","","","","","","","","","","",""
"","ISI","","html-keyboard-response","129","242977","0.0-1.0-174.0","0","0","65425","","null","","","null","19","NaN","","","","","","","","","","","","","","",""
"","S2","","html-keyboard-response","130","243229","0.0-1.0-175.0","0","0","65425","","null","","","null","19","","NaN","","","","","","","","","","","","","",""
"","response","","html-keyboard-response","131","244084","0.0-1.0-176.0-0.0","0","0","65425","","854","","","68","19","","","1","19","training","adjacent","FE","6","5","L.jpg","Q.jpg","0","0","1","",""
"","feedback","","html-keyboard-response","132","245086","0.0-1.0-177.0-0.0","0","0","65425","","null","","","null","19","","","","","","","","","","","","","","","",""
"","ITI","","html-keyboard-response","133","246088","0.0-1.0-180.0","0","0","65425","","null","","","null","19","","","","","","","","","","","","","","","NaN",""
"","S1","","html-keyboard-response","134","246341","0.0-1.0-182.0","0","0","65425","","null","","","null","20","","","","","","","","","","","","","","","",""
"","ISI","","html-keyboard-response","135","247344","0.0-1.0-183.0","0","0","65425","","null","","","null","20","NaN","","","","","","","","","","","","","","",""
"","S2","","html-keyboard-response","136","247597","0.0-1.0-184.0","0","0","65425","","null","","","null","20","","NaN","","","","","","","","","","","","","",""
"","response","","html-keyboard-response","137","248325","0.0-1.0-185.0-0.0","0","0","65425","","728","","","68","20","","","1","20","training","adjacent","FG","6","7","L.jpg","O.jpg","0","1","0","",""
"","feedback","","html-keyboard-response","138","249328","0.0-1.0-186.0-0.0","0","0","65425","","null","","","null","20","","","","","","","","","","","","","","","",""
"","time_out","","html-keyboard-response","139","251331","0.0-1.0-188.0-0.0","0","0","65425","","null","","","null","20","","","","","","","","","","","","","","","",""
"","ITI","","html-keyboard-response","140","252334","0.0-1.0-189.0","0","0","65425","","null","","","null","20","","","","","","","","","","","","","","","NaN",""
"","S1","","html-keyboard-response","141","252586","0.0-1.0-191.0","0","0","65425","","null","","","null","21","","","","","","","","","","","","","","","",""
"","ISI","","html-keyboard-response","142","253589","0.0-1.0-192.0","0","0","65425","","null","","","null","21","NaN","","","","","","","","","","","","","","",""
"","S2","","html-keyboard-response","143","253842","0.0-1.0-193.0","0","0","65425","","null","","","null","21","","NaN","","","","","","","","","","","","","",""
"","response","","html-keyboard-response","144","254327","0.0-1.0-194.0-0.0","0","0","65425","","483","","","75","21","","","1","21","training","adjacent","CD","3","4","N.jpg","P.jpg","1","1","1","",""
"","feedback","","html-keyboard-response","145","255329","0.0-1.0-195.0-0.0","0","0","65425","","null","","","null","21","","","","","","","","","","","","","","","",""
"","ITI","","html-keyboard-response","146","256331","0.0-1.0-198.0","0","0","65425","","null","","","null","21","","","","","","","","","","","","","","","NaN",""
"","S1","","html-keyboard-response","147","256585","0.0-1.0-200.0","0","0","65425","","null","","","null","22","","","","","","","","","","","","","","","",""
"","ISI","","html-keyboard-response","148","257588","0.0-1.0-201.0","0","0","65425","","null","","","null","22","NaN","","","","","","","","","","","","","","",""
"","S2","","html-keyboard-response","149","257841","0.0-1.0-202.0","0","0","65425","","null","","","null","22","","NaN","","","","","","","","","","","","","",""
"","response","","html-keyboard-response","150","258108","0.0-1.0-203.0-0.0","0","0","65425","","265","","","75","22","","","1","22","training","adjacent","DC","4","3","P.jpg","N.jpg","1","0","0","",""
"","feedback","","html-keyboard-response","151","259110","0.0-1.0-204.0-0.0","0","0","65425","","null","","","null","22","","","","","","","","","","","","","","","",""
"","time_out","","html-keyboard-response","152","261111","0.0-1.0-206.0-0.0","0","0","65425","","null","","","null","22","","","","","","","","","","","","","","","",""
"","ITI","","html-keyboard-response","153","262113","0.0-1.0-207.0","0","0","65425","","null","","","null","22","","","","","","","","","","","","","","","NaN",""
"","S1","","html-keyboard-response","154","262366","0.0-1.0-209.0","0","0","65425","","null","","","null","23","","","","","","","","","","","","","","","",""
"","ISI","","html-keyboard-response","155","263367","0.0-1.0-210.0","0","0","65425","","null","","","null","23","NaN","","","","","","","","","","","","","","",""
"","S2","","html-keyboard-response","156","263619","0.0-1.0-211.0","0","0","65425","","null","","","null","23","","NaN","","","","","","","","","","","","","",""
"","response","","html-keyboard-response","157","263962","0.0-1.0-212.0-0.0","0","0","65425","","342","","","68","23","","","1","23","training","adjacent","ED","5","4","Q.jpg","P.jpg","0","0","1","",""
"","feedback","","html-keyboard-response","158","264966","0.0-1.0-213.0-0.0","0","0","65425","","null","","","null","23","","","","","","","","","","","","","","","",""
"","ITI","","html-keyboard-response","159","265968","0.0-1.0-216.0","0","0","65425","","null","","","null","23","","","","","","","","","","","","","","","NaN",""
"","S1","","html-keyboard-response","160","266220","0.0-1.0-218.0","0","0","65425","","null","","","null","24","","","","","","","","","","","","","","","",""
"","ISI","","html-keyboard-response","161","267223","0.0-1.0-219.0","0","0","65425","","null","","","null","24","NaN","","","","","","","","","","","","","","",""
"","S2","","html-keyboard-response","162","267489","0.0-1.0-220.0","0","0","65425","","null","","","null","24","","NaN","","","","","","","","","","","","","",""
"","response","","html-keyboard-response","163","267935","0.0-1.0-221.0-0.0","0","0","65425","","445","","","75","24","","","1","24","training","adjacent","DE","4","5","P.jpg","Q.jpg","1","1","1","",""
"","feedback","","html-keyboard-response","164","268937","0.0-1.0-222.0-0.0","0","0","65425","","null","","","null","24","","","","","","","","","","","","","","","",""
"","ITI","","html-keyboard-response","165","269940","0.0-1.0-225.0","0","0","65425","","null","","","null","24","","","","","","","","","","","","","","","NaN",""
"","S1","","html-keyboard-response","166","270193","0.0-1.0-227.0","0","0","65425","","null","","","null","25","","","","","","","","","","","","","","","",""
"","ISI","","html-keyboard-response","167","271196","0.0-1.0-228.0","0","0","65425","","null","","","null","25","NaN","","","","","","","","","","","","","","",""
"","S2","","html-keyboard-response","168","271449","0.0-1.0-229.0","0","0","65425","","null","","","null","25","","NaN","","","","","","","","","","","","","",""
"","response","","html-keyboard-response","169","271774","0.0-1.0-230.0-0.0","0","0","65425","","323","","","68","25","","","1","25","training","adjacent","ED","5","4","Q.jpg","P.jpg","0","0","1","",""
"","feedback","","html-keyboard-response","170","272776","0.0-1.0-231.0-0.0","0","0","65425","","null","","","null","25","","","","","","","","","","","","","","","",""
"","ITI","","html-keyboard-response","171","273778","0.0-1.0-234.0","0","0","65425","","null","","","null","25","","","","","","","","","","","","","","","NaN",""
"","S1","","html-keyboard-response","172","274030","0.0-1.0-236.0","0","0","65425","","null","","","null","26","","","","","","","","","","","","","","","",""
"","ISI","","html-keyboard-response","173","275032","0.0-1.0-237.0","0","0","65425","","null","","","null","26","NaN","","","","","","","","","","","","","","",""
"","S2","","html-keyboard-response","174","275284","0.0-1.0-238.0","0","0","65425","","null","","","null","26","","NaN","","","","","","","","","","","","","",""
"","response","","html-keyboard-response","175","275588","0.0-1.0-239.0-0.0","0","0","65425","","302","","","75","26","","","1","26","training","adjacent","DE","4","5","P.jpg","Q.jpg","1","1","1","",""
"","feedback","","html-keyboard-response","176","276590","0.0-1.0-240.0-0.0","0","0","65425","","null","","","null","26","","","","","","","","","","","","","","","",""
"","ITI","","html-keyboard-response","177","277593","0.0-1.0-243.0","0","0","65425","","null","","","null","26","","","","","","","","","","","","","","","NaN",""
"","S1","","html-keyboard-response","178","277845","0.0-1.0-245.0","0","0","65425","","null","","","null","27","","","","","","","","","","","","","","","",""
"","ISI","","html-keyboard-response","179","278846","0.0-1.0-246.0","0","0","65425","","null","","","null","27","NaN","","","","","","","","","","","","","","",""
"","S2","","html-keyboard-response","180","279099","0.0-1.0-247.0","0","0","65425","","null","","","null","27","","NaN","","","","","","","","","","","","","",""
"","response","","html-keyboard-response","181","279532","0.0-1.0-248.0-0.0","0","0","65425","","432","","","68","27","","","1","27","training","adjacent","CB","3","2","N.jpg","R.jpg","0","0","1","",""
"","feedback","","html-keyboard-response","182","280534","0.0-1.0-249.0-0.0","0","0","65425","","null","","","null","27","","","","","","","","","","","","","","","",""
"","ITI","","html-keyboard-response","183","281536","0.0-1.0-252.0","0","0","65425","","null","","","null","27","","","","","","","","","","","","","","","NaN",""
"","S1","","html-keyboard-response","184","281789","0.0-1.0-254.0","0","0","65425","","null","","","null","28","","","","","","","","","","","","","","","",""
"","ISI","","html-keyboard-response","185","282791","0.0-1.0-255.0","0","0","65425","","null","","","null","28","NaN","","","","","","","","","","","","","","",""
"","S2","","html-keyboard-response","186","283043","0.0-1.0-256.0","0","0","65425","","null","","","null","28","","NaN","","","","","","","","","","","","","",""
"","response","","html-keyboard-response","187","283420","0.0-1.0-257.0-0.0","0","0","65425","","375","","","75","28","","","1","28","training","adjacent","BA","2","1","R.jpg","M.jpg","1","0","0","",""
"","feedback","","html-keyboard-response","188","284422","0.0-1.0-258.0-0.0","0","0","65425","","null","","","null","28","","","","","","","","","","","","","","","",""
"","time_out","","html-keyboard-response","189","286424","0.0-1.0-260.0-0.0","0","0","65425","","null","","","null","28","","","","","","","","","","","","","","","",""
"","ITI","","html-keyboard-response","190","287426","0.0-1.0-261.0","0","0","65425","","null","","","null","28","","","","","","","","","","","","","","","NaN",""
"","S1","","html-keyboard-response","191","287679","0.0-1.0-263.0","0","0","65425","","null","","","null","29","","","","","","","","","","","","","","","",""
"","ISI","","html-keyboard-response","192","288681","0.0-1.0-264.0","0","0","65425","","null","","","null","29","NaN","","","","","","","","","","","","","","",""
"","S2","","html-keyboard-response","193","288933","0.0-1.0-265.0","0","0","65425","","null","","","null","29","","NaN","","","","","","","","","","","","","",""
"","response","","html-keyboard-response","194","289404","0.0-1.0-266.0-0.0","0","0","65425","","469","","","75","29","","","1","29","training","adjacent","CB","3","2","N.jpg","R.jpg","1","0","0","",""
"","feedback","","html-keyboard-response","195","290406","0.0-1.0-267.0-0.0","0","0","65425","","null","","","null","29","","","","","","","","","","","","","","","",""
"","time_out","","html-keyboard-response","196","292408","0.0-1.0-269.0-0.0","0","0","65425","","null","","","null","29","","","","","","","","","","","","","","","",""
"","ITI","","html-keyboard-response","197","293410","0.0-1.0-270.0","0","0","65425","","null","","","null","29","","","","","","","","","","","","","","","NaN",""
"","S1","","html-keyboard-response","198","293669","0.0-1.0-272.0","0","0","65425","","null","","","null","30","","","","","","","","","","","","","","","",""
"","ISI","","html-keyboard-response","199","294678","0.0-1.0-273.0","0","0","65425","","null","","","null","30","NaN","","","","","","","","","","","","","","",""
"","S2","","html-keyboard-response","200","294931","0.0-1.0-274.0","0","0","65425","","null","","","null","30","","NaN","","","","","","","","","","","","","",""
"","response","","html-keyboard-response","201","296027","0.0-1.0-275.0-0.0","0","0","65425","","1095","","","75","30","","","1","30","training","adjacent","DE","4","5","P.jpg","Q.jpg","1","1","1","",""
"","feedback","","html-keyboard-response","202","297029","0.0-1.0-276.0-0.0","0","0","65425","","null","","","null","30","","","","","","","","","","","","","","","",""
"","ITI","","html-keyboard-response","203","298031","0.0-1.0-279.0","0","0","65425","","null","","","null","30","","","","","","","","","","","","","","","NaN",""
"","S1","","html-keyboard-response","204","298284","0.0-1.0-281.0","0","0","65425","","null","","","null","31","","","","","","","","","","","","","","","",""
"","ISI","","html-keyboard-response","205","299286","0.0-1.0-282.0","0","0","65425","","null","","","null","31","NaN","","","","","","","","","","","","","","",""
"","S2","","html-keyboard-response","206","299539","0.0-1.0-283.0","0","0","65425","","null","","","null","31","","NaN","","","","","","","","","","","","","",""
"","response","","html-keyboard-response","207","299858","0.0-1.0-284.0-0.0","0","0","65425","","318","","","68","31","","","1","31","training","adjacent","EF","5","6","Q.jpg","L.jpg","0","1","0","",""
"","feedback","","html-keyboard-response","208","300860","0.0-1.0-285.0-0.0","0","0","65425","","null","","","null","31","","","","","","","","","","","","","","","",""
"","time_out","","html-keyboard-response","209","302863","0.0-1.0-287.0-0.0","0","0","65425","","null","","","null","31","","","","","","","","","","","","","","","",""
"","ITI","","html-keyboard-response","210","303864","0.0-1.0-288.0","0","0","65425","","null","","","null","31","","","","","","","","","","","","","","","NaN",""
"","S1","","html-keyboard-response","211","304117","0.0-1.0-290.0","0","0","65425","","null","","","null","32","","","","","","","","","","","","","","","",""
"","ISI","","html-keyboard-response","212","305119","0.0-1.0-291.0","0","0","65425","","null","","","null","32","NaN","","","","","","","","","","","","","","",""
"","S2","","html-keyboard-response","213","305370","0.0-1.0-292.0","0","0","65425","","null","","","null","32","","NaN","","","","","","","","","","","","","",""
"","response","","html-keyboard-response","214","305677","0.0-1.0-293.0-0.0","0","0","65425","","304","","","75","32","","","1","32","training","adjacent","GF","7","6","O.jpg","L.jpg","1","0","0","",""
"","feedback","","html-keyboard-response","215","306678","0.0-1.0-294.0-0.0","0","0","65425","","null","","","null","32","","","","","","","","","","","","","","","",""
"","time_out","","html-keyboard-response","216","308680","0.0-1.0-296.0-0.0","0","0","65425","","null","","","null","32","","","","","","","","","","","","","","","",""
"","ITI","","html-keyboard-response","217","309682","0.0-1.0-297.0","0","0","65425","","null","","","null","32","","","","","","","","","","","","","","","NaN",""
"","S1","","html-keyboard-response","218","309935","0.0-1.0-299.0","0","0","65425","","null","","","null","33","","","","","","","","","","","","","","","",""
"","ISI","","html-keyboard-response","219","310936","0.0-1.0-300.0","0","0","65425","","null","","","null","33","NaN","","","","","","","","","","","","","","",""
"","S2","","html-keyboard-response","220","311189","0.0-1.0-301.0","0","0","65425","","null","","","null","33","","NaN","","","","","","","","","","","","","",""
"","response","","html-keyboard-response","221","311467","0.0-1.0-302.0-0.0","0","0","65425","","277","","","68","33","","","1","33","training","adjacent","AB","1","2","M.jpg","R.jpg","0","1","0","",""
"","feedback","","html-keyboard-response","222","312469","0.0-1.0-303.0-0.0","0","0","65425","","null","","","null","33","","","","","","","","","","","","","","","",""
"","time_out","","html-keyboard-response","223","314472","0.0-1.0-305.0-0.0","0","0","65425","","null","","","null","33","","","","","","","","","","","","","","","",""
"","ITI","","html-keyboard-response","224","315474","0.0-1.0-306.0","0","0","65425","","null","","","null","33","","","","","","","","","","","","","","","NaN",""
"","S1","","html-keyboard-response","225","315726","0.0-1.0-308.0","0","0","65425","","null","","","null","34","","","","","","","","","","","","","","","",""
"","ISI","","html-keyboard-response","226","316728","0.0-1.0-309.0","0","0","65425","","null","","","null","34","NaN","","","","","","","","","","","","","","",""
"","S2","","html-keyboard-response","227","316980","0.0-1.0-310.0","0","0","65425","","null","","","null","34","","NaN","","","","","","","","","","","","","",""
"","response","","html-keyboard-response","228","317211","0.0-1.0-311.0-0.0","0","0","65425","","229","","","75","34","","","1","34","training","adjacent","BA","2","1","R.jpg","M.jpg","1","0","0","",""
"","feedback","","html-keyboard-response","229","318213","0.0-1.0-312.0-0.0","0","0","65425","","null","","","null","34","","","","","","","","","","","","","","","",""
"","time_out","","html-keyboard-response","230","320215","0.0-1.0-314.0-0.0","0","0","65425","","null","","","null","34","","","","","","","","","","","","","","","",""
"","ITI","","html-keyboard-response","231","321219","0.0-1.0-315.0","0","0","65425","","null","","","null","34","","","","","","","","","","","","","","","NaN",""
"","S1","","html-keyboard-response","232","321472","0.0-1.0-317.0","0","0","65425","","null","","","null","35","","","","","","","","","","","","","","","",""
"","ISI","","html-keyboard-response","233","322474","0.0-1.0-318.0","0","0","65425","","null","","","null","35","NaN","","","","","","","","","","","","","","",""
"","S2","","html-keyboard-response","234","322727","0.0-1.0-319.0","0","0","65425","","null","","","null","35","","NaN","","","","","","","","","","","","","",""
"","response","","html-keyboard-response","235","322967","0.0-1.0-320.0-0.0","0","0","65425","","239","","","75","35","","","1","35","training","adjacent","BC","2","3","R.jpg","N.jpg","1","1","1","",""
"","feedback","","html-keyboard-response","236","323969","0.0-1.0-321.0-0.0","0","0","65425","","null","","","null","35","","","","","","","","","","","","","","","",""
"","ITI","","html-keyboard-response","237","324972","0.0-1.0-324.0","0","0","65425","","null","","","null","35","","","","","","","","","","","","","","","NaN",""
"","S1","","html-keyboard-response","238","325225","0.0-1.0-326.0","0","0","65425","","null","","","null","36","","","","","","","","","","","","","","","",""
"","ISI","","html-keyboard-response","239","326227","0.0-1.0-327.0","0","0","65425","","null","","","null","36","NaN","","","","","","","","","","","","","","",""
"","S2","","html-keyboard-response","240","326480","0.0-1.0-328.0","0","0","65425","","null","","","null","36","","NaN","","","","","","","","","","","","","",""
"","response","","html-keyboard-response","241","326897","0.0-1.0-329.0-0.0","0","0","65425","","416","","","75","36","","","1","36","training","adjacent","BC","2","3","R.jpg","N.jpg","1","1","1","",""
"","feedback","","html-keyboard-response","242","327899","0.0-1.0-330.0-0.0","0","0","65425","","null","","","null","36","","","","","","","","","","","","","","","",""
"","ITI","","html-keyboard-response","243","328901","0.0-1.0-333.0","0","0","65425","","null","","","null","36","","","","","","","","","","","","","","","NaN",""
"","S1","","html-keyboard-response","244","329153","0.0-1.0-335.0","0","0","65425","","null","","","null","37","","","","","","","","","","","","","","","",""
"","ISI","","html-keyboard-response","245","330155","0.0-1.0-336.0","0","0","65425","","null","","","null","37","NaN","","","","","","","","","","","","","","",""
"","S2","","html-keyboard-response","246","330407","0.0-1.0-337.0","0","0","65425","","null","","","null","37","","NaN","","","","","","","","","","","","","",""
"","response","","html-keyboard-response","247","330885","0.0-1.0-338.0-0.0","0","0","65425","","476","","","75","37","","","1","37","training","adjacent","ED","5","4","Q.jpg","P.jpg","1","0","0","",""
"","feedback","","html-keyboard-response","248","331888","0.0-1.0-339.0-0.0","0","0","65425","","null","","","null","37","","","","","","","","","","","","","","","",""
"","time_out","","html-keyboard-response","249","333891","0.0-1.0-341.0-0.0","0","0","65425","","null","","","null","37","","","","","","","","","","","","","","","",""
"","ITI","","html-keyboard-response","250","334894","0.0-1.0-342.0","0","0","65425","","null","","","null","37","","","","","","","","","","","","","","","NaN",""
"","S1","","html-keyboard-response","251","335147","0.0-1.0-344.0","0","0","65425","","null","","","null","38","","","","","","","","","","","","","","","",""
"","ISI","","html-keyboard-response","252","336150","0.0-1.0-345.0","0","0","65425","","null","","","null","38","NaN","","","","","","","","","","","","","","",""
"","S2","","html-keyboard-response","253","336403","0.0-1.0-346.0","0","0","65425","","null","","","null","38","","NaN","","","","","","","","","","","","","",""
"","response","","html-keyboard-response","254","336705","0.0-1.0-347.0-0.0","0","0","65425","","301","","","68","38","","","1","38","training","adjacent","CD","3","4","N.jpg","P.jpg","0","1","0","",""
"","feedback","","html-keyboard-response","255","337707","0.0-1.0-348.0-0.0","0","0","65425","","null","","","null","38","","","","","","","","","","","","","","","",""
"","time_out","","html-keyboard-response","256","339709","0.0-1.0-350.0-0.0","0","0","65425","","null","","","null","38","","","","","","","","","","","","","","","",""
"","ITI","","html-keyboard-response","257","340711","0.0-1.0-351.0","0","0","65425","","null","","","null","38","","","","","","","","","","","","","","","NaN",""
"","S1","","html-keyboard-response","258","340963","0.0-1.0-353.0","0","0","65425","","null","","","null","39","","","","","","","","","","","","","","","",""
"","ISI","","html-keyboard-response","259","341966","0.0-1.0-354.0","0","0","65425","","null","","","null","39","NaN","","","","","","","","","","","","","","",""
"","S2","","html-keyboard-response","260","342218","0.0-1.0-355.0","0","0","65425","","null","","","null","39","","NaN","","","","","","","","","","","","","",""
"","response","","html-keyboard-response","261","342696","0.0-1.0-356.0-0.0","0","0","65425","","477","","","68","39","","","1","39","training","adjacent","FG","6","7","L.jpg","O.jpg","0","1","0","",""
"","feedback","","html-keyboard-response","262","343698","0.0-1.0-357.0-0.0","0","0","65425","","null","","","null","39","","","","","","","","","","","","","","","",""
"","time_out","","html-keyboard-response","263","345700","0.0-1.0-359.0-0.0","0","0","65425","","null","","","null","39","","","","","","","","","","","","","","","",""
"","ITI","","html-keyboard-response","264","346703","0.0-1.0-360.0","0","0","65425","","null","","","null","39","","","","","","","","","","","","","","","NaN",""
"","S1","","html-keyboard-response","265","346955","0.0-1.0-362.0","0","0","65425","","null","","","null","40","","","","","","","","","","","","","","","",""
"","ISI","","html-keyboard-response","266","347957","0.0-1.0-363.0","0","0","65425","","null","","","null","40","NaN","","","","","","","","","","","","","","",""
"","S2","","html-keyboard-response","267","348209","0.0-1.0-364.0","0","0","65425","","null","","","null","40","","NaN","","","","","","","","","","","","","",""
"","response","","html-keyboard-response","268","348573","0.0-1.0-365.0-0.0","0","0","65425","","363","","","75","40","","","1","40","training","adjacent","BA","2","1","R.jpg","M.jpg","1","0","0","",""
"","feedback","","html-keyboard-response","269","349575","0.0-1.0-366.0-0.0","0","0","65425","","null","","","null","40","","","","","","","","","","","","","","","",""
"","time_out","","html-keyboard-response","270","351577","0.0-1.0-368.0-0.0","0","0","65425","","null","","","null","40","","","","","","","","","","","","","","","",""
"","ITI","","html-keyboard-response","271","352580","0.0-1.0-369.0","0","0","65425","","null","","","null","40","","","","","","","","","","","","","","","NaN",""
"","S1","","html-keyboard-response","272","352833","0.0-1.0-371.0","0","0","65425","","null","","","null","41","","","","","","","","","","","","","","","",""
"","ISI","","html-keyboard-response","273","353835","0.0-1.0-372.0","0","0","65425","","null","","","null","41","NaN","","","","","","","","","","","","","","",""
"","S2","","html-keyboard-response","274","354088","0.0-1.0-373.0","0","0","65425","","null","","","null","41","","NaN","","","","","","","","","","","","","",""
"","response","","html-keyboard-response","275","354593","0.0-1.0-374.0-0.0","0","0","65425","","504","","","68","41","","","1","41","training","adjacent","EF","5","6","Q.jpg","L.jpg","0","1","0","",""
"","feedback","","html-keyboard-response","276","355596","0.0-1.0-375.0-0.0","0","0","65425","","null","","","null","41","","","","","","","","","","","","","","","",""
"","time_out","","html-keyboard-response","277","357599","0.0-1.0-377.0-0.0","0","0","65425","","null","","","null","41","","","","","","","","","","","","","","","",""
"","ITI","","html-keyboard-response","278","358601","0.0-1.0-378.0","0","0","65425","","null","","","null","41","","","","","","","","","","","","","","","NaN",""
"","S1","","html-keyboard-response","279","358854","0.0-1.0-380.0","0","0","65425","","null","","","null","42","","","","","","","","","","","","","","","",""
"","ISI","","html-keyboard-response","280","359856","0.0-1.0-381.0","0","0","65425","","null","","","null","42","NaN","","","","","","","","","","","","","","",""
"","S2","","html-keyboard-response","281","360108","0.0-1.0-382.0","0","0","65425","","null","","","null","42","","NaN","","","","","","","","","","","","","",""
"","response","","html-keyboard-response","282","360344","0.0-1.0-383.0-0.0","0","0","65425","","235","","","75","42","","","1","42","training","adjacent","AB","1","2","M.jpg","R.jpg","1","1","1","",""
"","feedback","","html-keyboard-response","283","361346","0.0-1.0-384.0-0.0","0","0","65425","","null","","","null","42","","","","","","","","","","","","","","","",""
"","ITI","","html-keyboard-response","284","362348","0.0-1.0-387.0","0","0","65425","","null","","","null","42","","","","","","","","","","","","","","","NaN",""
"","S1","","html-keyboard-response","285","362601","0.0-1.0-389.0","0","0","65425","","null","","","null","43","","","","","","","","","","","","","","","",""
"","ISI","","html-keyboard-response","286","363607","0.0-1.0-390.0","0","0","65425","","null","","","null","43","NaN","","","","","","","","","","","","","","",""
"","S2","","html-keyboard-response","287","363859","0.0-1.0-391.0","0","0","65425","","null","","","null","43","","NaN","","","","","","","","","","","","","",""
"","response","","html-keyboard-response","288","364108","0.0-1.0-392.0-0.0","0","0","65425","","248","","","75","43","","","1","43","training","adjacent","FG","6","7","L.jpg","O.jpg","1","1","1","",""
"","feedback","","html-keyboard-response","289","365110","0.0-1.0-393.0-0.0","0","0","65425","","null","","","null","43","","","","","","","","","","","","","","","",""
"","ITI","","html-keyboard-response","290","366111","0.0-1.0-396.0","0","0","65425","","null","","","null","43","","","","","","","","","","","","","","","NaN",""
"","S1","","html-keyboard-response","291","366363","0.0-1.0-398.0","0","0","65425","","null","","","null","44","","","","","","","","","","","","","","","",""
"","ISI","","html-keyboard-response","292","367366","0.0-1.0-399.0","0","0","65425","","null","","","null","44","NaN","","","","","","","","","","","","","","",""
"","S2","","html-keyboard-response","293","367618","0.0-1.0-400.0","0","0","65425","","null","","","null","44","","NaN","","","","","","","","","","","","","",""
"","response","","html-keyboard-response","294","367959","0.0-1.0-401.0-0.0","0","0","65425","","339","","","68","44","","","1","44","training","adjacent","GF","7","6","O.jpg","L.jpg","0","0","1","",""
"","feedback","","html-keyboard-response","295","368963","0.0-1.0-402.0-0.0","0","0","65425","","null","","","null","44","","","","","","","","","","","","","","","",""
"","ITI","","html-keyboard-response","296","369965","0.0-1.0-405.0","0","0","65425","","null","","","null","44","","","","","","","","","","","","","","","NaN",""
"","S1","","html-keyboard-response","297","370217","0.0-1.0-407.0","0","0","65425","","null","","","null","45","","","","","","","","","","","","","","","",""
"","ISI","","html-keyboard-response","298","371218","0.0-1.0-408.0","0","0","65425","","null","","","null","45","NaN","","","","","","","","","","","","","","",""
"","S2","","html-keyboard-response","299","371471","0.0-1.0-409.0","0","0","65425","","null","","","null","45","","NaN","","","","","","","","","","","","","",""
"","response","","html-keyboard-response","300","372504","0.0-1.0-410.0-0.0","0","0","65425","","1032","","","68","45","","","1","45","training","adjacent","DC","4","3","P.jpg","N.jpg","0","0","1","",""
"","feedback","","html-keyboard-response","301","373507","0.0-1.0-411.0-0.0","0","0","65425","","null","","","null","45","","","","","","","","","","","","","","","",""
"","ITI","","html-keyboard-response","302","374509","0.0-1.0-414.0","0","0","65425","","null","","","null","45","","","","","","","","","","","","","","","NaN",""
"","S1","","html-keyboard-response","303","374762","0.0-1.0-416.0","0","0","65425","","null","","","null","46","","","","","","","","","","","","","","","",""
"","ISI","","html-keyboard-response","304","375765","0.0-1.0-417.0","0","0","65425","","null","","","null","46","NaN","","","","","","","","","","","","","","",""
"","S2","","html-keyboard-response","305","376016","0.0-1.0-418.0","0","0","65425","","null","","","null","46","","NaN","","","","","","","","","","","","","",""
"","response","","html-keyboard-response","306","376418","0.0-1.0-419.0-0.0","0","0","65425","","400","","","75","46","","","1","46","training","adjacent","CD","3","4","N.jpg","P.jpg","1","1","1","",""
"","feedback","","html-keyboard-response","307","377421","0.0-1.0-420.0-0.0","0","0","65425","","null","","","null","46","","","","","","","","","","","","","","","",""
"","ITI","","html-keyboard-response","308","378424","0.0-1.0-423.0","0","0","65425","","null","","","null","46","","","","","","","","","","","","","","","NaN",""
"","S1","","html-keyboard-response","309","378676","0.0-1.0-425.0","0","0","65425","","null","","","null","47","","","","","","","","","","","","","","","",""
"","ISI","","html-keyboard-response","310","379678","0.0-1.0-426.0","0","0","65425","","null","","","null","47","NaN","","","","","","","","","","","","","","",""
"","S2","","html-keyboard-response","311","379931","0.0-1.0-427.0","0","0","65425","","null","","","null","47","","NaN","","","","","","","","","","","","","",""
"","response","","html-keyboard-response","312","380288","0.0-1.0-428.0-0.0","0","0","65425","","356","","","75","47","","","1","47","training","adjacent","CB","3","2","N.jpg","R.jpg","1","0","0","",""
"","feedback","","html-keyboard-response","313","381291","0.0-1.0-429.0-0.0","0","0","65425","","null","","","null","47","","","","","","","","","","","","","","","",""
"","time_out","","html-keyboard-response","314","383292","0.0-1.0-431.0-0.0","0","0","65425","","null","","","null","47","","","","","","","","","","","","","","","",""
"","ITI","","html-keyboard-response","315","384294","0.0-1.0-432.0","0","0","65425","","null","","","null","47","","","","","","","","","","","","","","","NaN",""
"","block_over","","html-keyboard-response","316","388843","0.0-1.0-433.0-0.0","0","0","65425","","4547","","","32","47","","","","","","","","","","","","","","","",""
"","S1","","html-keyboard-response","317","389096","0.0-1.0-434.0","0","0","65425","","null","","","null","48","","","","","","","","","","","","","","","",""
"","ISI","","html-keyboard-response","318","390098","0.0-1.0-435.0","0","0","65425","","null","","","null","48","NaN","","","","","","","","","","","","","","",""
"","S2","","html-keyboard-response","319","390350","0.0-1.0-436.0","0","0","65425","","null","","","null","48","","NaN","","","","","","","","","","","","","",""
"","response","","html-keyboard-response","320","391048","0.0-1.0-437.0-0.0","0","0","65425","","697","","","75","48","","","2","48","training","adjacent","FE","6","5","L.jpg","Q.jpg","1","0","0","",""
"","feedback","","html-keyboard-response","321","392049","0.0-1.0-438.0-0.0","0","0","65425","","null","","","null","48","","","","","","","","","","","","","","","",""
"","time_out","","html-keyboard-response","322","394052","0.0-1.0-440.0-0.0","0","0","65425","","null","","","null","48","","","","","","","","","","","","","","","",""
"","ITI","","html-keyboard-response","323","395055","0.0-1.0-441.0","0","0","65425","","null","","","null","48","","","","","","","","","","","","","","","NaN",""
"","S1","","html-keyboard-response","324","395307","0.0-1.0-443.0","0","0","65425","","null","","","null","49","","","","","","","","","","","","","","","",""
"","ISI","","html-keyboard-response","325","396309","0.0-1.0-444.0","0","0","65425","","null","","","null","49","NaN","","","","","","","","","","","","","","",""
"","S2","","html-keyboard-response","326","396560","0.0-1.0-445.0","0","0","65425","","null","","","null","49","","NaN","","","","","","","","","","","","","",""
"","response","","html-keyboard-response","327","397289","0.0-1.0-446.0-0.0","0","0","65425","","726","","","75","49","","","2","49","training","adjacent","FE","6","5","L.jpg","Q.jpg","1","0","0","",""
"","feedback","","html-keyboard-response","328","398291","0.0-1.0-447.0-0.0","0","0","65425","","null","","","null","49","","","","","","","","","","","","","","","",""
"","time_out","","html-keyboard-response","329","400293","0.0-1.0-449.0-0.0","0","0","65425","","null","","","null","49","","","","","","","","","","","","","","","",""
"","ITI","","html-keyboard-response","330","401297","0.0-1.0-450.0","0","0","65425","","null","","","null","49","","","","","","","","","","","","","","","NaN",""
"","S1","","html-keyboard-response","331","401549","0.0-1.0-452.0","0","0","65425","","null","","","null","50","","","","","","","","","","","","","","","",""
"","ISI","","html-keyboard-response","332","402551","0.0-1.0-453.0","0","0","65425","","null","","","null","50","NaN","","","","","","","","","","","","","","",""
"","S2","","html-keyboard-response","333","402804","0.0-1.0-454.0","0","0","65425","","null","","","null","50","","NaN","","","","","","","","","","","","","",""
"","response","","html-keyboard-response","334","403273","0.0-1.0-455.0-0.0","0","0","65425","","468","","","68","50","","","2","50","training","adjacent","EF","5","6","Q.jpg","L.jpg","0","1","0","",""
"","feedback","","html-keyboard-response","335","404275","0.0-1.0-456.0-0.0","0","0","65425","","null","","","null","50","","","","","","","","","","","","","","","",""
"","time_out","","html-keyboard-response","336","406277","0.0-1.0-458.0-0.0","0","0","65425","","null","","","null","50","","","","","","","","","","","","","","","",""
"","ITI","","html-keyboard-response","337","407279","0.0-1.0-459.0","0","0","65425","","null","","","null","50","","","","","","","","","","","","","","","NaN",""
"","S1","","html-keyboard-response","338","407531","0.0-1.0-461.0","0","0","65425","","null","","","null","51","","","","","","","","","","","","","","","",""
"","ISI","","html-keyboard-response","339","408533","0.0-1.0-462.0","0","0","65425","","null","","","null","51","NaN","","","","","","","","","","","","","","",""
"","S2","","html-keyboard-response","340","408786","0.0-1.0-463.0","0","0","65425","","null","","","null","51","","NaN","","","","","","","","","","","","","",""
"","response","","html-keyboard-response","341","409034","0.0-1.0-464.0-0.0","0","0","65425","","246","","","75","51","","","2","51","training","adjacent","ED","5","4","Q.jpg","P.jpg","1","0","0","",""
"","feedback","","html-keyboard-response","342","410036","0.0-1.0-465.0-0.0","0","0","65425","","null","","","null","51","","","","","","","","","","","","","","","",""
"","time_out","","html-keyboard-response","343","412038","0.0-1.0-467.0-0.0","0","0","65425","","null","","","null","51","","","","","","","","","","","","","","","",""
"","ITI","","html-keyboard-response","344","413040","0.0-1.0-468.0","0","0","65425","","null","","","null","51","","","","","","","","","","","","","","","NaN",""
"","S1","","html-keyboard-response","345","413293","0.0-1.0-470.0","0","0","65425","","null","","","null","52","","","","","","","","","","","","","","","",""
"","ISI","","html-keyboard-response","346","414295","0.0-1.0-471.0","0","0","65425","","null","","","null","52","NaN","","","","","","","","","","","","","","",""
"","S2","","html-keyboard-response","347","414546","0.0-1.0-472.0","0","0","65425","","null","","","null","52","","NaN","","","","","","","","","","","","","",""
"","response","","html-keyboard-response","348","414988","0.0-1.0-473.0-0.0","0","0","65425","","440","","","68","52","","","2","52","training","adjacent","CB","3","2","N.jpg","R.jpg","0","0","1","",""
"","feedback","","html-keyboard-response","349","415991","0.0-1.0-474.0-0.0","0","0","65425","","null","","","null","52","","","","","","","","","","","","","","","",""
"","ITI","","html-keyboard-response","350","416993","0.0-1.0-477.0","0","0","65425","","null","","","null","52","","","","","","","","","","","","","","","NaN",""
"","S1","","html-keyboard-response","351","417245","0.0-1.0-479.0","0","0","65425","","null","","","null","53","","","","","","","","","","","","","","","",""
"","ISI","","html-keyboard-response","352","418247","0.0-1.0-480.0","0","0","65425","","null","","","null","53","NaN","","","","","","","","","","","","","","",""
"","S2","","html-keyboard-response","353","418499","0.0-1.0-481.0","0","0","65425","","null","","","null","53","","NaN","","","","","","","","","","","","","",""
"","response","","html-keyboard-response","354","418967","0.0-1.0-482.0-0.0","0","0","65425","","467","","","75","53","","","2","53","training","adjacent","DE","4","5","P.jpg","Q.jpg","1","1","1","",""
"","feedback","","html-keyboard-response","355","419969","0.0-1.0-483.0-0.0","0","0","65425","","null","","","null","53","","","","","","","","","","","","","","","",""
"","ITI","","html-keyboard-response","356","420972","0.0-1.0-486.0","0","0","65425","","null","","","null","53","","","","","","","","","","","","","","","NaN",""
"","S1","","html-keyboard-response","357","421226","0.0-1.0-488.0","0","0","65425","","null","","","null","54","","","","","","","","","","","","","","","",""
"","ISI","","html-keyboard-response","358","422239","0.0-1.0-489.0","0","0","65425","","null","","","null","54","NaN","","","","","","","","","","","","","","",""
"","S2","","html-keyboard-response","359","422492","0.0-1.0-490.0","0","0","65425","","null","","","null","54","","NaN","","","","","","","","","","","","","",""
"","response","","html-keyboard-response","360","422857","0.0-1.0-491.0-0.0","0","0","65425","","363","","","75","54","","","2","54","training","adjacent","AB","1","2","M.jpg","R.jpg","1","1","1","",""
"","feedback","","html-keyboard-response","361","423860","0.0-1.0-492.0-0.0","0","0","65425","","null","","","null","54","","","","","","","","","","","","","","","",""
"","ITI","","html-keyboard-response","362","424862","0.0-1.0-495.0","0","0","65425","","null","","","null","54","","","","","","","","","","","","","","","NaN",""
"","S1","","html-keyboard-response","363","425114","0.0-1.0-497.0","0","0","65425","","null","","","null","55","","","","","","","","","","","","","","","",""
"","ISI","","html-keyboard-response","364","426117","0.0-1.0-498.0","0","0","65425","","null","","","null","55","NaN","","","","","","","","","","","","","","",""
"","S2","","html-keyboard-response","365","426370","0.0-1.0-499.0","0","0","65425","","null","","","null","55","","NaN","","","","","","","","","","","","","",""
"","response","","html-keyboard-response","366","426780","0.0-1.0-500.0-0.0","0","0","65425","","408","","","68","55","","","2","55","training","adjacent","GF","7","6","O.jpg","L.jpg","0","0","1","",""
"","feedback","","html-keyboard-response","367","427783","0.0-1.0-501.0-0.0","0","0","65425","","null","","","null","55","","","","","","","","","","","","","","","",""
"","ITI","","html-keyboard-response","368","428785","0.0-1.0-504.0","0","0","65425","","null","","","null","55","","","","","","","","","","","","","","","NaN",""
"","S1","","html-keyboard-response","369","429037","0.0-1.0-506.0","0","0","65425","","null","","","null","56","","","","","","","","","","","","","","","",""
"","ISI","","html-keyboard-response","370","430039","0.0-1.0-507.0","0","0","65425","","null","","","null","56","NaN","","","","","","","","","","","","","","",""
"","S2","","html-keyboard-response","371","430292","0.0-1.0-508.0","0","0","65425","","null","","","null","56","","NaN","","","","","","","","","","","","","",""
"","response","","html-keyboard-response","372","430848","0.0-1.0-509.0-0.0","0","0","65425","","555","","","68","56","","","2","56","training","adjacent","FG","6","7","L.jpg","O.jpg","0","1","0","",""
"","feedback","","html-keyboard-response","373","431850","0.0-1.0-510.0-0.0","0","0","65425","","null","","","null","56","","","","","","","","","","","","","","","",""
"","time_out","","html-keyboard-response","374","433852","0.0-1.0-512.0-0.0","0","0","65425","","null","","","null","56","","","","","","","","","","","","","","","",""
"","ITI","","html-keyboard-response","375","434854","0.0-1.0-513.0","0","0","65425","","null","","","null","56","","","","","","","","","","","","","","","NaN",""
"","S1","","html-keyboard-response","376","435107","0.0-1.0-515.0","0","0","65425","","null","","","null","57","","","","","","","","","","","","","","","",""
"","ISI","","html-keyboard-response","377","436109","0.0-1.0-516.0","0","0","65425","","null","","","null","57","NaN","","","","","","","","","","","","","","",""
"","S2","","html-keyboard-response","378","436362","0.0-1.0-517.0","0","0","65425","","null","","","null","57","","NaN","","","","","","","","","","","","","",""
"","response","","html-keyboard-response","379","436759","0.0-1.0-518.0-0.0","0","0","65425","","395","","","75","57","","","2","57","training","adjacent","EF","5","6","Q.jpg","L.jpg","1","1","1","",""
"","feedback","","html-keyboard-response","380","437761","0.0-1.0-519.0-0.0","0","0","65425","","null","","","null","57","","","","","","","","","","","","","","","",""
"","ITI","","html-keyboard-response","381","438763","0.0-1.0-522.0","0","0","65425","","null","","","null","57","","","","","","","","","","","","","","","NaN",""
"","S1","","html-keyboard-response","382","439015","0.0-1.0-524.0","0","0","65425","","null","","","null","58","","","","","","","","","","","","","","","",""
"","ISI","","html-keyboard-response","383","440018","0.0-1.0-525.0","0","0","65425","","null","","","null","58","NaN","","","","","","","","","","","","","","",""
"","S2","","html-keyboard-response","384","440270","0.0-1.0-526.0","0","0","65425","","null","","","null","58","","NaN","","","","","","","","","","","","","",""
"","response","","html-keyboard-response","385","440670","0.0-1.0-527.0-0.0","0","0","65425","","398","","","75","58","","","2","58","training","adjacent","DC","4","3","P.jpg","N.jpg","1","0","0","",""
"","feedback","","html-keyboard-response","386","441673","0.0-1.0-528.0-0.0","0","0","65425","","null","","","null","58","","","","","","","","","","","","","","","",""
"","time_out","","html-keyboard-response","387","443677","0.0-1.0-530.0-0.0","0","0","65425","","null","","","null","58","","","","","","","","","","","","","","","",""
"","ITI","","html-keyboard-response","388","444679","0.0-1.0-531.0","0","0","65425","","null","","","null","58","","","","","","","","","","","","","","","NaN",""
"","S1","","html-keyboard-response","389","444931","0.0-1.0-533.0","0","0","65425","","null","","","null","59","","","","","","","","","","","","","","","",""
"","ISI","","html-keyboard-response","390","445933","0.0-1.0-534.0","0","0","65425","","null","","","null","59","NaN","","","","","","","","","","","","","","",""
"","S2","","html-keyboard-response","391","446185","0.0-1.0-535.0","0","0","65425","","null","","","null","59","","NaN","","","","","","","","","","","","","",""
"","response","","html-keyboard-response","392","446961","0.0-1.0-536.0-0.0","0","0","65425","","775","","","68","59","","","2","59","training","adjacent","BA","2","1","R.jpg","M.jpg","0","0","1","",""
"","feedback","","html-keyboard-response","393","447962","0.0-1.0-537.0-0.0","0","0","65425","","null","","","null","59","","","","","","","","","","","","","","","",""
"","ITI","","html-keyboard-response","394","448965","0.0-1.0-540.0","0","0","65425","","null","","","null","59","","","","","","","","","","","","","","","NaN",""
"","S1","","html-keyboard-response","395","449217","0.0-1.0-542.0","0","0","65425","","null","","","null","60","","","","","","","","","","","","","","","",""
"","ISI","","html-keyboard-response","396","450218","0.0-1.0-543.0","0","0","65425","","null","","","null","60","NaN","","","","","","","","","","","","","","",""
"","S2","","html-keyboard-response","397","450470","0.0-1.0-544.0","0","0","65425","","null","","","null","60","","NaN","","","","","","","","","","","","","",""
"","response","","html-keyboard-response","398","451196","0.0-1.0-545.0-0.0","0","0","65425","","724","","","68","60","","","2","60","training","adjacent","BC","2","3","R.jpg","N.jpg","0","1","0","",""
"","feedback","","html-keyboard-response","399","452200","0.0-1.0-546.0-0.0","0","0","65425","","null","","","null","60","","","","","","","","","","","","","","","",""
"","time_out","","html-keyboard-response","400","454201","0.0-1.0-548.0-0.0","0","0","65425","","null","","","null","60","","","","","","","","","","","","","","","",""
"","ITI","","html-keyboard-response","401","455202","0.0-1.0-549.0","0","0","65425","","null","","","null","60","","","","","","","","","","","","","","","NaN",""
"","S1","","html-keyboard-response","402","455455","0.0-1.0-551.0","0","0","65425","","null","","","null","61","","","","","","","","","","","","","","","",""
"","ISI","","html-keyboard-response","403","456456","0.0-1.0-552.0","0","0","65425","","null","","","null","61","NaN","","","","","","","","","","","","","","",""
"","S2","","html-keyboard-response","404","456709","0.0-1.0-553.0","0","0","65425","","null","","","null","61","","NaN","","","","","","","","","","","","","",""
"","response","","html-keyboard-response","405","457432","0.0-1.0-554.0-0.0","0","0","65425","","722","","","75","61","","","2","61","training","adjacent","DC","4","3","P.jpg","N.jpg","1","0","0","",""
"","feedback","","html-keyboard-response","406","458434","0.0-1.0-555.0-0.0","0","0","65425","","null","","","null","61","","","","","","","","","","","","","","","",""
"","time_out","","html-keyboard-response","407","460437","0.0-1.0-557.0-0.0","0","0","65425","","null","","","null","61","","","","","","","","","","","","","","","",""
"","ITI","","html-keyboard-response","408","461439","0.0-1.0-558.0","0","0","65425","","null","","","null","61","","","","","","","","","","","","","","","NaN",""
"","S1","","html-keyboard-response","409","461692","0.0-1.0-560.0","0","0","65425","","null","","","null","62","","","","","","","","","","","","","","","",""
"","ISI","","html-keyboard-response","410","462694","0.0-1.0-561.0","0","0","65425","","null","","","null","62","NaN","","","","","","","","","","","","","","",""
"","S2","","html-keyboard-response","411","462946","0.0-1.0-562.0","0","0","65425","","null","","","null","62","","NaN","","","","","","","","","","","","","",""
"","response","","html-keyboard-response","412","463283","0.0-1.0-563.0-0.0","0","0","65425","","336","","","75","62","","","2","62","training","adjacent","CB","3","2","N.jpg","R.jpg","1","0","0","",""
"","feedback","","html-keyboard-response","413","464285","0.0-1.0-564.0-0.0","0","0","65425","","null","","","null","62","","","","","","","","","","","","","","","",""
"","time_out","","html-keyboard-response","414","466287","0.0-1.0-566.0-0.0","0","0","65425","","null","","","null","62","","","","","","","","","","","","","","","",""
"","ITI","","html-keyboard-response","415","467289","0.0-1.0-567.0","0","0","65425","","null","","","null","62","","","","","","","","","","","","","","","NaN",""
"","S1","","html-keyboard-response","416","467542","0.0-1.0-569.0","0","0","65425","","null","","","null","63","","","","","","","","","","","","","","","",""
"","ISI","","html-keyboard-response","417","468544","0.0-1.0-570.0","0","0","65425","","null","","","null","63","NaN","","","","","","","","","","","","","","",""
"","S2","","html-keyboard-response","418","468797","0.0-1.0-571.0","0","0","65425","","null","","","null","63","","NaN","","","","","","","","","","","","","",""
"","response","","html-keyboard-response","419","469333","0.0-1.0-572.0-0.0","0","0","65425","","535","","","68","63","","","2","63","training","adjacent","DE","4","5","P.jpg","Q.jpg","0","1","0","",""
"","feedback","","html-keyboard-response","420","470335","0.0-1.0-573.0-0.0","0","0","65425","","null","","","null","63","","","","","","","","","","","","","","","",""
"","time_out","","html-keyboard-response","421","472337","0.0-1.0-575.0-0.0","0","0","65425","","null","","","null","63","","","","","","","","","","","","","","","",""
"","ITI","","html-keyboard-response","422","473340","0.0-1.0-576.0","0","0","65425","","null","","","null","63","","","","","","","","","","","","","","","NaN",""
"","S1","","html-keyboard-response","423","473593","0.0-1.0-578.0","0","0","65425","","null","","","null","64","","","","","","","","","","","","","","","",""
"","ISI","","html-keyboard-response","424","474595","0.0-1.0-579.0","0","0","65425","","null","","","null","64","NaN","","","","","","","","","","","","","","",""
"","S2","","html-keyboard-response","425","474847","0.0-1.0-580.0","0","0","65425","","null","","","null","64","","NaN","","","","","","","","","","","","","",""
"","response","","html-keyboard-response","426","475260","0.0-1.0-581.0-0.0","0","0","65425","","411","","","75","64","","","2","64","training","adjacent","BC","2","3","R.jpg","N.jpg","1","1","1","",""
"","feedback","","html-keyboard-response","427","476262","0.0-1.0-582.0-0.0","0","0","65425","","null","","","null","64","","","","","","","","","","","","","","","",""
"","ITI","","html-keyboard-response","428","477264","0.0-1.0-585.0","0","0","65425","","null","","","null","64","","","","","","","","","","","","","","","NaN",""
"","S1","","html-keyboard-response","429","477515","0.0-1.0-587.0","0","0","65425","","null","","","null","65","","","","","","","","","","","","","","","",""
"","ISI","","html-keyboard-response","430","478518","0.0-1.0-588.0","0","0","65425","","null","","","null","65","NaN","","","","","","","","","","","","","","",""
"","S2","","html-keyboard-response","431","478771","0.0-1.0-589.0","0","0","65425","","null","","","null","65","","NaN","","","","","","","","","","","","","",""
"","response","","html-keyboard-response","432","479137","0.0-1.0-590.0-0.0","0","0","65425","","365","","","75","65","","","2","65","training","adjacent","FE","6","5","L.jpg","Q.jpg","1","0","0","",""
"","feedback","","html-keyboard-response","433","480139","0.0-1.0-591.0-0.0","0","0","65425","","null","","","null","65","","","","","","","","","","","","","","","",""
"","time_out","","html-keyboard-response","434","482141","0.0-1.0-593.0-0.0","0","0","65425","","null","","","null","65","","","","","","","","","","","","","","","",""
"","ITI","","html-keyboard-response","435","483144","0.0-1.0-594.0","0","0","65425","","null","","","null","65","","","","","","","","","","","","","","","NaN",""
"","S1","","html-keyboard-response","436","483396","0.0-1.0-596.0","0","0","65425","","null","","","null","66","","","","","","","","","","","","","","","",""
"","ISI","","html-keyboard-response","437","484398","0.0-1.0-597.0","0","0","65425","","null","","","null","66","NaN","","","","","","","","","","","","","","",""
"","S2","","html-keyboard-response","438","484651","0.0-1.0-598.0","0","0","65425","","null","","","null","66","","NaN","","","","","","","","","","","","","",""
"","response","","html-keyboard-response","439","485116","0.0-1.0-599.0-0.0","0","0","65425","","464","","","68","66","","","2","66","training","adjacent","CB","3","2","N.jpg","R.jpg","0","0","1","",""
"","feedback","","html-keyboard-response","440","486119","0.0-1.0-600.0-0.0","0","0","65425","","null","","","null","66","","","","","","","","","","","","","","","",""
"","ITI","","html-keyboard-response","441","487121","0.0-1.0-603.0","0","0","65425","","null","","","null","66","","","","","","","","","","","","","","","NaN",""
"","S1","","html-keyboard-response","442","487373","0.0-1.0-605.0","0","0","65425","","null","","","null","67","","","","","","","","","","","","","","","",""
"","ISI","","html-keyboard-response","443","488375","0.0-1.0-606.0","0","0","65425","","null","","","null","67","NaN","","","","","","","","","","","","","","",""
"","S2","","html-keyboard-response","444","488627","0.0-1.0-607.0","0","0","65425","","null","","","null","67","","NaN","","","","","","","","","","","","","",""
"","response","","html-keyboard-response","445","489147","0.0-1.0-608.0-0.0","0","0","65425","","519","","","68","67","","","2","67","training","adjacent","FG","6","7","L.jpg","O.jpg","0","1","0","",""
"","feedback","","html-keyboard-response","446","490150","0.0-1.0-609.0-0.0","0","0","65425","","null","","","null","67","","","","","","","","","","","","","","","",""
"","time_out","","html-keyboard-response","447","492153","0.0-1.0-611.0-0.0","0","0","65425","","null","","","null","67","","","","","","","","","","","","","","","",""
"","ITI","","html-keyboard-response","448","493155","0.0-1.0-612.0","0","0","65425","","null","","","null","67","","","","","","","","","","","","","","","NaN",""
"","S1","","html-keyboard-response","449","493408","0.0-1.0-614.0","0","0","65425","","null","","","null","68","","","","","","","","","","","","","","","",""
"","ISI","","html-keyboard-response","450","494410","0.0-1.0-615.0","0","0","65425","","null","","","null","68","NaN","","","","","","","","","","","","","","",""
"","S2","","html-keyboard-response","451","494662","0.0-1.0-616.0","0","0","65425","","null","","","null","68","","NaN","","","","","","","","","","","","","",""
"","response","","html-keyboard-response","452","495388","0.0-1.0-617.0-0.0","0","0","65425","","725","","","75","68","","","2","68","training","adjacent","BC","2","3","R.jpg","N.jpg","1","1","1","",""
"","feedback","","html-keyboard-response","453","496391","0.0-1.0-618.0-0.0","0","0","65425","","null","","","null","68","","","","","","","","","","","","","","","",""
"","ITI","","html-keyboard-response","454","497392","0.0-1.0-621.0","0","0","65425","","null","","","null","68","","","","","","","","","","","","","","","NaN",""
"","S1","","html-keyboard-response","455","497645","0.0-1.0-623.0","0","0","65425","","null","","","null","69","","","","","","","","","","","","","","","",""
"","ISI","","html-keyboard-response","456","498647","0.0-1.0-624.0","0","0","65425","","null","","","null","69","NaN","","","","","","","","","","","","","","",""
"","S2","","html-keyboard-response","457","498899","0.0-1.0-625.0","0","0","65425","","null","","","null","69","","NaN","","","","","","","","","","","","","",""
"","response","","html-keyboard-response","458","499367","0.0-1.0-626.0-0.0","0","0","65425","","467","","","75","69","","","2","69","training","adjacent","DE","4","5","P.jpg","Q.jpg","1","1","1","",""
"","feedback","","html-keyboard-response","459","500370","0.0-1.0-627.0-0.0","0","0","65425","","null","","","null","69","","","","","","","","","","","","","","","",""
"","ITI","","html-keyboard-response","460","501372","0.0-1.0-630.0","0","0","65425","","null","","","null","69","","","","","","","","","","","","","","","NaN",""
"","S1","","html-keyboard-response","461","501626","0.0-1.0-632.0","0","0","65425","","null","","","null","70","","","","","","","","","","","","","","","",""
"","ISI","","html-keyboard-response","462","502628","0.0-1.0-633.0","0","0","65425","","null","","","null","70","NaN","","","","","","","","","","","","","","",""
"","S2","","html-keyboard-response","463","502880","0.0-1.0-634.0","0","0","65425","","null","","","null","70","","NaN","","","","","","","","","","","","","",""
"","response","","html-keyboard-response","464","503341","0.0-1.0-635.0-0.0","0","0","65425","","458","","","75","70","","","2","70","training","adjacent","CD","3","4","N.jpg","P.jpg","1","1","1","",""
"","feedback","","html-keyboard-response","465","504344","0.0-1.0-636.0-0.0","0","0","65425","","null","","","null","70","","","","","","","","","","","","","","","",""
"","ITI","","html-keyboard-response","466","505346","0.0-1.0-639.0","0","0","65425","","null","","","null","70","","","","","","","","","","","","","","","NaN",""
"","S1","","html-keyboard-response","467","505598","0.0-1.0-641.0","0","0","65425","","null","","","null","71","","","","","","","","","","","","","","","",""
"","ISI","","html-keyboard-response","468","506600","0.0-1.0-642.0","0","0","65425","","null","","","null","71","NaN","","","","","","","","","","","","","","",""
"","S2","","html-keyboard-response","469","506854","0.0-1.0-643.0","0","0","65425","","null","","","null","71","","NaN","","","","","","","","","","","","","",""
"","response","","html-keyboard-response","470","507502","0.0-1.0-644.0-0.0","0","0","65425","","647","","","68","71","","","2","71","training","adjacent","BA","2","1","R.jpg","M.jpg","0","0","1","",""
"","feedback","","html-keyboard-response","471","508504","0.0-1.0-645.0-0.0","0","0","65425","","null","","","null","71","","","","","","","","","","","","","","","",""
"","ITI","","html-keyboard-response","472","509506","0.0-1.0-648.0","0","0","65425","","null","","","null","71","","","","","","","","","","","","","","","NaN",""
"","S1","","html-keyboard-response","473","509758","0.0-1.0-650.0","0","0","65425","","null","","","null","72","","","","","","","","","","","","","","","",""
"","ISI","","html-keyboard-response","474","510761","0.0-1.0-651.0","0","0","65425","","null","","","null","72","NaN","","","","","","","","","","","","","","",""
"","S2","","html-keyboard-response","475","511014","0.0-1.0-652.0","0","0","65425","","null","","","null","72","","NaN","","","","","","","","","","","","","",""
"","response","","html-keyboard-response","476","511418","0.0-1.0-653.0-0.0","0","0","65425","","402","","","75","72","","","2","72","training","adjacent","CD","3","4","N.jpg","P.jpg","1","1","1","",""
"","feedback","","html-keyboard-response","477","512420","0.0-1.0-654.0-0.0","0","0","65425","","null","","","null","72","","","","","","","","","","","","","","","",""
"","ITI","","html-keyboard-response","478","513421","0.0-1.0-657.0","0","0","65425","","null","","","null","72","","","","","","","","","","","","","","","NaN",""
"","S1","","html-keyboard-response","479","513674","0.0-1.0-659.0","0","0","65425","","null","","","null","73","","","","","","","","","","","","","","","",""
"","ISI","","html-keyboard-response","480","514675","0.0-1.0-660.0","0","0","65425","","null","","","null","73","NaN","","","","","","","","","","","","","","",""
"","S2","","html-keyboard-response","481","514927","0.0-1.0-661.0","0","0","65425","","null","","","null","73","","NaN","","","","","","","","","","","","","",""
"","response","","html-keyboard-response","482","515294","0.0-1.0-662.0-0.0","0","0","65425","","365","","","75","73","","","2","73","training","adjacent","ED","5","4","Q.jpg","P.jpg","1","0","0","",""
"","feedback","","html-keyboard-response","483","516296","0.0-1.0-663.0-0.0","0","0","65425","","null","","","null","73","","","","","","","","","","","","","","","",""
"","time_out","","html-keyboard-response","484","518297","0.0-1.0-665.0-0.0","0","0","65425","","null","","","null","73","","","","","","","","","","","","","","","",""
"","ITI","","html-keyboard-response","485","519300","0.0-1.0-666.0","0","0","65425","","null","","","null","73","","","","","","","","","","","","","","","NaN",""
"","S1","","html-keyboard-response","486","519553","0.0-1.0-668.0","0","0","65425","","null","","","null","74","","","","","","","","","","","","","","","",""
"","ISI","","html-keyboard-response","487","520554","0.0-1.0-669.0","0","0","65425","","null","","","null","74","NaN","","","","","","","","","","","","","","",""
"","S2","","html-keyboard-response","488","520807","0.0-1.0-670.0","0","0","65425","","null","","","null","74","","NaN","","","","","","","","","","","","","",""
"","response","","html-keyboard-response","489","521133","0.0-1.0-671.0-0.0","0","0","65425","","325","","","75","74","","","2","74","training","adjacent","AB","1","2","M.jpg","R.jpg","1","1","1","",""
"","feedback","","html-keyboard-response","490","522135","0.0-1.0-672.0-0.0","0","0","65425","","null","","","null","74","","","","","","","","","","","","","","","",""
"","ITI","","html-keyboard-response","491","523137","0.0-1.0-675.0","0","0","65425","","null","","","null","74","","","","","","","","","","","","","","","NaN",""
"","S1","","html-keyboard-response","492","523390","0.0-1.0-677.0","0","0","65425","","null","","","null","75","","","","","","","","","","","","","","","",""
"","ISI","","html-keyboard-response","493","524394","0.0-1.0-678.0","0","0","65425","","null","","","null","75","NaN","","","","","","","","","","","","","","",""
"","S2","","html-keyboard-response","494","524646","0.0-1.0-679.0","0","0","65425","","null","","","null","75","","NaN","","","","","","","","","","","","","",""
"","response","","html-keyboard-response","495","525095","0.0-1.0-680.0-0.0","0","0","65425","","448","","","75","75","","","2","75","training","adjacent","FG","6","7","L.jpg","O.jpg","1","1","1","",""
"","feedback","","html-keyboard-response","496","526097","0.0-1.0-681.0-0.0","0","0","65425","","null","","","null","75","","","","","","","","","","","","","","","",""
"","ITI","","html-keyboard-response","497","527099","0.0-1.0-684.0","0","0","65425","","null","","","null","75","","","","","","","","","","","","","","","NaN",""
"","S1","","html-keyboard-response","498","527352","0.0-1.0-686.0","0","0","65425","","null","","","null","76","","","","","","","","","","","","","","","",""
"","ISI","","html-keyboard-response","499","528354","0.0-1.0-687.0","0","0","65425","","null","","","null","76","NaN","","","","","","","","","","","","","","",""
"","S2","","html-keyboard-response","500","528606","0.0-1.0-688.0","0","0","65425","","null","","","null","76","","NaN","","","","","","","","","","","","","",""
"","response","","html-keyboard-response","501","529061","0.0-1.0-689.0-0.0","0","0","65425","","454","","","68","76","","","2","76","training","adjacent","EF","5","6","Q.jpg","L.jpg","0","1","0","",""
"","feedback","","html-keyboard-response","502","530063","0.0-1.0-690.0-0.0","0","0","65425","","null","","","null","76","","","","","","","","","","","","","","","",""
"","time_out","","html-keyboard-response","503","532065","0.0-1.0-692.0-0.0","0","0","65425","","null","","","null","76","","","","","","","","","","","","","","","",""
"","ITI","","html-keyboard-response","504","533067","0.0-1.0-693.0","0","0","65425","","null","","","null","76","","","","","","","","","","","","","","","NaN",""
"","S1","","html-keyboard-response","505","533320","0.0-1.0-695.0","0","0","65425","","null","","","null","77","","","","","","","","","","","","","","","",""
"","ISI","","html-keyboard-response","506","534322","0.0-1.0-696.0","0","0","65425","","null","","","null","77","NaN","","","","","","","","","","","","","","",""
"","S2","","html-keyboard-response","507","534575","0.0-1.0-697.0","0","0","65425","","null","","","null","77","","NaN","","","","","","","","","","","","","",""
"","response","","html-keyboard-response","508","535063","0.0-1.0-698.0-0.0","0","0","65425","","487","","","68","77","","","2","77","training","adjacent","FG","6","7","L.jpg","O.jpg","0","1","0","",""
"","feedback","","html-keyboard-response","509","536065","0.0-1.0-699.0-0.0","0","0","65425","","null","","","null","77","","","","","","","","","","","","","","","",""
"","time_out","","html-keyboard-response","510","538068","0.0-1.0-701.0-0.0","0","0","65425","","null","","","null","77","","","","","","","","","","","","","","","",""
"","ITI","","html-keyboard-response","511","539070","0.0-1.0-702.0","0","0","65425","","null","","","null","77","","","","","","","","","","","","","","","NaN",""
"","S1","","html-keyboard-response","512","539322","0.0-1.0-704.0","0","0","65425","","null","","","null","78","","","","","","","","","","","","","","","",""
"","ISI","","html-keyboard-response","513","540324","0.0-1.0-705.0","0","0","65425","","null","","","null","78","NaN","","","","","","","","","","","","","","",""
"","S2","","html-keyboard-response","514","540577","0.0-1.0-706.0","0","0","65425","","null","","","null","78","","NaN","","","","","","","","","","","","","",""
"","response","","html-keyboard-response","515","540828","0.0-1.0-707.0-0.0","0","0","65425","","250","","","75","78","","","2","78","training","adjacent","CB","3","2","N.jpg","R.jpg","1","0","0","",""
"","feedback","","html-keyboard-response","516","541832","0.0-1.0-708.0-0.0","0","0","65425","","null","","","null","78","","","","","","","","","","","","","","","",""
"","time_out","","html-keyboard-response","517","543834","0.0-1.0-710.0-0.0","0","0","65425","","null","","","null","78","","","","","","","","","","","","","","","",""
"","ITI","","html-keyboard-response","518","544836","0.0-1.0-711.0","0","0","65425","","null","","","null","78","","","","","","","","","","","","","","","NaN",""
"","S1","","html-keyboard-response","519","545089","0.0-1.0-713.0","0","0","65425","","null","","","null","79","","","","","","","","","","","","","","","",""
"","ISI","","html-keyboard-response","520","546090","0.0-1.0-714.0","0","0","65425","","null","","","null","79","NaN","","","","","","","","","","","","","","",""
"","S2","","html-keyboard-response","521","546343","0.0-1.0-715.0","0","0","65425","","null","","","null","79","","NaN","","","","","","","","","","","","","",""
"","response","","html-keyboard-response","522","546583","0.0-1.0-716.0-0.0","0","0","65425","","238","","","75","79","","","2","79","training","adjacent","DC","4","3","P.jpg","N.jpg","1","0","0","",""
"","feedback","","html-keyboard-response","523","547587","0.0-1.0-717.0-0.0","0","0","65425","","null","","","null","79","","","","","","","","","","","","","","","",""
"","time_out","","html-keyboard-response","524","549590","0.0-1.0-719.0-0.0","0","0","65425","","null","","","null","79","","","","","","","","","","","","","","","",""
"","ITI","","html-keyboard-response","525","550593","0.0-1.0-720.0","0","0","65425","","null","","","null","79","","","","","","","","","","","","","","","NaN",""
"","S1","","html-keyboard-response","526","550846","0.0-1.0-722.0","0","0","65425","","null","","","null","80","","","","","","","","","","","","","","","",""
"","ISI","","html-keyboard-response","527","551849","0.0-1.0-723.0","0","0","65425","","null","","","null","80","NaN","","","","","","","","","","","","","","",""
"","S2","","html-keyboard-response","528","552108","0.0-1.0-724.0","0","0","65425","","null","","","null","80","","NaN","","","","","","","","","","","","","",""
"","response","","html-keyboard-response","529","552537","0.0-1.0-725.0-0.0","0","0","65425","","427","","","68","80","","","2","80","training","adjacent","BC","2","3","R.jpg","N.jpg","0","1","0","",""
"","feedback","","html-keyboard-response","530","553540","0.0-1.0-726.0-0.0","0","0","65425","","null","","","null","80","","","","","","","","","","","","","","","",""
"","time_out","","html-keyboard-response","531","555543","0.0-1.0-728.0-0.0","0","0","65425","","null","","","null","80","","","","","","","","","","","","","","","",""
"","ITI","","html-keyboard-response","532","556545","0.0-1.0-729.0","0","0","65425","","null","","","null","80","","","","","","","","","","","","","","","NaN",""
"","S1","","html-keyboard-response","533","556797","0.0-1.0-731.0","0","0","65425","","null","","","null","81","","","","","","","","","","","","","","","",""
"","ISI","","html-keyboard-response","534","557799","0.0-1.0-732.0","0","0","65425","","null","","","null","81","NaN","","","","","","","","","","","","","","",""
"","S2","","html-keyboard-response","535","558050","0.0-1.0-733.0","0","0","65425","","null","","","null","81","","NaN","","","","","","","","","","","","","",""
"","response","","html-keyboard-response","536","558309","0.0-1.0-734.0-0.0","0","0","65425","","257","","","75","81","","","2","81","training","adjacent","CD","3","4","N.jpg","P.jpg","1","1","1","",""
"","feedback","","html-keyboard-response","537","559311","0.0-1.0-735.0-0.0","0","0","65425","","null","","","null","81","","","","","","","","","","","","","","","",""
"","ITI","","html-keyboard-response","538","560313","0.0-1.0-738.0","0","0","65425","","null","","","null","81","","","","","","","","","","","","","","","NaN",""
"","S1","","html-keyboard-response","539","560565","0.0-1.0-740.0","0","0","65425","","null","","","null","82","","","","","","","","","","","","","","","",""
"","ISI","","html-keyboard-response","540","561568","0.0-1.0-741.0","0","0","65425","","null","","","null","82","NaN","","","","","","","","","","","","","","",""
"","S2","","html-keyboard-response","541","561820","0.0-1.0-742.0","0","0","65425","","null","","","null","82","","NaN","","","","","","","","","","","","","",""
"","response","","html-keyboard-response","542","562231","0.0-1.0-743.0-0.0","0","0","65425","","409","","","75","82","","","2","82","training","adjacent","AB","1","2","M.jpg","R.jpg","1","1","1","",""
"","feedback","","html-keyboard-response","543","563234","0.0-1.0-744.0-0.0","0","0","65425","","null","","","null","82","","","","","","","","","","","","","","","",""
"","ITI","","html-keyboard-response","544","564236","0.0-1.0-747.0","0","0","65425","","null","","","null","82","","","","","","","","","","","","","","","NaN",""
"","S1","","html-keyboard-response","545","564490","0.0-1.0-749.0","0","0","65425","","null","","","null","83","","","","","","","","","","","","","","","",""
"","ISI","","html-keyboard-response","546","565493","0.0-1.0-750.0","0","0","65425","","null","","","null","83","NaN","","","","","","","","","","","","","","",""
"","S2","","html-keyboard-response","547","565745","0.0-1.0-751.0","0","0","65425","","null","","","null","83","","NaN","","","","","","","","","","","","","",""
"","response","","html-keyboard-response","548","566502","0.0-1.0-752.0-0.0","0","0","65425","","755","","","68","83","","","2","83","training","adjacent","DE","4","5","P.jpg","Q.jpg","0","1","0","",""
"","feedback","","html-keyboard-response","549","567503","0.0-1.0-753.0-0.0","0","0","65425","","null","","","null","83","","","","","","","","","","","","","","","",""
"","time_out","","html-keyboard-response","550","569505","0.0-1.0-755.0-0.0","0","0","65425","","null","","","null","83","","","","","","","","","","","","","","","",""
"","ITI","","html-keyboard-response","551","570507","0.0-1.0-756.0","0","0","65425","","null","","","null","83","","","","","","","","","","","","","","","NaN",""
"","S1","","html-keyboard-response","552","570759","0.0-1.0-758.0","0","0","65425","","null","","","null","84","","","","","","","","","","","","","","","",""
"","ISI","","html-keyboard-response","553","571762","0.0-1.0-759.0","0","0","65425","","null","","","null","84","NaN","","","","","","","","","","","","","","",""
"","S2","","html-keyboard-response","554","572014","0.0-1.0-760.0","0","0","65425","","null","","","null","84","","NaN","","","","","","","","","","","","","",""
"","response","","html-keyboard-response","555","572512","0.0-1.0-761.0-0.0","0","0","65425","","496","","","75","84","","","2","84","training","adjacent","BA","2","1","R.jpg","M.jpg","1","0","0","",""
"","feedback","","html-keyboard-response","556","573515","0.0-1.0-762.0-0.0","0","0","65425","","null","","","null","84","","","","","","","","","","","","","","","",""
"","time_out","","html-keyboard-response","557","575521","0.0-1.0-764.0-0.0","0","0","65425","","null","","","null","84","","","","","","","","","","","","","","","",""
"","ITI","","html-keyboard-response","558","576523","0.0-1.0-765.0","0","0","65425","","null","","","null","84","","","","","","","","","","","","","","","NaN",""
"","S1","","html-keyboard-response","559","576776","0.0-1.0-767.0","0","0","65425","","null","","","null","85","","","","","","","","","","","","","","","",""
"","ISI","","html-keyboard-response","560","577778","0.0-1.0-768.0","0","0","65425","","null","","","null","85","NaN","","","","","","","","","","","","","","",""
"","S2","","html-keyboard-response","561","578030","0.0-1.0-769.0","0","0","65425","","null","","","null","85","","NaN","","","","","","","","","","","","","",""
"","response","","html-keyboard-response","562","578306","0.0-1.0-770.0-0.0","0","0","65425","","274","","","75","85","","","2","85","training","adjacent","ED","5","4","Q.jpg","P.jpg","1","0","0","",""
"","feedback","","html-keyboard-response","563","579309","0.0-1.0-771.0-0.0","0","0","65425","","null","","","null","85","","","","","","","","","","","","","","","",""
"","time_out","","html-keyboard-response","564","581312","0.0-1.0-773.0-0.0","0","0","65425","","null","","","null","85","","","","","","","","","","","","","","","",""
"","ITI","","html-keyboard-response","565","582314","0.0-1.0-774.0","0","0","65425","","null","","","null","85","","","","","","","","","","","","","","","NaN",""
"","S1","","html-keyboard-response","566","582567","0.0-1.0-776.0","0","0","65425","","null","","","null","86","","","","","","","","","","","","","","","",""
"","ISI","","html-keyboard-response","567","583569","0.0-1.0-777.0","0","0","65425","","null","","","null","86","NaN","","","","","","","","","","","","","","",""
"","S2","","html-keyboard-response","568","583821","0.0-1.0-778.0","0","0","65425","","null","","","null","86","","NaN","","","","","","","","","","","","","",""
"","response","","html-keyboard-response","569","584664","0.0-1.0-779.0-0.0","0","0","65425","","841","","","75","86","","","2","86","training","adjacent","FE","6","5","L.jpg","Q.jpg","1","0","0","",""
"","feedback","","html-keyboard-response","570","585667","0.0-1.0-780.0-0.0","0","0","65425","","null","","","null","86","","","","","","","","","","","","","","","",""
"","time_out","","html-keyboard-response","571","587670","0.0-1.0-782.0-0.0","0","0","65425","","null","","","null","86","","","","","","","","","","","","","","","",""
"","ITI","","html-keyboard-response","572","588673","0.0-1.0-783.0","0","0","65425","","null","","","null","86","","","","","","","","","","","","","","","NaN",""
"","S1","","html-keyboard-response","573","588926","0.0-1.0-785.0","0","0","65425","","null","","","null","87","","","","","","","","","","","","","","","",""
"","ISI","","html-keyboard-response","574","589928","0.0-1.0-786.0","0","0","65425","","null","","","null","87","NaN","","","","","","","","","","","","","","",""
"","S2","","html-keyboard-response","575","590180","0.0-1.0-787.0","0","0","65425","","null","","","null","87","","NaN","","","","","","","","","","","","","",""
"","response","","html-keyboard-response","576","590539","0.0-1.0-788.0-0.0","0","0","65425","","358","","","68","87","","","2","87","training","adjacent","GF","7","6","O.jpg","L.jpg","0","0","1","",""
"","feedback","","html-keyboard-response","577","591542","0.0-1.0-789.0-0.0","0","0","65425","","null","","","null","87","","","","","","","","","","","","","","","",""
"","ITI","","html-keyboard-response","578","592544","0.0-1.0-792.0","0","0","65425","","null","","","null","87","","","","","","","","","","","","","","","NaN",""
"","S1","","html-keyboard-response","579","592797","0.0-1.0-794.0","0","0","65425","","null","","","null","88","","","","","","","","","","","","","","","",""
"","ISI","","html-keyboard-response","580","593799","0.0-1.0-795.0","0","0","65425","","null","","","null","88","NaN","","","","","","","","","","","","","","",""
