"success","ttype","start_time","trial_type","trial_index","time_elapsed","internal_node_id","warning","missed_checkup","PID","view_history","rt","responses","repeat_instructions","key_press","index","keypress_isi","keypress_S2","block","trial_num","phase","group_type","pair_type","S1_stim","S2_stim","S1_img","S2_img","S1_chosen","S1_higher","accuracy","keypress_iti","total_bonus_tally"
"true","full_screen","d04062023hr2204","fullscreen","0","20442","0.0-0.0","0","0","23500","","","","","","","","","","","","","","","","","","","","","",""
"","instructions","","instructions","1","61940","0.0-1.0-0.0-0.0","0","0","23500","[{""page_index"":0,""viewing_time"":5975},{""page_index"":1,""viewing_time"":25416},{""page_index"":2,""viewing_time"":8101},{""page_index"":3,""viewing_time"":1998}]","41490","","","","","","","","","","","","","","","","","","","",""
"","comprehension_check","","survey-multi-choice","2","87241","0.0-1.0-0.0-1.0","0","0","23500","","25293","{""Q0"":""True"",""Q1"":""D"",""Q2"":""Once the second image appears and while the screen 'MAKE A CHOICE' is shown"",""Q3"":""Green mark"",""Q4"":""either D or K""}","0","","","","","","","","","","","","","","","","","",""
"","start_exp","","html-keyboard-response","3","88659","0.0-1.0-1.0","0","0","23500","","1410","","","32","","","","","","","","","","","","","","","","",""
"","S1","","html-keyboard-response","4","88822","0.0-1.0-2.0","0","0","23500","","null","","","null","0","","","","","","","","","","","","","","","",""
"","ISI","","html-keyboard-response","5","90833","0.0-1.0-3.0","0","0","23500","","null","","","null","0","NaN","","","","","","","","","","","","","","",""
"","S2","","html-keyboard-response","6","90990","0.0-1.0-4.0","0","0","23500","","null","","","null","0","","NaN","","","","","","","","","","","","","",""
"","response","","html-keyboard-response","7","91978","0.0-1.0-5.0-0.0","0","0","23500","","983","","","68","0","","","1","0","training","adjacent","BC","2","3","M.jpg","Q.jpg","1","1","1","",""
"","feedback","","html-keyboard-response","8","92993","0.0-1.0-6.0-0.0","0","0","23500","","null","","","null","0","","","","","","","","","","","","","","","",""
"","ITI","","html-keyboard-response","9","94005","0.0-1.0-9.0","0","0","23500","","null","","","null","0","","","","","","","","","","","","","","","NaN",""
"","S1","","html-keyboard-response","10","94165","0.0-1.0-11.0","0","0","23500","","null","","","null","1","","","","","","","","","","","","","","","",""
"","ISI","","html-keyboard-response","11","96177","0.0-1.0-12.0","0","0","23500","","null","","","null","1","NaN","","","","","","","","","","","","","","",""
"","S2","","html-keyboard-response","12","96337","0.0-1.0-13.0","0","0","23500","","null","","","null","1","","NaN","","","","","","","","","","","","","",""
"","response","","html-keyboard-response","13","96809","0.0-1.0-14.0-0.0","0","0","23500","","468","","","75","1","","","1","1","training","adjacent","FG","6","7","O.jpg","L.jpg","0","1","0","",""
"","feedback","","html-keyboard-response","14","97824","0.0-1.0-15.0-0.0","0","0","23500","","null","","","null","1","","","","","","","","","","","","","","","",""
"","time_out","","html-keyboard-response","15","99840","0.0-1.0-17.0-0.0","0","0","23500","","null","","","null","1","","","","","","","","","","","","","","","",""
"","ITI","","html-keyboard-response","16","100854","0.0-1.0-18.0","0","0","23500","","null","","","null","1","","","","","","","","","","","","","","","NaN",""
"","S1","","html-keyboard-response","17","101013","0.0-1.0-20.0","0","0","23500","","null","","","null","2","","","","","","","","","","","","","","","",""
"","ISI","","html-keyboard-response","18","103024","0.0-1.0-21.0","0","0","23500","","null","","","null","2","NaN","","","","","","","","","","","","","","",""
"","S2","","html-keyboard-response","19","103184","0.0-1.0-22.0","0","0","23500","","null","","","null","2","","NaN","","","","","","","","","","","","","",""
"","response","","html-keyboard-response","20","103488","0.0-1.0-23.0-0.0","0","0","23500","","299","","","68","2","","","1","2","training","adjacent","AB","1","2","P.jpg","M.jpg","1","1","1","",""
"","feedback","","html-keyboard-response","21","104501","0.0-1.0-24.0-0.0","0","0","23500","","null","","","null","2","","","","","","","","","","","","","","","",""
"","ITI","","html-keyboard-response","22","105509","0.0-1.0-27.0","0","0","23500","","null","","","null","2","","","","","","","","","","","","","","","NaN",""
"","S1","","html-keyboard-response","23","105668","0.0-1.0-29.0","0","0","23500","","null","","","null","3","","","","","","","","","","","","","","","",""
"","ISI","","html-keyboard-response","24","107680","0.0-1.0-30.0","0","0","23500","","null","","","null","3","NaN","","","","","","","","","","","","","","",""
"","S2","","html-keyboard-response","25","107839","0.0-1.0-31.0","0","0","23500","","null","","","null","3","","NaN","","","","","","","","","","","","","",""
"","response","","html-keyboard-response","26","108609","0.0-1.0-32.0-0.0","0","0","23500","","765","","","75","3","","","1","3","training","adjacent","ED","5","4","N.jpg","R.jpg","0","0","1","",""
"","feedback","","html-keyboard-response","27","109621","0.0-1.0-33.0-0.0","0","0","23500","","null","","","null","3","","","","","","","","","","","","","","","",""
"","ITI","","html-keyboard-response","28","110629","0.0-1.0-36.0","0","0","23500","","null","","","null","3","","","","","","","","","","","","","","","NaN",""
"","S1","","html-keyboard-response","29","110789","0.0-1.0-38.0","0","0","23500","","null","","","null","4","","","","","","","","","","","","","","","",""
"","ISI","","html-keyboard-response","30","112800","0.0-1.0-39.0","0","0","23500","","null","","","null","4","NaN","","","","","","","","","","","","","","",""
"","S2","","html-keyboard-response","31","112960","0.0-1.0-40.0","0","0","23500","","null","","","null","4","","NaN","","","","","","","","","","","","","",""
"","response","","html-keyboard-response","32","113373","0.0-1.0-41.0-0.0","0","0","23500","","408","","","75","4","","","1","4","training","adjacent","GF","7","6","L.jpg","O.jpg","0","0","1","",""
"","feedback","","html-keyboard-response","33","114384","0.0-1.0-42.0-0.0","0","0","23500","","null","","","null","4","","","","","","","","","","","","","","","",""
"","ITI","","html-keyboard-response","34","115397","0.0-1.0-45.0","0","0","23500","","null","","","null","4","","","","","","","","","","","","","","","NaN",""
"","S1","","html-keyboard-response","35","115557","0.0-1.0-47.0","0","0","23500","","null","","","null","5","","","","","","","","","","","","","","","",""
"","ISI","","html-keyboard-response","36","117568","0.0-1.0-48.0","0","0","23500","","null","","","null","5","NaN","","","","","","","","","","","","","","",""
"","S2","","html-keyboard-response","37","117727","0.0-1.0-49.0","0","0","23500","","null","","","null","5","","NaN","","","","","","","","","","","","","",""
"","response","","html-keyboard-response","38","118367","0.0-1.0-50.0-0.0","0","0","23500","","635","","","68","5","","","1","5","training","adjacent","DC","4","3","R.jpg","Q.jpg","1","0","0","",""
"","feedback","","html-keyboard-response","39","119375","0.0-1.0-51.0-0.0","0","0","23500","","null","","","null","5","","","","","","","","","","","","","","","",""
"","time_out","","html-keyboard-response","40","121380","0.0-1.0-53.0-0.0","0","0","23500","","null","","","null","5","","","","","","","","","","","","","","","",""
"","ITI","","html-keyboard-response","41","122389","0.0-1.0-54.0","0","0","23500","","null","","","null","5","","","","","","","","","","","","","","","NaN",""
"","S1","","html-keyboard-response","42","122549","0.0-1.0-56.0","0","0","23500","","null","","","null","6","","","","","","","","","","","","","","","",""
"","ISI","","html-keyboard-response","43","124559","0.0-1.0-57.0","0","0","23500","","null","","","null","6","NaN","","","","","","","","","","","","","","",""
"","S2","","html-keyboard-response","44","124717","0.0-1.0-58.0","0","0","23500","","null","","","null","6","","NaN","","","","","","","","","","","","","",""
"","response","","html-keyboard-response","45","125364","0.0-1.0-59.0-0.0","0","0","23500","","645","","","68","6","","","1","6","training","adjacent","BC","2","3","M.jpg","Q.jpg","1","1","1","",""
"","feedback","","html-keyboard-response","46","126372","0.0-1.0-60.0-0.0","0","0","23500","","null","","","null","6","","","","","","","","","","","","","","","",""
"","ITI","","html-keyboard-response","47","127380","0.0-1.0-63.0","0","0","23500","","null","","","null","6","","","","","","","","","","","","","","","NaN",""
"","S1","","html-keyboard-response","48","127540","0.0-1.0-65.0","0","0","23500","","null","","","null","7","","","","","","","","","","","","","","","",""
"","ISI","","html-keyboard-response","49","129551","0.0-1.0-66.0","0","0","23500","","289","","","32","7","space","","","","","","","","","","","","","","",""
"","S2","","html-keyboard-response","50","129711","0.0-1.0-67.0","0","0","23500","","null","","","null","7","","NaN","","","","","","","","","","","","","",""
"","response","","html-keyboard-response","51","130278","0.0-1.0-68.0-0.0","0","0","23500","","563","","","68","7","","","1","7","training","adjacent","DE","4","5","R.jpg","N.jpg","1","1","1","",""
"","feedback","","html-keyboard-response","52","131295","0.0-1.0-69.0-0.0","0","0","23500","","null","","","null","7","","","","","","","","","","","","","","","",""
"","ITI","","html-keyboard-response","53","132308","0.0-1.0-72.0","0","0","23500","","null","","","null","7","","","","","","","","","","","","","","","NaN",""
"","S1","","html-keyboard-response","54","132468","0.0-1.0-74.0","0","0","23500","","null","","","null","8","","","","","","","","","","","","","","","",""
"","ISI","","html-keyboard-response","55","134476","0.0-1.0-75.0","0","0","23500","","null","","","null","8","NaN","","","","","","","","","","","","","","",""
"","S2","","html-keyboard-response","56","134639","0.0-1.0-76.0","0","0","23500","","null","","","null","8","","NaN","","","","","","","","","","","","","",""
"","response","","html-keyboard-response","57","135418","0.0-1.0-77.0-0.0","0","0","23500","","774","","","75","8","","","1","8","training","adjacent","EF","5","6","N.jpg","O.jpg","0","1","0","",""
"","feedback","","html-keyboard-response","58","136431","0.0-1.0-78.0-0.0","0","0","23500","","null","","","null","8","","","","","","","","","","","","","","","",""
"","time_out","","html-keyboard-response","59","138447","0.0-1.0-80.0-0.0","0","0","23500","","null","","","null","8","","","","","","","","","","","","","","","",""
"","ITI","","html-keyboard-response","60","139460","0.0-1.0-81.0","0","0","23500","","null","","","null","8","","","","","","","","","","","","","","","NaN",""
"","S1","","html-keyboard-response","61","139620","0.0-1.0-83.0","0","0","23500","","null","","","null","9","","","","","","","","","","","","","","","",""
"","ISI","","html-keyboard-response","62","141630","0.0-1.0-84.0","0","0","23500","","null","","","null","9","NaN","","","","","","","","","","","","","","",""
"","S2","","html-keyboard-response","63","141790","0.0-1.0-85.0","0","0","23500","","null","","","null","9","","NaN","","","","","","","","","","","","","",""
"","response","","html-keyboard-response","64","142249","0.0-1.0-86.0-0.0","0","0","23500","","454","","","68","9","","","1","9","training","adjacent","FG","6","7","O.jpg","L.jpg","1","1","1","",""
"","feedback","","html-keyboard-response","65","143262","0.0-1.0-87.0-0.0","0","0","23500","","null","","","null","9","","","","","","","","","","","","","","","",""
"","ITI","","html-keyboard-response","66","144276","0.0-1.0-90.0","0","0","23500","","null","","","null","9","","","","","","","","","","","","","","","NaN",""
"","S1","","html-keyboard-response","67","144436","0.0-1.0-92.0","0","0","23500","","null","","","null","10","","","","","","","","","","","","","","","",""
"","ISI","","html-keyboard-response","68","146446","0.0-1.0-93.0","0","0","23500","","null","","","null","10","NaN","","","","","","","","","","","","","","",""
"","S2","","html-keyboard-response","69","146606","0.0-1.0-94.0","0","0","23500","","null","","","null","10","","NaN","","","","","","","","","","","","","",""
"","response","","html-keyboard-response","70","147100","0.0-1.0-95.0-0.0","0","0","23500","","489","","","75","10","","","1","10","training","adjacent","FG","6","7","O.jpg","L.jpg","0","1","0","",""
"","feedback","","html-keyboard-response","71","148110","0.0-1.0-96.0-0.0","0","0","23500","","null","","","null","10","","","","","","","","","","","","","","","",""
"","time_out","","html-keyboard-response","72","150126","0.0-1.0-98.0-0.0","0","0","23500","","null","","","null","10","","","","","","","","","","","","","","","",""
"","ITI","","html-keyboard-response","73","151138","0.0-1.0-99.0","0","0","23500","","null","","","null","10","","","","","","","","","","","","","","","NaN",""
"","S1","","html-keyboard-response","74","151298","0.0-1.0-101.0","0","0","23500","","null","","","null","11","","","","","","","","","","","","","","","",""
"","ISI","","html-keyboard-response","75","153310","0.0-1.0-102.0","0","0","23500","","null","","","null","11","NaN","","","","","","","","","","","","","","",""
"","S2","","html-keyboard-response","76","153469","0.0-1.0-103.0","0","0","23500","","null","","","null","11","","NaN","","","","","","","","","","","","","",""
"","response","","html-keyboard-response","77","154233","0.0-1.0-104.0-0.0","0","0","23500","","761","","","75","11","","","1","11","training","adjacent","CB","3","2","Q.jpg","M.jpg","0","0","1","",""
"","feedback","","html-keyboard-response","78","155246","0.0-1.0-105.0-0.0","0","0","23500","","null","","","null","11","","","","","","","","","","","","","","","",""
"","ITI","","html-keyboard-response","79","156262","0.0-1.0-108.0","0","0","23500","","null","","","null","11","","","","","","","","","","","","","","","NaN",""
"","S1","","html-keyboard-response","80","156419","0.0-1.0-110.0","0","0","23500","","null","","","null","12","","","","","","","","","","","","","","","",""
"","ISI","","html-keyboard-response","81","158430","0.0-1.0-111.0","0","0","23500","","null","","","null","12","NaN","","","","","","","","","","","","","","",""
"","S2","","html-keyboard-response","82","158590","0.0-1.0-112.0","0","0","23500","","null","","","null","12","","NaN","","","","","","","","","","","","","",""
"","response","","html-keyboard-response","83","159145","0.0-1.0-113.0-0.0","0","0","23500","","550","","","75","12","","","1","12","training","adjacent","GF","7","6","L.jpg","O.jpg","0","0","1","",""
"","feedback","","html-keyboard-response","84","160158","0.0-1.0-114.0-0.0","0","0","23500","","null","","","null","12","","","","","","","","","","","","","","","",""
"","ITI","","html-keyboard-response","85","161173","0.0-1.0-117.0","0","0","23500","","null","","","null","12","","","","","","","","","","","","","","","NaN",""
"","S1","","html-keyboard-response","86","161331","0.0-1.0-119.0","0","0","23500","","null","","","null","13","","","","","","","","","","","","","","","",""
"","ISI","","html-keyboard-response","87","163341","0.0-1.0-120.0","0","0","23500","","null","","","null","13","NaN","","","","","","","","","","","","","","",""
"","S2","","html-keyboard-response","88","163502","0.0-1.0-121.0","0","0","23500","","null","","","null","13","","NaN","","","","","","","","","","","","","",""
"","response","","html-keyboard-response","89","164072","0.0-1.0-122.0-0.0","0","0","23500","","565","","","68","13","","","1","13","training","adjacent","AB","1","2","P.jpg","M.jpg","1","1","1","",""
"","feedback","","html-keyboard-response","90","165085","0.0-1.0-123.0-0.0","0","0","23500","","null","","","null","13","","","","","","","","","","","","","","","",""
"","ITI","","html-keyboard-response","91","166096","0.0-1.0-126.0","0","0","23500","","null","","","null","13","","","","","","","","","","","","","","","NaN",""
"","S1","","html-keyboard-response","92","166257","0.0-1.0-128.0","0","0","23500","","null","","","null","14","","","","","","","","","","","","","","","",""
"","ISI","","html-keyboard-response","93","168269","0.0-1.0-129.0","0","0","23500","","null","","","null","14","NaN","","","","","","","","","","","","","","",""
"","S2","","html-keyboard-response","94","168428","0.0-1.0-130.0","0","0","23500","","null","","","null","14","","NaN","","","","","","","","","","","","","",""
"","response","","html-keyboard-response","95","168638","0.0-1.0-131.0-0.0","0","0","23500","","207","","","68","14","","","1","14","training","adjacent","CD","3","4","Q.jpg","R.jpg","1","1","1","",""
"","feedback","","html-keyboard-response","96","169651","0.0-1.0-132.0-0.0","0","0","23500","","null","","","null","14","","","","","","","","","","","","","","","",""
"","ITI","","html-keyboard-response","97","170659","0.0-1.0-135.0","0","0","23500","","null","","","null","14","","","","","","","","","","","","","","","NaN",""
"","S1","","html-keyboard-response","98","170818","0.0-1.0-137.0","0","0","23500","","null","","","null","15","","","","","","","","","","","","","","","",""
"","ISI","","html-keyboard-response","99","172829","0.0-1.0-138.0","0","0","23500","","null","","","null","15","NaN","","","","","","","","","","","","","","",""
"","S2","","html-keyboard-response","100","172989","0.0-1.0-139.0","0","0","23500","","null","","","null","15","","NaN","","","","","","","","","","","","","",""
"","response","","html-keyboard-response","101","173725","0.0-1.0-140.0-0.0","0","0","23500","","734","","","75","15","","","1","15","training","adjacent","CD","3","4","Q.jpg","R.jpg","0","1","0","",""
"","feedback","","html-keyboard-response","102","174738","0.0-1.0-141.0-0.0","0","0","23500","","null","","","null","15","","","","","","","","","","","","","","","",""
"","time_out","","html-keyboard-response","103","176749","0.0-1.0-143.0-0.0","0","0","23500","","null","","","null","15","","","","","","","","","","","","","","","",""
"","ITI","","html-keyboard-response","104","177762","0.0-1.0-144.0","0","0","23500","","null","","","null","15","","","","","","","","","","","","","","","NaN",""
"","S1","","html-keyboard-response","105","177922","0.0-1.0-146.0","0","0","23500","","null","","","null","16","","","","","","","","","","","","","","","",""
"","ISI","","html-keyboard-response","106","179933","0.0-1.0-147.0","0","0","23500","","null","","","null","16","NaN","","","","","","","","","","","","","","",""
"","S2","","html-keyboard-response","107","180093","0.0-1.0-148.0","0","0","23500","","null","","","null","16","","NaN","","","","","","","","","","","","","",""
"","response","","html-keyboard-response","108","180756","0.0-1.0-149.0-0.0","0","0","23500","","659","","","68","16","","","1","16","training","adjacent","BC","2","3","M.jpg","Q.jpg","1","1","1","",""
"","feedback","","html-keyboard-response","109","181773","0.0-1.0-150.0-0.0","0","0","23500","","null","","","null","16","","","","","","","","","","","","","","","",""
"","ITI","","html-keyboard-response","110","182785","0.0-1.0-153.0","0","0","23500","","null","","","null","16","","","","","","","","","","","","","","","NaN",""
"","S1","","html-keyboard-response","111","182943","0.0-1.0-155.0","0","0","23500","","null","","","null","17","","","","","","","","","","","","","","","",""
"","ISI","","html-keyboard-response","112","184956","0.0-1.0-156.0","0","0","23500","","null","","","null","17","NaN","","","","","","","","","","","","","","",""
"","S2","","html-keyboard-response","113","185116","0.0-1.0-157.0","0","0","23500","","null","","","null","17","","NaN","","","","","","","","","","","","","",""
"","response","","html-keyboard-response","114","185827","0.0-1.0-158.0-0.0","0","0","23500","","707","","","75","17","","","1","17","training","adjacent","DE","4","5","R.jpg","N.jpg","0","1","0","",""
"","feedback","","html-keyboard-response","115","186834","0.0-1.0-159.0-0.0","0","0","23500","","null","","","null","17","","","","","","","","","","","","","","","",""
"","time_out","","html-keyboard-response","116","188844","0.0-1.0-161.0-0.0","0","0","23500","","null","","","null","17","","","","","","","","","","","","","","","",""
"","ITI","","html-keyboard-response","117","189858","0.0-1.0-162.0","0","0","23500","","null","","","null","17","","","","","","","","","","","","","","","NaN",""
"","S1","","html-keyboard-response","118","190018","0.0-1.0-164.0","0","0","23500","","null","","","null","18","","","","","","","","","","","","","","","",""
"","ISI","","html-keyboard-response","119","192028","0.0-1.0-165.0","0","0","23500","","null","","","null","18","NaN","","","","","","","","","","","","","","",""
"","S2","","html-keyboard-response","120","192188","0.0-1.0-166.0","0","0","23500","","null","","","null","18","","NaN","","","","","","","","","","","","","",""
"","response","","html-keyboard-response","121","192551","0.0-1.0-167.0-0.0","0","0","23500","","358","","","68","18","","","1","18","training","adjacent","FG","6","7","O.jpg","L.jpg","1","1","1","",""
"","feedback","","html-keyboard-response","122","193562","0.0-1.0-168.0-0.0","0","0","23500","","null","","","null","18","","","","","","","","","","","","","","","",""
"","ITI","","html-keyboard-response","123","194572","0.0-1.0-171.0","0","0","23500","","null","","","null","18","","","","","","","","","","","","","","","NaN",""
"","S1","","html-keyboard-response","124","194732","0.0-1.0-173.0","0","0","23500","","null","","","null","19","","","","","","","","","","","","","","","",""
"","ISI","","html-keyboard-response","125","196748","0.0-1.0-174.0","0","0","23500","","null","","","null","19","NaN","","","","","","","","","","","","","","",""
"","S2","","html-keyboard-response","126","196908","0.0-1.0-175.0","0","0","23500","","null","","","null","19","","NaN","","","","","","","","","","","","","",""
"","response","","html-keyboard-response","127","197213","0.0-1.0-176.0-0.0","0","0","23500","","300","","","75","19","","","1","19","training","adjacent","EF","5","6","N.jpg","O.jpg","0","1","0","",""
"","feedback","","html-keyboard-response","128","198225","0.0-1.0-177.0-0.0","0","0","23500","","null","","","null","19","","","","","","","","","","","","","","","",""
"","time_out","","html-keyboard-response","129","200236","0.0-1.0-179.0-0.0","0","0","23500","","null","","","null","19","","","","","","","","","","","","","","","",""
"","ITI","","html-keyboard-response","130","201249","0.0-1.0-180.0","0","0","23500","","null","","","null","19","","","","","","","","","","","","","","","NaN",""
"","S1","","html-keyboard-response","131","201409","0.0-1.0-182.0","0","0","23500","","null","","","null","20","","","","","","","","","","","","","","","",""
"","ISI","","html-keyboard-response","132","203420","0.0-1.0-183.0","0","0","23500","","null","","","null","20","NaN","","","","","","","","","","","","","","",""
"","S2","","html-keyboard-response","133","203580","0.0-1.0-184.0","0","0","23500","","null","","","null","20","","NaN","","","","","","","","","","","","","",""
"","response","","html-keyboard-response","134","205217","0.0-1.0-185.0-0.0","0","0","23500","","1633","","","68","20","","","1","20","training","adjacent","AB","1","2","P.jpg","M.jpg","1","1","1","",""
"","feedback","","html-keyboard-response","135","206225","0.0-1.0-186.0-0.0","0","0","23500","","null","","","null","20","","","","","","","","","","","","","","","",""
"","ITI","","html-keyboard-response","136","207233","0.0-1.0-189.0","0","0","23500","","null","","","null","20","","","","","","","","","","","","","","","NaN",""
"","S1","","html-keyboard-response","137","207393","0.0-1.0-191.0","0","0","23500","","null","","","null","21","","","","","","","","","","","","","","","",""
"","ISI","","html-keyboard-response","138","209403","0.0-1.0-192.0","0","0","23500","","null","","","null","21","NaN","","","","","","","","","","","","","","",""
"","S2","","html-keyboard-response","139","209563","0.0-1.0-193.0","0","0","23500","","null","","","null","21","","NaN","","","","","","","","","","","","","",""
"","response","","html-keyboard-response","140","210380","0.0-1.0-194.0-0.0","0","0","23500","","812","","","68","21","","","1","21","training","adjacent","BC","2","3","M.jpg","Q.jpg","1","1","1","",""
"","feedback","","html-keyboard-response","141","211393","0.0-1.0-195.0-0.0","0","0","23500","","null","","","null","21","","","","","","","","","","","","","","","",""
"","ITI","","html-keyboard-response","142","212397","0.0-1.0-198.0","0","0","23500","","null","","","null","21","","","","","","","","","","","","","","","NaN",""
"","S1","","html-keyboard-response","143","212558","0.0-1.0-200.0","0","0","23500","","null","","","null","22","","","","","","","","","","","","","","","",""
"","ISI","","html-keyboard-response","144","214571","0.0-1.0-201.0","0","0","23500","","null","","","null","22","NaN","","","","","","","","","","","","","","",""
"","S2","","html-keyboard-response","145","214731","0.0-1.0-202.0","0","0","23500","","null","","","null","22","","NaN","","","","","","","","","","","","","",""
"","response","","html-keyboard-response","146","215726","0.0-1.0-203.0-0.0","0","0","23500","","991","","","75","22","","","1","22","training","adjacent","BA","2","1","M.jpg","P.jpg","0","0","1","",""
"","feedback","","html-keyboard-response","147","216736","0.0-1.0-204.0-0.0","0","0","23500","","null","","","null","22","","","","","","","","","","","","","","","",""
"","ITI","","html-keyboard-response","148","217744","0.0-1.0-207.0","0","0","23500","","null","","","null","22","","","","","","","","","","","","","","","NaN",""
"","S1","","html-keyboard-response","149","217904","0.0-1.0-209.0","0","0","23500","","null","","","null","23","","","","","","","","","","","","","","","",""
"","ISI","","html-keyboard-response","150","219915","0.0-1.0-210.0","0","0","23500","","null","","","null","23","NaN","","","","","","","","","","","","","","",""
"","S2","","html-keyboard-response","151","220075","0.0-1.0-211.0","0","0","23500","","null","","","null","23","","NaN","","","","","","","","","","","","","",""
"","response","","html-keyboard-response","152","221071","0.0-1.0-212.0-0.0","0","0","23500","","991","","","68","23","","","1","23","training","adjacent","DC","4","3","R.jpg","Q.jpg","1","0","0","",""
"","feedback","","html-keyboard-response","153","222080","0.0-1.0-213.0-0.0","0","0","23500","","null","","","null","23","","","","","","","","","","","","","","","",""
"","time_out","","html-keyboard-response","154","224091","0.0-1.0-215.0-0.0","0","0","23500","","null","","","null","23","","","","","","","","","","","","","","","",""
"","ITI","","html-keyboard-response","155","225104","0.0-1.0-216.0","0","0","23500","","null","","","null","23","","","","","","","","","","","","","","","NaN",""
"","S1","","html-keyboard-response","156","225264","0.0-1.0-218.0","0","0","23500","","null","","","null","24","","","","","","","","","","","","","","","",""
"","ISI","","html-keyboard-response","157","227275","0.0-1.0-219.0","0","0","23500","","null","","","null","24","NaN","","","","","","","","","","","","","","",""
"","S2","","html-keyboard-response","158","227435","0.0-1.0-220.0","0","0","23500","","null","","","null","24","","NaN","","","","","","","","","","","","","",""
"","response","","html-keyboard-response","159","227920","0.0-1.0-221.0-0.0","0","0","23500","","481","","","75","24","","","1","24","training","adjacent","ED","5","4","N.jpg","R.jpg","0","0","1","",""
"","feedback","","html-keyboard-response","160","228928","0.0-1.0-222.0-0.0","0","0","23500","","null","","","null","24","","","","","","","","","","","","","","","",""
"","ITI","","html-keyboard-response","161","229936","0.0-1.0-225.0","0","0","23500","","null","","","null","24","","","","","","","","","","","","","","","NaN",""
"","S1","","html-keyboard-response","162","230096","0.0-1.0-227.0","0","0","23500","","null","","","null","25","","","","","","","","","","","","","","","",""
"","ISI","","html-keyboard-response","163","232106","0.0-1.0-228.0","0","0","23500","","null","","","null","25","NaN","","","","","","","","","","","","","","",""
"","S2","","html-keyboard-response","164","232266","0.0-1.0-229.0","0","0","23500","","null","","","null","25","","NaN","","","","","","","","","","","","","",""
"","response","","html-keyboard-response","165","232718","0.0-1.0-230.0-0.0","0","0","23500","","447","","","75","25","","","1","25","training","adjacent","GF","7","6","L.jpg","O.jpg","0","0","1","",""
"","feedback","","html-keyboard-response","166","233727","0.0-1.0-231.0-0.0","0","0","23500","","null","","","null","25","","","","","","","","","","","","","","","",""
"","ITI","","html-keyboard-response","167","234736","0.0-1.0-234.0","0","0","23500","","null","","","null","25","","","","","","","","","","","","","","","NaN",""
"","S1","","html-keyboard-response","168","234896","0.0-1.0-236.0","0","0","23500","","null","","","null","26","","","","","","","","","","","","","","","",""
"","ISI","","html-keyboard-response","169","236907","0.0-1.0-237.0","0","0","23500","","null","","","null","26","NaN","","","","","","","","","","","","","","",""
"","S2","","html-keyboard-response","170","237065","0.0-1.0-238.0","0","0","23500","","null","","","null","26","","NaN","","","","","","","","","","","","","",""
"","response","","html-keyboard-response","171","237508","0.0-1.0-239.0-0.0","0","0","23500","","438","","","68","26","","","1","26","training","adjacent","FE","6","5","O.jpg","N.jpg","1","0","0","",""
"","feedback","","html-keyboard-response","172","238522","0.0-1.0-240.0-0.0","0","0","23500","","null","","","null","26","","","","","","","","","","","","","","","",""
"","time_out","","html-keyboard-response","173","240538","0.0-1.0-242.0-0.0","0","0","23500","","null","","","null","26","","","","","","","","","","","","","","","",""
"","ITI","","html-keyboard-response","174","241551","0.0-1.0-243.0","0","0","23500","","null","","","null","26","","","","","","","","","","","","","","","NaN",""
"","S1","","html-keyboard-response","175","241711","0.0-1.0-245.0","0","0","23500","","null","","","null","27","","","","","","","","","","","","","","","",""
"","ISI","","html-keyboard-response","176","243722","0.0-1.0-246.0","0","0","23500","","null","","","null","27","NaN","","","","","","","","","","","","","","",""
"","S2","","html-keyboard-response","177","243882","0.0-1.0-247.0","0","0","23500","","null","","","null","27","","NaN","","","","","","","","","","","","","",""
"","response","","html-keyboard-response","178","244390","0.0-1.0-248.0-0.0","0","0","23500","","503","","","68","27","","","1","27","training","adjacent","DC","4","3","R.jpg","Q.jpg","1","0","0","",""
"","feedback","","html-keyboard-response","179","245402","0.0-1.0-249.0-0.0","0","0","23500","","null","","","null","27","","","","","","","","","","","","","","","",""
"","time_out","","html-keyboard-response","180","247418","0.0-1.0-251.0-0.0","0","0","23500","","null","","","null","27","","","","","","","","","","","","","","","",""
"","ITI","","html-keyboard-response","181","248431","0.0-1.0-252.0","0","0","23500","","null","","","null","27","","","","","","","","","","","","","","","NaN",""
"","S1","","html-keyboard-response","182","248591","0.0-1.0-254.0","0","0","23500","","null","","","null","28","","","","","","","","","","","","","","","",""
"","ISI","","html-keyboard-response","183","250602","0.0-1.0-255.0","0","0","23500","","null","","","null","28","NaN","","","","","","","","","","","","","","",""
"","S2","","html-keyboard-response","184","250761","0.0-1.0-256.0","0","0","23500","","null","","","null","28","","NaN","","","","","","","","","","","","","",""
"","response","","html-keyboard-response","185","251192","0.0-1.0-257.0-0.0","0","0","23500","","427","","","75","28","","","1","28","training","adjacent","DE","4","5","R.jpg","N.jpg","0","1","0","",""
"","feedback","","html-keyboard-response","186","252202","0.0-1.0-258.0-0.0","0","0","23500","","null","","","null","28","","","","","","","","","","","","","","","",""
"","time_out","","html-keyboard-response","187","254217","0.0-1.0-260.0-0.0","0","0","23500","","null","","","null","28","","","","","","","","","","","","","","","",""
"","ITI","","html-keyboard-response","188","255231","0.0-1.0-261.0","0","0","23500","","null","","","null","28","","","","","","","","","","","","","","","NaN",""
"","S1","","html-keyboard-response","189","255391","0.0-1.0-263.0","0","0","23500","","null","","","null","29","","","","","","","","","","","","","","","",""
"","ISI","","html-keyboard-response","190","257401","0.0-1.0-264.0","0","0","23500","","null","","","null","29","NaN","","","","","","","","","","","","","","",""
"","S2","","html-keyboard-response","191","257561","0.0-1.0-265.0","0","0","23500","","null","","","null","29","","NaN","","","","","","","","","","","","","",""
"","response","","html-keyboard-response","192","258221","0.0-1.0-266.0-0.0","0","0","23500","","655","","","68","29","","","1","29","training","adjacent","AB","1","2","P.jpg","M.jpg","1","1","1","",""
"","feedback","","html-keyboard-response","193","259231","0.0-1.0-267.0-0.0","0","0","23500","","null","","","null","29","","","","","","","","","","","","","","","",""
"","ITI","","html-keyboard-response","194","260238","0.0-1.0-270.0","0","0","23500","","null","","","null","29","","","","","","","","","","","","","","","NaN",""
"","S1","","html-keyboard-response","195","260398","0.0-1.0-272.0","0","0","23500","","null","","","null","30","","","","","","","","","","","","","","","",""
"","ISI","","html-keyboard-response","196","262409","0.0-1.0-273.0","0","0","23500","","null","","","null","30","NaN","","","","","","","","","","","","","","",""
"","S2","","html-keyboard-response","197","262569","0.0-1.0-274.0","0","0","23500","","null","","","null","30","","NaN","","","","","","","","","","","","","",""
"","response","","html-keyboard-response","198","263279","0.0-1.0-275.0-0.0","0","0","23500","","705","","","75","30","","","1","30","training","adjacent","BA","2","1","M.jpg","P.jpg","0","0","1","",""
"","feedback","","html-keyboard-response","199","264286","0.0-1.0-276.0-0.0","0","0","23500","","null","","","null","30","","","","","","","","","","","","","","","",""
"","ITI","","html-keyboard-response","200","265294","0.0-1.0-279.0","0","0","23500","","null","","","null","30","","","","","","","","","","","","","","","NaN",""
"","S1","","html-keyboard-response","201","265454","0.0-1.0-281.0","0","0","23500","","null","","","null","31","","","","","","","","","","","","","","","",""
"","ISI","","html-keyboard-response","202","267463","0.0-1.0-282.0","0","0","23500","","null","","","null","31","NaN","","","","","","","","","","","","","","",""
"","S2","","html-keyboard-response","203","267625","0.0-1.0-283.0","0","0","23500","","null","","","null","31","","NaN","","","","","","","","","","","","","",""
"","response","","html-keyboard-response","204","268048","0.0-1.0-284.0-0.0","0","0","23500","","419","","","75","31","","","1","31","training","adjacent","DE","4","5","R.jpg","N.jpg","0","1","0","",""
"","feedback","","html-keyboard-response","205","269066","0.0-1.0-285.0-0.0","0","0","23500","","null","","","null","31","","","","","","","","","","","","","","","",""
"","time_out","","html-keyboard-response","206","271081","0.0-1.0-287.0-0.0","0","0","23500","","null","","","null","31","","","","","","","","","","","","","","","",""
"","ITI","","html-keyboard-response","207","272094","0.0-1.0-288.0","0","0","23500","","null","","","null","31","","","","","","","","","","","","","","","NaN",""
"","S1","","html-keyboard-response","208","272254","0.0-1.0-290.0","0","0","23500","","null","","","null","32","","","","","","","","","","","","","","","",""
"","ISI","","html-keyboard-response","209","274265","0.0-1.0-291.0","0","0","23500","","null","","","null","32","NaN","","","","","","","","","","","","","","",""
"","S2","","html-keyboard-response","210","274425","0.0-1.0-292.0","0","0","23500","","null","","","null","32","","NaN","","","","","","","","","","","","","",""
"","response","","html-keyboard-response","211","275312","0.0-1.0-293.0-0.0","0","0","23500","","882","","","68","32","","","1","32","training","adjacent","CD","3","4","Q.jpg","R.jpg","1","1","1","",""
"","feedback","","html-keyboard-response","212","276328","0.0-1.0-294.0-0.0","0","0","23500","","null","","","null","32","","","","","","","","","","","","","","","",""
"","ITI","","html-keyboard-response","213","277342","0.0-1.0-297.0","0","0","23500","","null","","","null","32","","","","","","","","","","","","","","","NaN",""
"","S1","","html-keyboard-response","214","277502","0.0-1.0-299.0","0","0","23500","","null","","","null","33","","","","","","","","","","","","","","","",""
"","ISI","","html-keyboard-response","215","279512","0.0-1.0-300.0","0","0","23500","","null","","","null","33","NaN","","","","","","","","","","","","","","",""
"","S2","","html-keyboard-response","216","279672","0.0-1.0-301.0","0","0","23500","","null","","","null","33","","NaN","","","","","","","","","","","","","",""
"","response","","html-keyboard-response","217","280590","0.0-1.0-302.0-0.0","0","0","23500","","913","","","75","33","","","1","33","training","adjacent","EF","5","6","N.jpg","O.jpg","0","1","0","",""
"","feedback","","html-keyboard-response","218","281598","0.0-1.0-303.0-0.0","0","0","23500","","null","","","null","33","","","","","","","","","","","","","","","",""
"","time_out","","html-keyboard-response","219","283608","0.0-1.0-305.0-0.0","0","0","23500","","null","","","null","33","","","","","","","","","","","","","","","",""
"","ITI","","html-keyboard-response","220","284622","0.0-1.0-306.0","0","0","23500","","null","","","null","33","","","","","","","","","","","","","","","NaN",""
"","S1","","html-keyboard-response","221","284781","0.0-1.0-308.0","0","0","23500","","null","","","null","34","","","","","","","","","","","","","","","",""
"","ISI","","html-keyboard-response","222","286792","0.0-1.0-309.0","0","0","23500","","null","","","null","34","NaN","","","","","","","","","","","","","","",""
"","S2","","html-keyboard-response","223","286952","0.0-1.0-310.0","0","0","23500","","null","","","null","34","","NaN","","","","","","","","","","","","","",""
"","response","","html-keyboard-response","224","287767","0.0-1.0-311.0-0.0","0","0","23500","","811","","","75","34","","","1","34","training","adjacent","CB","3","2","Q.jpg","M.jpg","0","0","1","",""
"","feedback","","html-keyboard-response","225","288781","0.0-1.0-312.0-0.0","0","0","23500","","null","","","null","34","","","","","","","","","","","","","","","",""
"","ITI","","html-keyboard-response","226","289789","0.0-1.0-315.0","0","0","23500","","null","","","null","34","","","","","","","","","","","","","","","NaN",""
"","S1","","html-keyboard-response","227","289949","0.0-1.0-317.0","0","0","23500","","null","","","null","35","","","","","","","","","","","","","","","",""
"","ISI","","html-keyboard-response","228","291960","0.0-1.0-318.0","0","0","23500","","null","","","null","35","NaN","","","","","","","","","","","","","","",""
"","S2","","html-keyboard-response","229","292120","0.0-1.0-319.0","0","0","23500","","null","","","null","35","","NaN","","","","","","","","","","","","","",""
"","response","","html-keyboard-response","230","292832","0.0-1.0-320.0-0.0","0","0","23500","","707","","","75","35","","","1","35","training","adjacent","CB","3","2","Q.jpg","M.jpg","0","0","1","",""
"","feedback","","html-keyboard-response","231","293847","0.0-1.0-321.0-0.0","0","0","23500","","null","","","null","35","","","","","","","","","","","","","","","",""
"","ITI","","html-keyboard-response","232","294861","0.0-1.0-324.0","0","0","23500","","null","","","null","35","","","","","","","","","","","","","","","NaN",""
"","S1","","html-keyboard-response","233","295021","0.0-1.0-326.0","0","0","23500","","null","","","null","36","","","","","","","","","","","","","","","",""
"","ISI","","html-keyboard-response","234","297032","0.0-1.0-327.0","0","0","23500","","null","","","null","36","NaN","","","","","","","","","","","","","","",""
"","S2","","html-keyboard-response","235","297192","0.0-1.0-328.0","0","0","23500","","null","","","null","36","","NaN","","","","","","","","","","","","","",""
"","response","","html-keyboard-response","236","297971","0.0-1.0-329.0-0.0","0","0","23500","","774","","","68","36","","","1","36","training","adjacent","EF","5","6","N.jpg","O.jpg","1","1","1","",""
"","feedback","","html-keyboard-response","237","298984","0.0-1.0-330.0-0.0","0","0","23500","","null","","","null","36","","","","","","","","","","","","","","","",""
"","ITI","","html-keyboard-response","238","299997","0.0-1.0-333.0","0","0","23500","","null","","","null","36","","","","","","","","","","","","","","","NaN",""
"","S1","","html-keyboard-response","239","300157","0.0-1.0-335.0","0","0","23500","","null","","","null","37","","","","","","","","","","","","","","","",""
"","ISI","","html-keyboard-response","240","302167","0.0-1.0-336.0","0","0","23500","","null","","","null","37","NaN","","","","","","","","","","","","","","",""
"","S2","","html-keyboard-response","241","302327","0.0-1.0-337.0","0","0","23500","","null","","","null","37","","NaN","","","","","","","","","","","","","",""
"","response","","html-keyboard-response","242","303184","0.0-1.0-338.0-0.0","0","0","23500","","852","","","68","37","","","1","37","training","adjacent","GF","7","6","L.jpg","O.jpg","1","0","0","",""
"","feedback","","html-keyboard-response","243","304197","0.0-1.0-339.0-0.0","0","0","23500","","null","","","null","37","","","","","","","","","","","","","","","",""
"","time_out","","html-keyboard-response","244","306204","0.0-1.0-341.0-0.0","0","0","23500","","null","","","null","37","","","","","","","","","","","","","","","",""
"","ITI","","html-keyboard-response","245","307213","0.0-1.0-342.0","0","0","23500","","null","","","null","37","","","","","","","","","","","","","","","NaN",""
"","S1","","html-keyboard-response","246","307372","0.0-1.0-344.0","0","0","23500","","null","","","null","38","","","","","","","","","","","","","","","",""
"","ISI","","html-keyboard-response","247","309383","0.0-1.0-345.0","0","0","23500","","null","","","null","38","NaN","","","","","","","","","","","","","","",""
"","S2","","html-keyboard-response","248","309540","0.0-1.0-346.0","0","0","23500","","null","","","null","38","","NaN","","","","","","","","","","","","","",""
"","response","","html-keyboard-response","249","310319","0.0-1.0-347.0-0.0","0","0","23500","","774","","","75","38","","","1","38","training","adjacent","CB","3","2","Q.jpg","M.jpg","0","0","1","",""
"","feedback","","html-keyboard-response","250","311335","0.0-1.0-348.0-0.0","0","0","23500","","null","","","null","38","","","","","","","","","","","","","","","",""
"","ITI","","html-keyboard-response","251","312348","0.0-1.0-351.0","0","0","23500","","null","","","null","38","","","","","","","","","","","","","","","NaN",""
"","S1","","html-keyboard-response","252","312508","0.0-1.0-353.0","0","0","23500","","null","","","null","39","","","","","","","","","","","","","","","",""
"","ISI","","html-keyboard-response","253","314520","0.0-1.0-354.0","0","0","23500","","null","","","null","39","NaN","","","","","","","","","","","","","","",""
"","S2","","html-keyboard-response","254","314684","0.0-1.0-355.0","0","0","23500","","null","","","null","39","","NaN","","","","","","","","","","","","","",""
"","response","","html-keyboard-response","255","315687","0.0-1.0-356.0-0.0","0","0","23500","","998","","","68","39","","","1","39","training","adjacent","FE","6","5","O.jpg","N.jpg","1","0","0","",""
"","feedback","","html-keyboard-response","256","316700","0.0-1.0-357.0-0.0","0","0","23500","","null","","","null","39","","","","","","","","","","","","","","","",""
"","time_out","","html-keyboard-response","257","318711","0.0-1.0-359.0-0.0","0","0","23500","","null","","","null","39","","","","","","","","","","","","","","","",""
"","ITI","","html-keyboard-response","258","319724","0.0-1.0-360.0","0","0","23500","","null","","","null","39","","","","","","","","","","","","","","","NaN",""
"","S1","","html-keyboard-response","259","319884","0.0-1.0-362.0","0","0","23500","","null","","","null","40","","","","","","","","","","","","","","","",""
"","ISI","","html-keyboard-response","260","321892","0.0-1.0-363.0","0","0","23500","","null","","","null","40","NaN","","","","","","","","","","","","","","",""
"","S2","","html-keyboard-response","261","322054","0.0-1.0-364.0","0","0","23500","","null","","","null","40","","NaN","","","","","","","","","","","","","",""
"","response","","html-keyboard-response","262","322768","0.0-1.0-365.0-0.0","0","0","23500","","708","","","75","40","","","1","40","training","adjacent","ED","5","4","N.jpg","R.jpg","0","0","1","",""
"","feedback","","html-keyboard-response","263","323783","0.0-1.0-366.0-0.0","0","0","23500","","null","","","null","40","","","","","","","","","","","","","","","",""
"","ITI","","html-keyboard-response","264","324796","0.0-1.0-369.0","0","0","23500","","null","","","null","40","","","","","","","","","","","","","","","NaN",""
"","S1","","html-keyboard-response","265","324956","0.0-1.0-371.0","0","0","23500","","null","","","null","41","","","","","","","","","","","","","","","",""
"","ISI","","html-keyboard-response","266","326966","0.0-1.0-372.0","0","0","23500","","null","","","null","41","NaN","","","","","","","","","","","","","","",""
"","S2","","html-keyboard-response","267","327126","0.0-1.0-373.0","0","0","23500","","null","","","null","41","","NaN","","","","","","","","","","","","","",""
"","response","","html-keyboard-response","268","327657","0.0-1.0-374.0-0.0","0","0","23500","","526","","","68","41","","","1","41","training","adjacent","FE","6","5","O.jpg","N.jpg","1","0","0","",""
"","feedback","","html-keyboard-response","269","328667","0.0-1.0-375.0-0.0","0","0","23500","","null","","","null","41","","","","","","","","","","","","","","","",""
"","time_out","","html-keyboard-response","270","330678","0.0-1.0-377.0-0.0","0","0","23500","","null","","","null","41","","","","","","","","","","","","","","","",""
"","ITI","","html-keyboard-response","271","331691","0.0-1.0-378.0","0","0","23500","","null","","","null","41","","","","","","","","","","","","","","","NaN",""
"","S1","","html-keyboard-response","272","331851","0.0-1.0-380.0","0","0","23500","","null","","","null","42","","","","","","","","","","","","","","","",""
"","ISI","","html-keyboard-response","273","333862","0.0-1.0-381.0","0","0","23500","","null","","","null","42","NaN","","","","","","","","","","","","","","",""
"","S2","","html-keyboard-response","274","334022","0.0-1.0-382.0","0","0","23500","","null","","","null","42","","NaN","","","","","","","","","","","","","",""
"","response","","html-keyboard-response","275","334777","0.0-1.0-383.0-0.0","0","0","23500","","750","","","68","42","","","1","42","training","adjacent","DC","4","3","R.jpg","Q.jpg","1","0","0","",""
"","feedback","","html-keyboard-response","276","335787","0.0-1.0-384.0-0.0","0","0","23500","","null","","","null","42","","","","","","","","","","","","","","","",""
"","time_out","","html-keyboard-response","277","337795","0.0-1.0-386.0-0.0","0","0","23500","","null","","","null","42","","","","","","","","","","","","","","","",""
"","ITI","","html-keyboard-response","278","338806","0.0-1.0-387.0","0","0","23500","","null","","","null","42","","","","","","","","","","","","","","","NaN",""
"","S1","","html-keyboard-response","279","338966","0.0-1.0-389.0","0","0","23500","","null","","","null","43","","","","","","","","","","","","","","","",""
"","ISI","","html-keyboard-response","280","340982","0.0-1.0-390.0","0","0","23500","","null","","","null","43","NaN","","","","","","","","","","","","","","",""
"","S2","","html-keyboard-response","281","341142","0.0-1.0-391.0","0","0","23500","","null","","","null","43","","NaN","","","","","","","","","","","","","",""
"","response","","html-keyboard-response","282","341945","0.0-1.0-392.0-0.0","0","0","23500","","801","","","75","43","","","1","43","training","adjacent","CD","3","4","Q.jpg","R.jpg","0","1","0","",""
"","feedback","","html-keyboard-response","283","342955","0.0-1.0-393.0-0.0","0","0","23500","","null","","","null","43","","","","","","","","","","","","","","","",""
"","time_out","","html-keyboard-response","284","344966","0.0-1.0-395.0-0.0","0","0","23500","","null","","","null","43","","","","","","","","","","","","","","","",""
"","ITI","","html-keyboard-response","285","345979","0.0-1.0-396.0","0","0","23500","","null","","","null","43","","","","","","","","","","","","","","","NaN",""
"","S1","","html-keyboard-response","286","346139","0.0-1.0-398.0","0","0","23500","","null","","","null","44","","","","","","","","","","","","","","","",""
"","ISI","","html-keyboard-response","287","348149","0.0-1.0-399.0","0","0","23500","","null","","","null","44","NaN","","","","","","","","","","","","","","",""
"","S2","","html-keyboard-response","288","348309","0.0-1.0-400.0","0","0","23500","","null","","","null","44","","NaN","","","","","","","","","","","","","",""
"","response","","html-keyboard-response","289","348877","0.0-1.0-401.0-0.0","0","0","23500","","563","","","68","44","","","1","44","training","adjacent","BA","2","1","M.jpg","P.jpg","1","0","0","",""
"","feedback","","html-keyboard-response","290","349893","0.0-1.0-402.0-0.0","0","0","23500","","null","","","null","44","","","","","","","","","","","","","","","",""
"","time_out","","html-keyboard-response","291","351909","0.0-1.0-404.0-0.0","0","0","23500","","null","","","null","44","","","","","","","","","","","","","","","",""
"","ITI","","html-keyboard-response","292","352923","0.0-1.0-405.0","0","0","23500","","null","","","null","44","","","","","","","","","","","","","","","NaN",""
"","S1","","html-keyboard-response","293","353082","0.0-1.0-407.0","0","0","23500","","null","","","null","45","","","","","","","","","","","","","","","",""
"","ISI","","html-keyboard-response","294","355093","0.0-1.0-408.0","0","0","23500","","null","","","null","45","NaN","","","","","","","","","","","","","","",""
"","S2","","html-keyboard-response","295","355253","0.0-1.0-409.0","0","0","23500","","null","","","null","45","","NaN","","","","","","","","","","","","","",""
"","response","","html-keyboard-response","296","356093","0.0-1.0-410.0-0.0","0","0","23500","","835","","","75","45","","","1","45","training","adjacent","FE","6","5","O.jpg","N.jpg","0","0","1","",""
"","feedback","","html-keyboard-response","297","357109","0.0-1.0-411.0-0.0","0","0","23500","","null","","","null","45","","","","","","","","","","","","","","","",""
"","ITI","","html-keyboard-response","298","358122","0.0-1.0-414.0","0","0","23500","","null","","","null","45","","","","","","","","","","","","","","","NaN",""
"","S1","","html-keyboard-response","299","358282","0.0-1.0-416.0","0","0","23500","","null","","","null","46","","","","","","","","","","","","","","","",""
"","ISI","","html-keyboard-response","300","360293","0.0-1.0-417.0","0","0","23500","","null","","","null","46","NaN","","","","","","","","","","","","","","",""
"","S2","","html-keyboard-response","301","360453","0.0-1.0-418.0","0","0","23500","","null","","","null","46","","NaN","","","","","","","","","","","","","",""
"","response","","html-keyboard-response","302","361063","0.0-1.0-419.0-0.0","0","0","23500","","606","","","68","46","","","1","46","training","adjacent","ED","5","4","N.jpg","R.jpg","1","0","0","",""
"","feedback","","html-keyboard-response","303","362074","0.0-1.0-420.0-0.0","0","0","23500","","null","","","null","46","","","","","","","","","","","","","","","",""
"","time_out","","html-keyboard-response","304","364085","0.0-1.0-422.0-0.0","0","0","23500","","null","","","null","46","","","","","","","","","","","","","","","",""
"","ITI","","html-keyboard-response","305","365098","0.0-1.0-423.0","0","0","23500","","null","","","null","46","","","","","","","","","","","","","","","NaN",""
"","S1","","html-keyboard-response","306","365258","0.0-1.0-425.0","0","0","23500","","null","","","null","47","","","","","","","","","","","","","","","",""
"","ISI","","html-keyboard-response","307","367268","0.0-1.0-426.0","0","0","23500","","null","","","null","47","NaN","","","","","","","","","","","","","","",""
"","S2","","html-keyboard-response","308","367428","0.0-1.0-427.0","0","0","23500","","null","","","null","47","","NaN","","","","","","","","","","","","","",""
"","response","","html-keyboard-response","309","368380","0.0-1.0-428.0-0.0","0","0","23500","","947","","","75","47","","","1","47","training","adjacent","BA","2","1","M.jpg","P.jpg","0","0","1","",""
"","feedback","","html-keyboard-response","310","369396","0.0-1.0-429.0-0.0","0","0","23500","","null","","","null","47","","","","","","","","","","","","","","","",""
"","ITI","","html-keyboard-response","311","370409","0.0-1.0-432.0","0","0","23500","","null","","","null","47","","","","","","","","","","","","","","","NaN",""
"","block_over","","html-keyboard-response","312","380682","0.0-1.0-433.0-0.0","0","0","23500","","10266","","","32","47","","","","","","","","","","","","","","","",""
"","S1","","html-keyboard-response","313","380841","0.0-1.0-434.0","0","0","23500","","null","","","null","48","","","","","","","","","","","","","","","",""
"","ISI","","html-keyboard-response","314","382851","0.0-1.0-435.0","0","0","23500","","null","","","null","48","NaN","","","","","","","","","","","","","","",""
"","S2","","html-keyboard-response","315","383011","0.0-1.0-436.0","0","0","23500","","null","","","null","48","","NaN","","","","","","","","","","","","","",""
"","response","","html-keyboard-response","316","384149","0.0-1.0-437.0-0.0","0","0","23500","","1134","","","75","48","","","2","48","training","adjacent","ED","5","4","N.jpg","R.jpg","0","0","1","",""
"","feedback","","html-keyboard-response","317","385161","0.0-1.0-438.0-0.0","0","0","23500","","null","","","null","48","","","","","","","","","","","","","","","",""
"","ITI","","html-keyboard-response","318","386169","0.0-1.0-441.0","0","0","23500","","null","","","null","48","","","","","","","","","","","","","","","NaN",""
"","S1","","html-keyboard-response","319","386329","0.0-1.0-443.0","0","0","23500","","null","","","null","49","","","","","","","","","","","","","","","",""
"","ISI","","html-keyboard-response","320","388339","0.0-1.0-444.0","0","0","23500","","null","","","null","49","NaN","","","","","","","","","","","","","","",""
"","S2","","html-keyboard-response","321","388500","0.0-1.0-445.0","0","0","23500","","null","","","null","49","","NaN","","","","","","","","","","","","","",""
"","response","","html-keyboard-response","322","389320","0.0-1.0-446.0-0.0","0","0","23500","","815","","","75","49","","","2","49","training","adjacent","CB","3","2","Q.jpg","M.jpg","0","0","1","",""
"","feedback","","html-keyboard-response","323","390329","0.0-1.0-447.0-0.0","0","0","23500","","null","","","null","49","","","","","","","","","","","","","","","",""
"","ITI","","html-keyboard-response","324","391337","0.0-1.0-450.0","0","0","23500","","null","","","null","49","","","","","","","","","","","","","","","NaN",""
"","S1","","html-keyboard-response","325","391497","0.0-1.0-452.0","0","0","23500","","null","","","null","50","","","","","","","","","","","","","","","",""
"","ISI","","html-keyboard-response","326","393507","0.0-1.0-453.0","0","0","23500","","null","","","null","50","NaN","","","","","","","","","","","","","","",""
"","S2","","html-keyboard-response","327","393667","0.0-1.0-454.0","0","0","23500","","null","","","null","50","","NaN","","","","","","","","","","","","","",""
"","response","","html-keyboard-response","328","394606","0.0-1.0-455.0-0.0","0","0","23500","","934","","","68","50","","","2","50","training","adjacent","ED","5","4","N.jpg","R.jpg","1","0","0","",""
"","feedback","","html-keyboard-response","329","395619","0.0-1.0-456.0-0.0","0","0","23500","","null","","","null","50","","","","","","","","","","","","","","","",""
"","time_out","","html-keyboard-response","330","397635","0.0-1.0-458.0-0.0","0","0","23500","","null","","","null","50","","","","","","","","","","","","","","","",""
"","ITI","","html-keyboard-response","331","398648","0.0-1.0-459.0","0","0","23500","","null","","","null","50","","","","","","","","","","","","","","","NaN",""
"","S1","","html-keyboard-response","332","398808","0.0-1.0-461.0","0","0","23500","","null","","","null","51","","","","","","","","","","","","","","","",""
"","ISI","","html-keyboard-response","333","400819","0.0-1.0-462.0","0","0","23500","","null","","","null","51","NaN","","","","","","","","","","","","","","",""
"","S2","","html-keyboard-response","334","400979","0.0-1.0-463.0","0","0","23500","","null","","","null","51","","NaN","","","","","","","","","","","","","",""
"","response","","html-keyboard-response","335","401751","0.0-1.0-464.0-0.0","0","0","23500","","767","","","75","51","","","2","51","training","adjacent","CD","3","4","Q.jpg","R.jpg","0","1","0","",""
"","feedback","","html-keyboard-response","336","402758","0.0-1.0-465.0-0.0","0","0","23500","","null","","","null","51","","","","","","","","","","","","","","","",""
"","time_out","","html-keyboard-response","337","404771","0.0-1.0-467.0-0.0","0","0","23500","","null","","","null","51","","","","","","","","","","","","","","","",""
"","ITI","","html-keyboard-response","338","405784","0.0-1.0-468.0","0","0","23500","","null","","","null","51","","","","","","","","","","","","","","","NaN",""
"","S1","","html-keyboard-response","339","405944","0.0-1.0-470.0","0","0","23500","","null","","","null","52","","","","","","","","","","","","","","","",""
"","ISI","","html-keyboard-response","340","407955","0.0-1.0-471.0","0","0","23500","","null","","","null","52","NaN","","","","","","","","","","","","","","",""
"","S2","","html-keyboard-response","341","408115","0.0-1.0-472.0","0","0","23500","","null","","","null","52","","NaN","","","","","","","","","","","","","",""
"","response","","html-keyboard-response","342","408674","0.0-1.0-473.0-0.0","0","0","23500","","556","","","68","52","","","2","52","training","adjacent","BC","2","3","M.jpg","Q.jpg","1","1","1","",""
"","feedback","","html-keyboard-response","343","409688","0.0-1.0-474.0-0.0","0","0","23500","","null","","","null","52","","","","","","","","","","","","","","","",""
"","ITI","","html-keyboard-response","344","410696","0.0-1.0-477.0","0","0","23500","","null","","","null","52","","","","","","","","","","","","","","","NaN",""
"","S1","","html-keyboard-response","345","410856","0.0-1.0-479.0","0","0","23500","","null","","","null","53","","","","","","","","","","","","","","","",""
"","ISI","","html-keyboard-response","346","412867","0.0-1.0-480.0","0","0","23500","","null","","","null","53","NaN","","","","","","","","","","","","","","",""
"","S2","","html-keyboard-response","347","413026","0.0-1.0-481.0","0","0","23500","","null","","","null","53","","NaN","","","","","","","","","","","","","",""
"","response","","html-keyboard-response","348","414069","0.0-1.0-482.0-0.0","0","0","23500","","1037","","","68","53","","","2","53","training","adjacent","DC","4","3","R.jpg","Q.jpg","1","0","0","",""
"","feedback","","html-keyboard-response","349","415080","0.0-1.0-483.0-0.0","0","0","23500","","null","","","null","53","","","","","","","","","","","","","","","",""
"","time_out","","html-keyboard-response","350","417090","0.0-1.0-485.0-0.0","0","0","23500","","null","","","null","53","","","","","","","","","","","","","","","",""
"","ITI","","html-keyboard-response","351","418104","0.0-1.0-486.0","0","0","23500","","null","","","null","53","","","","","","","","","","","","","","","NaN",""
"","S1","","html-keyboard-response","352","418264","0.0-1.0-488.0","0","0","23500","","null","","","null","54","","","","","","","","","","","","","","","",""
"","ISI","","html-keyboard-response","353","420274","0.0-1.0-489.0","0","0","23500","","null","","","null","54","NaN","","","","","","","","","","","","","","",""
"","S2","","html-keyboard-response","354","420434","0.0-1.0-490.0","0","0","23500","","null","","","null","54","","NaN","","","","","","","","","","","","","",""
"","response","","html-keyboard-response","355","421001","0.0-1.0-491.0-0.0","0","0","23500","","562","","","68","54","","","2","54","training","adjacent","FG","6","7","O.jpg","L.jpg","1","1","1","",""
"","feedback","","html-keyboard-response","356","422007","0.0-1.0-492.0-0.0","0","0","23500","","null","","","null","54","","","","","","","","","","","","","","","",""
"","ITI","","html-keyboard-response","357","423015","0.0-1.0-495.0","0","0","23500","","null","","","null","54","","","","","","","","","","","","","","","NaN",""
"","S1","","html-keyboard-response","358","423175","0.0-1.0-497.0","0","0","23500","","null","","","null","55","","","","","","","","","","","","","","","",""
"","ISI","","html-keyboard-response","359","425186","0.0-1.0-498.0","0","0","23500","","null","","","null","55","NaN","","","","","","","","","","","","","","",""
"","S2","","html-keyboard-response","360","425346","0.0-1.0-499.0","0","0","23500","","null","","","null","55","","NaN","","","","","","","","","","","","","",""
"","response","","html-keyboard-response","361","426189","0.0-1.0-500.0-0.0","0","0","23500","","841","","","75","55","","","2","55","training","adjacent","GF","7","6","L.jpg","O.jpg","0","0","1","",""
"","feedback","","html-keyboard-response","362","427201","0.0-1.0-501.0-0.0","0","0","23500","","null","","","null","55","","","","","","","","","","","","","","","",""
"","ITI","","html-keyboard-response","363","428215","0.0-1.0-504.0","0","0","23500","","null","","","null","55","","","","","","","","","","","","","","","NaN",""
"","S1","","html-keyboard-response","364","428375","0.0-1.0-506.0","0","0","23500","","null","","","null","56","","","","","","","","","","","","","","","",""
"","ISI","","html-keyboard-response","365","430385","0.0-1.0-507.0","0","0","23500","","null","","","null","56","NaN","","","","","","","","","","","","","","",""
"","S2","","html-keyboard-response","366","430546","0.0-1.0-508.0","0","0","23500","","null","","","null","56","","NaN","","","","","","","","","","","","","",""
"","response","","html-keyboard-response","367","431079","0.0-1.0-509.0-0.0","0","0","23500","","528","","","75","56","","","2","56","training","adjacent","CB","3","2","Q.jpg","M.jpg","0","0","1","",""
"","feedback","","html-keyboard-response","368","432084","0.0-1.0-510.0-0.0","0","0","23500","","null","","","null","56","","","","","","","","","","","","","","","",""
"","ITI","","html-keyboard-response","369","433095","0.0-1.0-513.0","0","0","23500","","null","","","null","56","","","","","","","","","","","","","","","NaN",""
"","S1","","html-keyboard-response","370","433255","0.0-1.0-515.0","0","0","23500","","null","","","null","57","","","","","","","","","","","","","","","",""
"","ISI","","html-keyboard-response","371","435266","0.0-1.0-516.0","0","0","23500","","null","","","null","57","NaN","","","","","","","","","","","","","","",""
"","S2","","html-keyboard-response","372","435425","0.0-1.0-517.0","0","0","23500","","null","","","null","57","","NaN","","","","","","","","","","","","","",""
"","response","","html-keyboard-response","373","436141","0.0-1.0-518.0-0.0","0","0","23500","","710","","","75","57","","","2","57","training","adjacent","EF","5","6","N.jpg","O.jpg","0","1","0","",""
"","feedback","","html-keyboard-response","374","437153","0.0-1.0-519.0-0.0","0","0","23500","","null","","","null","57","","","","","","","","","","","","","","","",""
"","time_out","","html-keyboard-response","375","439167","0.0-1.0-521.0-0.0","0","0","23500","","null","","","null","57","","","","","","","","","","","","","","","",""
"","ITI","","html-keyboard-response","376","440177","0.0-1.0-522.0","0","0","23500","","null","","","null","57","","","","","","","","","","","","","","","NaN",""
"","S1","","html-keyboard-response","377","440337","0.0-1.0-524.0","0","0","23500","","null","","","null","58","","","","","","","","","","","","","","","",""
"","ISI","","html-keyboard-response","378","442350","0.0-1.0-525.0","0","0","23500","","null","","","null","58","NaN","","","","","","","","","","","","","","",""
"","S2","","html-keyboard-response","379","442510","0.0-1.0-526.0","0","0","23500","","null","","","null","58","","NaN","","","","","","","","","","","","","",""
"","response","","html-keyboard-response","380","442947","0.0-1.0-527.0-0.0","0","0","23500","","434","","","68","58","","","2","58","training","adjacent","DC","4","3","R.jpg","Q.jpg","1","0","0","",""
"","feedback","","html-keyboard-response","381","443958","0.0-1.0-528.0-0.0","0","0","23500","","null","","","null","58","","","","","","","","","","","","","","","",""
"","time_out","","html-keyboard-response","382","445969","0.0-1.0-530.0-0.0","0","0","23500","","null","","","null","58","","","","","","","","","","","","","","","",""
"","ITI","","html-keyboard-response","383","446982","0.0-1.0-531.0","0","0","23500","","null","","","null","58","","","","","","","","","","","","","","","NaN",""
"","S1","","html-keyboard-response","384","447142","0.0-1.0-533.0","0","0","23500","","null","","","null","59","","","","","","","","","","","","","","","",""
"","ISI","","html-keyboard-response","385","449151","0.0-1.0-534.0","0","0","23500","","null","","","null","59","NaN","","","","","","","","","","","","","","",""
"","S2","","html-keyboard-response","386","449313","0.0-1.0-535.0","0","0","23500","","null","","","null","59","","NaN","","","","","","","","","","","","","",""
"","response","","html-keyboard-response","387","450578","0.0-1.0-536.0-0.0","0","0","23500","","1260","","","75","59","","","2","59","training","adjacent","EF","5","6","N.jpg","O.jpg","0","1","0","",""
"","feedback","","html-keyboard-response","388","451588","0.0-1.0-537.0-0.0","0","0","23500","","null","","","null","59","","","","","","","","","","","","","","","",""
"","time_out","","html-keyboard-response","389","453601","0.0-1.0-539.0-0.0","0","0","23500","","null","","","null","59","","","","","","","","","","","","","","","",""
"","ITI","","html-keyboard-response","390","454614","0.0-1.0-540.0","0","0","23500","","null","","","null","59","","","","","","","","","","","","","","","NaN",""
"","S1","","html-keyboard-response","391","454774","0.0-1.0-542.0","0","0","23500","","null","","","null","60","","","","","","","","","","","","","","","",""
"","ISI","","html-keyboard-response","392","456785","0.0-1.0-543.0","0","0","23500","","null","","","null","60","NaN","","","","","","","","","","","","","","",""
"","S2","","html-keyboard-response","393","456944","0.0-1.0-544.0","0","0","23500","","null","","","null","60","","NaN","","","","","","","","","","","","","",""
"","response","","html-keyboard-response","394","458394","0.0-1.0-545.0-0.0","0","0","23500","","1446","","","68","60","","","2","60","training","adjacent","ED","5","4","N.jpg","R.jpg","1","0","0","",""
"","feedback","","html-keyboard-response","395","459408","0.0-1.0-546.0-0.0","0","0","23500","","null","","","null","60","","","","","","","","","","","","","","","",""
"","time_out","","html-keyboard-response","396","461424","0.0-1.0-548.0-0.0","0","0","23500","","null","","","null","60","","","","","","","","","","","","","","","",""
"","ITI","","html-keyboard-response","397","462435","0.0-1.0-549.0","0","0","23500","","null","","","null","60","","","","","","","","","","","","","","","NaN",""
"","S1","","html-keyboard-response","398","462597","0.0-1.0-551.0","0","0","23500","","null","","","null","61","","","","","","","","","","","","","","","",""
"","ISI","","html-keyboard-response","399","464606","0.0-1.0-552.0","0","0","23500","","null","","","null","61","NaN","","","","","","","","","","","","","","",""
"","S2","","html-keyboard-response","400","464768","0.0-1.0-553.0","0","0","23500","","null","","","null","61","","NaN","","","","","","","","","","","","","",""
"","response","","html-keyboard-response","401","465238","0.0-1.0-554.0-0.0","0","0","23500","","465","","","75","61","","","2","61","training","adjacent","FE","6","5","O.jpg","N.jpg","0","0","1","",""
"","feedback","","html-keyboard-response","402","466246","0.0-1.0-555.0-0.0","0","0","23500","","null","","","null","61","","","","","","","","","","","","","","","",""
"","ITI","","html-keyboard-response","403","467253","0.0-1.0-558.0","0","0","23500","","null","","","null","61","","","","","","","","","","","","","","","NaN",""
"","S1","","html-keyboard-response","404","467413","0.0-1.0-560.0","0","0","23500","","null","","","null","62","","","","","","","","","","","","","","","",""
"","ISI","","html-keyboard-response","405","469424","0.0-1.0-561.0","0","0","23500","","null","","","null","62","NaN","","","","","","","","","","","","","","",""
"","S2","","html-keyboard-response","406","469584","0.0-1.0-562.0","0","0","23500","","null","","","null","62","","NaN","","","","","","","","","","","","","",""
"","response","","html-keyboard-response","407","470432","0.0-1.0-563.0-0.0","0","0","23500","","844","","","68","62","","","2","62","training","adjacent","BA","2","1","M.jpg","P.jpg","1","0","0","",""
"","feedback","","html-keyboard-response","408","471445","0.0-1.0-564.0-0.0","0","0","23500","","null","","","null","62","","","","","","","","","","","","","","","",""
"","time_out","","html-keyboard-response","409","473453","0.0-1.0-566.0-0.0","0","0","23500","","null","","","null","62","","","","","","","","","","","","","","","",""
"","ITI","","html-keyboard-response","410","474464","0.0-1.0-567.0","0","0","23500","","null","","","null","62","","","","","","","","","","","","","","","NaN",""
"","S1","","html-keyboard-response","411","474624","0.0-1.0-569.0","0","0","23500","","null","","","null","63","","","","","","","","","","","","","","","",""
"","ISI","","html-keyboard-response","412","476640","0.0-1.0-570.0","0","0","23500","","null","","","null","63","NaN","","","","","","","","","","","","","","",""
"","S2","","html-keyboard-response","413","476800","0.0-1.0-571.0","0","0","23500","","null","","","null","63","","NaN","","","","","","","","","","","","","",""
"","response","","html-keyboard-response","414","478661","0.0-1.0-572.0-0.0","0","0","23500","","null","","","null","63","","","2","63","training","adjacent","DC","4","3","R.jpg","Q.jpg","NaN","0","0","",""
"","too_slow_prompt","","html-keyboard-response","415","479669","0.0-1.0-574.0-0.0","1","0","23500","","null","","","null","","","","","","","","","","","","","","","","",""
"","time_out","","html-keyboard-response","416","481679","0.0-1.0-575.0-0.0","0","0","23500","","null","","","null","63","","","","","","","","","","","","","","","",""
"","ITI","","html-keyboard-response","417","482693","0.0-1.0-576.0","0","0","23500","","null","","","null","63","","","","","","","","","","","","","","","NaN",""
"","S1","","html-keyboard-response","418","482853","0.0-1.0-578.0","0","0","23500","","null","","","null","64","","","","","","","","","","","","","","","",""
"","ISI","","html-keyboard-response","419","484863","0.0-1.0-579.0","0","0","23500","","null","","","null","64","NaN","","","","","","","","","","","","","","",""
"","S2","","html-keyboard-response","420","485023","0.0-1.0-580.0","0","0","23500","","null","","","null","64","","NaN","","","","","","","","","","","","","",""
"","response","","html-keyboard-response","421","485564","0.0-1.0-581.0-0.0","0","0","23500","","537","","","75","64","","","2","64","training","adjacent","FE","6","5","O.jpg","N.jpg","0","0","1","",""
"","feedback","","html-keyboard-response","422","486575","0.0-1.0-582.0-0.0","0","0","23500","","null","","","null","64","","","","","","","","","","","","","","","",""
"","ITI","","html-keyboard-response","423","487588","0.0-1.0-585.0","0","0","23500","","null","","","null","64","","","","","","","","","","","","","","","NaN",""
"","S1","","html-keyboard-response","424","487748","0.0-1.0-587.0","0","0","23500","","null","","","null","65","","","","","","","","","","","","","","","",""
"","ISI","","html-keyboard-response","425","489759","0.0-1.0-588.0","0","0","23500","","null","","","null","65","NaN","","","","","","","","","","","","","","",""
"","S2","","html-keyboard-response","426","489919","0.0-1.0-589.0","0","0","23500","","null","","","null","65","","NaN","","","","","","","","","","","","","",""
"","response","","html-keyboard-response","427","490756","0.0-1.0-590.0-0.0","0","0","23500","","833","","","75","65","","","2","65","training","adjacent","AB","1","2","P.jpg","M.jpg","0","1","0","",""
"","feedback","","html-keyboard-response","428","491764","0.0-1.0-591.0-0.0","0","0","23500","","null","","","null","65","","","","","","","","","","","","","","","",""
"","time_out","","html-keyboard-response","429","493775","0.0-1.0-593.0-0.0","0","0","23500","","null","","","null","65","","","","","","","","","","","","","","","",""
"","ITI","","html-keyboard-response","430","494788","0.0-1.0-594.0","0","0","23500","","null","","","null","65","","","","","","","","","","","","","","","NaN",""
"","S1","","html-keyboard-response","431","494948","0.0-1.0-596.0","0","0","23500","","null","","","null","66","","","","","","","","","","","","","","","",""
"","ISI","","html-keyboard-response","432","496959","0.0-1.0-597.0","0","0","23500","","null","","","null","66","NaN","","","","","","","","","","","","","","",""
"","S2","","html-keyboard-response","433","497119","0.0-1.0-598.0","0","0","23500","","null","","","null","66","","NaN","","","","","","","","","","","","","",""
"","response","","html-keyboard-response","434","497922","0.0-1.0-599.0-0.0","0","0","23500","","798","","","68","66","","","2","66","training","adjacent","FG","6","7","O.jpg","L.jpg","1","1","1","",""
"","feedback","","html-keyboard-response","435","498932","0.0-1.0-600.0-0.0","0","0","23500","","null","","","null","66","","","","","","","","","","","","","","","",""
"","ITI","","html-keyboard-response","436","499940","0.0-1.0-603.0","0","0","23500","","null","","","null","66","","","","","","","","","","","","","","","NaN",""
"","S1","","html-keyboard-response","437","500099","0.0-1.0-605.0","0","0","23500","","null","","","null","67","","","","","","","","","","","","","","","",""
"","ISI","","html-keyboard-response","438","502110","0.0-1.0-606.0","0","0","23500","","null","","","null","67","NaN","","","","","","","","","","","","","","",""
"","S2","","html-keyboard-response","439","502270","0.0-1.0-607.0","0","0","23500","","null","","","null","67","","NaN","","","","","","","","","","","","","",""
"","response","","html-keyboard-response","440","503024","0.0-1.0-608.0-0.0","0","0","23500","","749","","","75","67","","","2","67","training","adjacent","AB","1","2","P.jpg","M.jpg","0","1","0","",""
"","feedback","","html-keyboard-response","441","504036","0.0-1.0-609.0-0.0","0","0","23500","","null","","","null","67","","","","","","","","","","","","","","","",""
"","time_out","","html-keyboard-response","442","506047","0.0-1.0-611.0-0.0","0","0","23500","","null","","","null","67","","","","","","","","","","","","","","","",""
"","ITI","","html-keyboard-response","443","507060","0.0-1.0-612.0","0","0","23500","","null","","","null","67","","","","","","","","","","","","","","","NaN",""
"","S1","","html-keyboard-response","444","507220","0.0-1.0-614.0","0","0","23500","","null","","","null","68","","","","","","","","","","","","","","","",""
"","ISI","","html-keyboard-response","445","509230","0.0-1.0-615.0","0","0","23500","","null","","","null","68","NaN","","","","","","","","","","","","","","",""
"","S2","","html-keyboard-response","446","509390","0.0-1.0-616.0","0","0","23500","","null","","","null","68","","NaN","","","","","","","","","","","","","",""
"","response","","html-keyboard-response","447","510002","0.0-1.0-617.0-0.0","0","0","23500","","608","","","68","68","","","2","68","training","adjacent","DC","4","3","R.jpg","Q.jpg","1","0","0","",""
"","feedback","","html-keyboard-response","448","511011","0.0-1.0-618.0-0.0","0","0","23500","","null","","","null","68","","","","","","","","","","","","","","","",""
"","time_out","","html-keyboard-response","449","513022","0.0-1.0-620.0-0.0","0","0","23500","","null","","","null","68","","","","","","","","","","","","","","","",""
"","ITI","","html-keyboard-response","450","514035","0.0-1.0-621.0","0","0","23500","","null","","","null","68","","","","","","","","","","","","","","","NaN",""
"","S1","","html-keyboard-response","451","514195","0.0-1.0-623.0","0","0","23500","","null","","","null","69","","","","","","","","","","","","","","","",""
"","ISI","","html-keyboard-response","452","516206","0.0-1.0-624.0","0","0","23500","","null","","","null","69","NaN","","","","","","","","","","","","","","",""
"","S2","","html-keyboard-response","453","516366","0.0-1.0-625.0","0","0","23500","","null","","","null","69","","NaN","","","","","","","","","","","","","",""
"","response","","html-keyboard-response","454","517208","0.0-1.0-626.0-0.0","0","0","23500","","837","","","75","69","","","2","69","training","adjacent","ED","5","4","N.jpg","R.jpg","0","0","1","",""
"","feedback","","html-keyboard-response","455","518221","0.0-1.0-627.0-0.0","0","0","23500","","null","","","null","69","","","","","","","","","","","","","","","",""
"","ITI","","html-keyboard-response","456","519235","0.0-1.0-630.0","0","0","23500","","null","","","null","69","","","","","","","","","","","","","","","NaN",""
"","S1","","html-keyboard-response","457","519395","0.0-1.0-632.0","0","0","23500","","null","","","null","70","","","","","","","","","","","","","","","",""
"","ISI","","html-keyboard-response","458","521406","0.0-1.0-633.0","0","0","23500","","null","","","null","70","NaN","","","","","","","","","","","","","","",""
"","S2","","html-keyboard-response","459","521566","0.0-1.0-634.0","0","0","23500","","null","","","null","70","","NaN","","","","","","","","","","","","","",""
"","response","","html-keyboard-response","460","522116","0.0-1.0-635.0-0.0","0","0","23500","","546","","","68","70","","","2","70","training","adjacent","BC","2","3","M.jpg","Q.jpg","1","1","1","",""
"","feedback","","html-keyboard-response","461","523123","0.0-1.0-636.0-0.0","0","0","23500","","null","","","null","70","","","","","","","","","","","","","","","",""
"","ITI","","html-keyboard-response","462","524131","0.0-1.0-639.0","0","0","23500","","null","","","null","70","","","","","","","","","","","","","","","NaN",""
"","S1","","html-keyboard-response","463","524291","0.0-1.0-641.0","0","0","23500","","null","","","null","71","","","","","","","","","","","","","","","",""
"","ISI","","html-keyboard-response","464","526302","0.0-1.0-642.0","0","0","23500","","null","","","null","71","NaN","","","","","","","","","","","","","","",""
"","S2","","html-keyboard-response","465","526461","0.0-1.0-643.0","0","0","23500","","null","","","null","71","","NaN","","","","","","","","","","","","","",""
"","response","","html-keyboard-response","466","527101","0.0-1.0-644.0-0.0","0","0","23500","","635","","","75","71","","","2","71","training","adjacent","CD","3","4","Q.jpg","R.jpg","0","1","0","",""
"","feedback","","html-keyboard-response","467","528115","0.0-1.0-645.0-0.0","0","0","23500","","null","","","null","71","","","","","","","","","","","","","","","",""
"","time_out","","html-keyboard-response","468","530125","0.0-1.0-647.0-0.0","0","0","23500","","null","","","null","71","","","","","","","","","","","","","","","",""
"","ITI","","html-keyboard-response","469","531139","0.0-1.0-648.0","0","0","23500","","null","","","null","71","","","","","","","","","","","","","","","NaN",""
"","S1","","html-keyboard-response","470","531299","0.0-1.0-650.0","0","0","23500","","null","","","null","72","","","","","","","","","","","","","","","",""
"","ISI","","html-keyboard-response","471","533309","0.0-1.0-651.0","0","0","23500","","null","","","null","72","NaN","","","","","","","","","","","","","","",""
"","S2","","html-keyboard-response","472","533469","0.0-1.0-652.0","0","0","23500","","null","","","null","72","","NaN","","","","","","","","","","","","","",""
"","response","","html-keyboard-response","473","534194","0.0-1.0-653.0-0.0","0","0","23500","","720","","","68","72","","","2","72","training","adjacent","DE","4","5","R.jpg","N.jpg","1","1","1","",""
"","feedback","","html-keyboard-response","474","535202","0.0-1.0-654.0-0.0","0","0","23500","","null","","","null","72","","","","","","","","","","","","","","","",""
"","ITI","","html-keyboard-response","475","536210","0.0-1.0-657.0","0","0","23500","","null","","","null","72","","","","","","","","","","","","","","","NaN",""
"","S1","","html-keyboard-response","476","536370","0.0-1.0-659.0","0","0","23500","","null","","","null","73","","","","","","","","","","","","","","","",""
"","ISI","","html-keyboard-response","477","538381","0.0-1.0-660.0","0","0","23500","","null","","","null","73","NaN","","","","","","","","","","","","","","",""
"","S2","","html-keyboard-response","478","538541","0.0-1.0-661.0","0","0","23500","","null","","","null","73","","NaN","","","","","","","","","","","","","",""
"","response","","html-keyboard-response","479","539082","0.0-1.0-662.0-0.0","0","0","23500","","536","","","75","73","","","2","73","training","adjacent","GF","7","6","L.jpg","O.jpg","0","0","1","",""
"","feedback","","html-keyboard-response","480","540093","0.0-1.0-663.0-0.0","0","0","23500","","null","","","null","73","","","","","","","","","","","","","","","",""
"","ITI","","html-keyboard-response","481","541106","0.0-1.0-666.0","0","0","23500","","null","","","null","73","","","","","","","","","","","","","","","NaN",""
"","S1","","html-keyboard-response","482","541266","0.0-1.0-668.0","0","0","23500","","null","","","null","74","","","","","","","","","","","","","","","",""
"","ISI","","html-keyboard-response","483","543277","0.0-1.0-669.0","0","0","23500","","null","","","null","74","NaN","","","","","","","","","","","","","","",""
"","S2","","html-keyboard-response","484","543437","0.0-1.0-670.0","0","0","23500","","null","","","null","74","","NaN","","","","","","","","","","","","","",""
"","response","","html-keyboard-response","485","544010","0.0-1.0-671.0-0.0","0","0","23500","","568","","","75","74","","","2","74","training","adjacent","AB","1","2","P.jpg","M.jpg","0","1","0","",""
"","feedback","","html-keyboard-response","486","545021","0.0-1.0-672.0-0.0","0","0","23500","","null","","","null","74","","","","","","","","","","","","","","","",""
"","time_out","","html-keyboard-response","487","547037","0.0-1.0-674.0-0.0","0","0","23500","","null","","","null","74","","","","","","","","","","","","","","","",""
"","ITI","","html-keyboard-response","488","548050","0.0-1.0-675.0","0","0","23500","","null","","","null","74","","","","","","","","","","","","","","","NaN",""
"","S1","","html-keyboard-response","489","548210","0.0-1.0-677.0","0","0","23500","","null","","","null","75","","","","","","","","","","","","","","","",""
"","ISI","","html-keyboard-response","490","550220","0.0-1.0-678.0","0","0","23500","","null","","","null","75","NaN","","","","","","","","","","","","","","",""
"","S2","","html-keyboard-response","491","550380","0.0-1.0-679.0","0","0","23500","","null","","","null","75","","NaN","","","","","","","","","","","","","",""
"","response","","html-keyboard-response","492","551221","0.0-1.0-680.0-0.0","0","0","23500","","835","","","68","75","","","2","75","training","adjacent","GF","7","6","L.jpg","O.jpg","1","0","0","",""
"","feedback","","html-keyboard-response","493","552236","0.0-1.0-681.0-0.0","0","0","23500","","null","","","null","75","","","","","","","","","","","","","","","",""
"","time_out","","html-keyboard-response","494","554252","0.0-1.0-683.0-0.0","0","0","23500","","null","","","null","75","","","","","","","","","","","","","","","",""
"","ITI","","html-keyboard-response","495","555265","0.0-1.0-684.0","0","0","23500","","null","","","null","75","","","","","","","","","","","","","","","NaN",""
"","S1","","html-keyboard-response","496","555425","0.0-1.0-686.0","0","0","23500","","null","","","null","76","","","","","","","","","","","","","","","",""
"","ISI","","html-keyboard-response","497","557436","0.0-1.0-687.0","0","0","23500","","null","","","null","76","NaN","","","","","","","","","","","","","","",""
"","S2","","html-keyboard-response","498","557596","0.0-1.0-688.0","0","0","23500","","null","","","null","76","","NaN","","","","","","","","","","","","","",""
"","response","","html-keyboard-response","499","558255","0.0-1.0-689.0-0.0","0","0","23500","","654","","","68","76","","","2","76","training","adjacent","BA","2","1","M.jpg","P.jpg","1","0","0","",""
"","feedback","","html-keyboard-response","500","559265","0.0-1.0-690.0-0.0","0","0","23500","","null","","","null","76","","","","","","","","","","","","","","","",""
"","time_out","","html-keyboard-response","501","561276","0.0-1.0-692.0-0.0","0","0","23500","","null","","","null","76","","","","","","","","","","","","","","","",""
"","ITI","","html-keyboard-response","502","562289","0.0-1.0-693.0","0","0","23500","","null","","","null","76","","","","","","","","","","","","","","","NaN",""
"","S1","","html-keyboard-response","503","562449","0.0-1.0-695.0","0","0","23500","","null","","","null","77","","","","","","","","","","","","","","","",""
"","ISI","","html-keyboard-response","504","564460","0.0-1.0-696.0","0","0","23500","","null","","","null","77","NaN","","","","","","","","","","","","","","",""
"","S2","","html-keyboard-response","505","564620","0.0-1.0-697.0","0","0","23500","","null","","","null","77","","NaN","","","","","","","","","","","","","",""
"","response","","html-keyboard-response","506","564951","0.0-1.0-698.0-0.0","0","0","23500","","327","","","75","77","","","2","77","training","adjacent","BC","2","3","M.jpg","Q.jpg","0","1","0","",""
"","feedback","","html-keyboard-response","507","565964","0.0-1.0-699.0-0.0","0","0","23500","","null","","","null","77","","","","","","","","","","","","","","","",""
"","time_out","","html-keyboard-response","508","567980","0.0-1.0-701.0-0.0","0","0","23500","","null","","","null","77","","","","","","","","","","","","","","","",""
"","ITI","","html-keyboard-response","509","568993","0.0-1.0-702.0","0","0","23500","","null","","","null","77","","","","","","","","","","","","","","","NaN",""
"","S1","","html-keyboard-response","510","569153","0.0-1.0-704.0","0","0","23500","","null","","","null","78","","","","","","","","","","","","","","","",""
"","ISI","","html-keyboard-response","511","571163","0.0-1.0-705.0","0","0","23500","","null","","","null","78","NaN","","","","","","","","","","","","","","",""
"","S2","","html-keyboard-response","512","571252","0.0-1.0-706.0","0","0","23500","","84","","","75","78","","k","2","78","training","adjacent","DE","4","5","R.jpg","N.jpg","0","1","0","",""
"","feedback","","html-keyboard-response","513","572268","0.0-1.0-708.0-0.0","0","0","23500","","null","","","null","78","","","","","","","","","","","","","","","",""
"","time_out","","html-keyboard-response","514","574283","0.0-1.0-710.0-0.0","0","0","23500","","null","","","null","78","","","","","","","","","","","","","","","",""
"","ITI","","html-keyboard-response","515","575298","0.0-1.0-711.0","0","0","23500","","null","","","null","78","","","","","","","","","","","","","","","NaN",""
"","S1","","html-keyboard-response","516","575455","0.0-1.0-713.0","0","0","23500","","null","","","null","79","","","","","","","","","","","","","","","",""
"","ISI","","html-keyboard-response","517","577464","0.0-1.0-714.0","0","0","23500","","null","","","null","79","NaN","","","","","","","","","","","","","","",""
"","S2","","html-keyboard-response","518","577627","0.0-1.0-715.0","0","0","23500","","null","","","null","79","","NaN","","","","","","","","","","","","","",""
"","response","","html-keyboard-response","519","578499","0.0-1.0-716.0-0.0","0","0","23500","","867","","","75","79","","","2","79","training","adjacent","BC","2","3","M.jpg","Q.jpg","0","1","0","",""
"","feedback","","html-keyboard-response","520","579515","0.0-1.0-717.0-0.0","0","0","23500","","null","","","null","79","","","","","","","","","","","","","","","",""
"","time_out","","html-keyboard-response","521","581531","0.0-1.0-719.0-0.0","0","0","23500","","null","","","null","79","","","","","","","","","","","","","","","",""
"","ITI","","html-keyboard-response","522","582544","0.0-1.0-720.0","0","0","23500","","null","","","null","79","","","","","","","","","","","","","","","NaN",""
"","S1","","html-keyboard-response","523","582704","0.0-1.0-722.0","0","0","23500","","null","","","null","80","","","","","","","","","","","","","","","",""
"","ISI","","html-keyboard-response","524","584713","0.0-1.0-723.0","0","0","23500","","null","","","null","80","NaN","","","","","","","","","","","","","","",""
"","S2","","html-keyboard-response","525","584875","0.0-1.0-724.0","0","0","23500","","null","","","null","80","","NaN","","","","","","","","","","","","","",""
"","response","","html-keyboard-response","526","585757","0.0-1.0-725.0-0.0","0","0","23500","","877","","","68","80","","","2","80","training","adjacent","GF","7","6","L.jpg","O.jpg","1","0","0","",""
"","feedback","","html-keyboard-response","527","586768","0.0-1.0-726.0-0.0","0","0","23500","","null","","","null","80","","","","","","","","","","","","","","","",""
"","time_out","","html-keyboard-response","528","588779","0.0-1.0-728.0-0.0","0","0","23500","","null","","","null","80","","","","","","","","","","","","","","","",""
"","ITI","","html-keyboard-response","529","589792","0.0-1.0-729.0","0","0","23500","","null","","","null","80","","","","","","","","","","","","","","","NaN",""
"","S1","","html-keyboard-response","530","589952","0.0-1.0-731.0","0","0","23500","","null","","","null","81","","","","","","","","","","","","","","","",""
"","ISI","","html-keyboard-response","531","591963","0.0-1.0-732.0","0","0","23500","","null","","","null","81","NaN","","","","","","","","","","","","","","",""
"","S2","","html-keyboard-response","532","592122","0.0-1.0-733.0","0","0","23500","","null","","","null","81","","NaN","","","","","","","","","","","","","",""
"","response","","html-keyboard-response","533","593161","0.0-1.0-734.0-0.0","0","0","23500","","1035","","","75","81","","","2","81","training","adjacent","FG","6","7","O.jpg","L.jpg","0","1","0","",""
"","feedback","","html-keyboard-response","534","594176","0.0-1.0-735.0-0.0","0","0","23500","","null","","","null","81","","","","","","","","","","","","","","","",""
"","time_out","","html-keyboard-response","535","596186","0.0-1.0-737.0-0.0","0","0","23500","","null","","","null","81","","","","","","","","","","","","","","","",""
"","ITI","","html-keyboard-response","536","597200","0.0-1.0-738.0","0","0","23500","","null","","","null","81","","","","","","","","","","","","","","","NaN",""
"","S1","","html-keyboard-response","537","597360","0.0-1.0-740.0","0","0","23500","","null","","","null","82","","","","","","","","","","","","","","","",""
"","ISI","","html-keyboard-response","538","599370","0.0-1.0-741.0","0","0","23500","","null","","","null","82","NaN","","","","","","","","","","","","","","",""
"","S2","","html-keyboard-response","539","599530","0.0-1.0-742.0","0","0","23500","","null","","","null","82","","NaN","","","","","","","","","","","","","",""
"","response","","html-keyboard-response","540","600559","0.0-1.0-743.0-0.0","0","0","23500","","1027","","","68","82","","","2","82","training","adjacent","CB","3","2","Q.jpg","M.jpg","1","0","0","",""
"","feedback","","html-keyboard-response","541","601567","0.0-1.0-744.0-0.0","0","0","23500","","null","","","null","82","","","","","","","","","","","","","","","",""
"","time_out","","html-keyboard-response","542","603578","0.0-1.0-746.0-0.0","0","0","23500","","null","","","null","82","","","","","","","","","","","","","","","",""
"","ITI","","html-keyboard-response","543","604591","0.0-1.0-747.0","0","0","23500","","null","","","null","82","","","","","","","","","","","","","","","NaN",""
"","S1","","html-keyboard-response","544","604751","0.0-1.0-749.0","0","0","23500","","null","","","null","83","","","","","","","","","","","","","","","",""
"","ISI","","html-keyboard-response","545","606759","0.0-1.0-750.0","0","0","23500","","null","","","null","83","NaN","","","","","","","","","","","","","","",""
"","S2","","html-keyboard-response","546","606922","0.0-1.0-751.0","0","0","23500","","null","","","null","83","","NaN","","","","","","","","","","","","","",""
"","response","","html-keyboard-response","547","607491","0.0-1.0-752.0-0.0","0","0","23500","","564","","","75","83","","","2","83","training","adjacent","EF","5","6","N.jpg","O.jpg","0","1","0","",""
"","feedback","","html-keyboard-response","548","608506","0.0-1.0-753.0-0.0","0","0","23500","","null","","","null","83","","","","","","","","","","","","","","","",""
"","time_out","","html-keyboard-response","549","610522","0.0-1.0-755.0-0.0","0","0","23500","","null","","","null","83","","","","","","","","","","","","","","","",""
"","ITI","","html-keyboard-response","550","611535","0.0-1.0-756.0","0","0","23500","","null","","","null","83","","","","","","","","","","","","","","","NaN",""
"","S1","","html-keyboard-response","551","611695","0.0-1.0-758.0","0","0","23500","","null","","","null","84","","","","","","","","","","","","","","","",""
"","ISI","","html-keyboard-response","552","613705","0.0-1.0-759.0","0","0","23500","","null","","","null","84","NaN","","","","","","","","","","","","","","",""
"","S2","","html-keyboard-response","553","613866","0.0-1.0-760.0","0","0","23500","","null","","","null","84","","NaN","","","","","","","","","","","","","",""
"","response","","html-keyboard-response","554","614421","0.0-1.0-761.0-0.0","0","0","23500","","550","","","68","84","","","2","84","training","adjacent","CD","3","4","Q.jpg","R.jpg","1","1","1","",""
"","feedback","","html-keyboard-response","555","615434","0.0-1.0-762.0-0.0","0","0","23500","","null","","","null","84","","","","","","","","","","","","","","","",""
"","ITI","","html-keyboard-response","556","616447","0.0-1.0-765.0","0","0","23500","","null","","","null","84","","","","","","","","","","","","","","","NaN",""
"","S1","","html-keyboard-response","557","616607","0.0-1.0-767.0","0","0","23500","","null","","","null","85","","","","","","","","","","","","","","","",""
"","ISI","","html-keyboard-response","558","618617","0.0-1.0-768.0","0","0","23500","","null","","","null","85","NaN","","","","","","","","","","","","","","",""
"","S2","","html-keyboard-response","559","618777","0.0-1.0-769.0","0","0","23500","","null","","","null","85","","NaN","","","","","","","","","","","","","",""
"","response","","html-keyboard-response","560","619530","0.0-1.0-770.0-0.0","0","0","23500","","748","","","68","85","","","2","85","training","adjacent","DE","4","5","R.jpg","N.jpg","1","1","1","",""
"","feedback","","html-keyboard-response","561","620543","0.0-1.0-771.0-0.0","0","0","23500","","null","","","null","85","","","","","","","","","","","","","","","",""
"","ITI","","html-keyboard-response","562","621551","0.0-1.0-774.0","0","0","23500","","null","","","null","85","","","","","","","","","","","","","","","NaN",""
"","S1","","html-keyboard-response","563","621710","0.0-1.0-776.0","0","0","23500","","null","","","null","86","","","","","","","","","","","","","","","",""
"","ISI","","html-keyboard-response","564","623721","0.0-1.0-777.0","0","0","23500","","null","","","null","86","NaN","","","","","","","","","","","","","","",""
"","S2","","html-keyboard-response","565","623881","0.0-1.0-778.0","0","0","23500","","null","","","null","86","","NaN","","","","","","","","","","","","","",""
"","response","","html-keyboard-response","566","624491","0.0-1.0-779.0-0.0","0","0","23500","","605","","","68","86","","","2","86","training","adjacent","BA","2","1","M.jpg","P.jpg","1","0","0","",""
"","feedback","","html-keyboard-response","567","625502","0.0-1.0-780.0-0.0","0","0","23500","","null","","","null","86","","","","","","","","","","","","","","","",""
"","time_out","","html-keyboard-response","568","627513","0.0-1.0-782.0-0.0","0","0","23500","","null","","","null","86","","","","","","","","","","","","","","","",""
"","ITI","","html-keyboard-response","569","628526","0.0-1.0-783.0","0","0","23500","","null","","","null","86","","","","","","","","","","","","","","","NaN",""
"","S1","","html-keyboard-response","570","628686","0.0-1.0-785.0","0","0","23500","","null","","","null","87","","","","","","","","","","","","","","","",""
"","ISI","","html-keyboard-response","571","630697","0.0-1.0-786.0","0","0","23500","","null","","","null","87","NaN","","","","","","","","","","","","","","",""
"","S2","","html-keyboard-response","572","630855","0.0-1.0-787.0","0","0","23500","","null","","","null","87","","NaN","","","","","","","","","","","","","",""
"","response","","html-keyboard-response","573","631938","0.0-1.0-788.0-0.0","0","0","23500","","1080","","","68","87","","","2","87","training","adjacent","DE","4","5","R.jpg","N.jpg","1","1","1","",""
"","feedback","","html-keyboard-response","574","632953","0.0-1.0-789.0-0.0","0","0","23500","","null","","","null","87","","","","","","","","","","","","","","","",""
"","ITI","","html-keyboard-response","575","633965","0.0-1.0-792.0","0","0","23500","","null","","","null","87","","","","","","","","","","","","","","","NaN",""
"","S1","","html-keyboard-response","576","634126","0.0-1.0-794.0","0","0","23500","","null","","","null","88","","","","","","","","","","","","","","","",""
"","ISI","","html-keyboard-response","577","636137","0.0-1.0-795.0","0","0","23500","","null","","","null","88","NaN","","","","","","","","","","","","","","",""
"","S2","","html-keyboard-response","578","636297","0.0-1.0-796.0","0","0","23500","","null","","","null","88","","NaN","","","","","","","","","","","","","",""
"","response","","html-keyboard-response","579","637515","0.0-1.0-797.0-0.0","0","0","23500","","1214","","","68","88","","","2","88","training","adjacent","CB","3","2","Q.jpg","M.jpg","1","0","0","",""
"","feedback","","html-keyboard-response","580","638524","0.0-1.0-798.0-0.0","0","0","23500","","null","","","null","88","","","","","","","","","","","","","","","",""
"","time_out","","html-keyboard-response","581","640536","0.0-1.0-800.0-0.0","0","0","23500","","null","","","null","88","","","","","","","","","","","","","","","",""
"","ITI","","html-keyboard-response","582","641550","0.0-1.0-801.0","0","0","23500","","null","","","null","88","","","","","","","","","","","","","","","NaN",""
