"success","ttype","start_time","trial_type","trial_index","time_elapsed","internal_node_id","warning","missed_checkup","PID","view_history","rt","responses","repeat_instructions","key_press","index","keypress_isi","keypress_S2","block","trial_num","phase","group_type","pair_type","S1_stim","S2_stim","S1_img","S2_img","S1_chosen","S1_higher","accuracy","keypress_iti","total_bonus_tally"
"true","full_screen","d04132023hr1353","fullscreen","0","50774","0.0-0.0","0","0","67374","","","","","","","","","","","","","","","","","","","","","",""
"","instructions","","instructions","1","119330","0.0-1.0-0.0-0.0","0","0","67374","[{""page_index"":0,""viewing_time"":21778},{""page_index"":1,""viewing_time"":17434},{""page_index"":2,""viewing_time"":16685},{""page_index"":3,""viewing_time"":12655}]","68553","","","","","","","","","","","","","","","","","","","",""
"","comprehension_check","","survey-multi-choice","2","144085","0.0-1.0-0.0-1.0","0","0","67374","","24751","{""Q0"":""True"",""Q1"":""D"",""Q2"":""Only when the screen 'MAKE A CHOICE' is shown"",""Q3"":""Green mark"",""Q4"":""either D or K""}","1","","","","","","","","","","","","","","","","","",""
"","missed_instruction_checkup","","html-keyboard-response","3","146246","0.0-1.0-0.0-2.0-0.0","0","1","67374","","2157","","","32","","","","","","","","","","","","","","","","",""
"","instructions","","instructions","4","180790","0.0-1.0-0.1-0.1","0","0","67374","[{""page_index"":0,""viewing_time"":8309},{""page_index"":1,""viewing_time"":21684},{""page_index"":2,""viewing_time"":3093},{""page_index"":3,""viewing_time"":1456}]","34542","","","","","","","","","","","","","","","","","","","",""
"","comprehension_check","","survey-multi-choice","5","202360","0.0-1.0-0.1-1.1","0","0","67374","","21566","{""Q0"":""True"",""Q1"":""D"",""Q2"":""Once the second image appears and while the screen 'MAKE A CHOICE' is shown"",""Q3"":""Green mark"",""Q4"":""either D or K""}","0","","","","","","","","","","","","","","","","","",""
"","start_exp","","html-keyboard-response","6","203907","0.0-1.0-1.0","0","0","67374","","1545","","","32","","","","","","","","","","","","","","","","",""
"","S1","","html-keyboard-response","7","204162","0.0-1.0-2.0","0","0","67374","","null","","","null","0","","","","","","","","","","","","","","","",""
"","ISI","","html-keyboard-response","8","205165","0.0-1.0-3.0","0","0","67374","","null","","","null","0","NaN","","","","","","","","","","","","","","",""
"","S2","","html-keyboard-response","9","205418","0.0-1.0-4.0","0","0","67374","","null","","","null","0","","NaN","","","","","","","","","","","","","",""
"","response","","html-keyboard-response","10","206407","0.0-1.0-5.0-0.0","0","0","67374","","987","","","75","0","","","1","0","training","adjacent","ED","5","4","O.jpg","R.jpg","0","0","1","",""
"","feedback","","html-keyboard-response","11","207411","0.0-1.0-6.0-0.0","0","0","67374","","null","","","null","0","","","","","","","","","","","","","","","",""
"","ITI","","html-keyboard-response","12","208413","0.0-1.0-9.0","0","0","67374","","null","","","null","0","","","","","","","","","","","","","","","NaN",""
"","S1","","html-keyboard-response","13","208666","0.0-1.0-11.0","0","0","67374","","null","","","null","1","","","","","","","","","","","","","","","",""
"","ISI","","html-keyboard-response","14","209670","0.0-1.0-12.0","0","0","67374","","null","","","null","1","NaN","","","","","","","","","","","","","","",""
"","S2","","html-keyboard-response","15","209923","0.0-1.0-13.0","0","0","67374","","null","","","null","1","","NaN","","","","","","","","","","","","","",""
"","response","","html-keyboard-response","16","211155","0.0-1.0-14.0-0.0","0","0","67374","","1230","","","68","1","","","1","1","training","adjacent","BC","2","3","L.jpg","Q.jpg","1","1","1","",""
"","feedback","","html-keyboard-response","17","212158","0.0-1.0-15.0-0.0","0","0","67374","","null","","","null","1","","","","","","","","","","","","","","","",""
"","ITI","","html-keyboard-response","18","213162","0.0-1.0-18.0","0","0","67374","","null","","","null","1","","","","","","","","","","","","","","","NaN",""
"","S1","","html-keyboard-response","19","213414","0.0-1.0-20.0","0","0","67374","","null","","","null","2","","","","","","","","","","","","","","","",""
"","ISI","","html-keyboard-response","20","214417","0.0-1.0-21.0","0","0","67374","","null","","","null","2","NaN","","","","","","","","","","","","","","",""
"","S2","","html-keyboard-response","21","214670","0.0-1.0-22.0","0","0","67374","","null","","","null","2","","NaN","","","","","","","","","","","","","",""
"","response","","html-keyboard-response","22","215390","0.0-1.0-23.0-0.0","0","0","67374","","717","","","75","2","","","1","2","training","adjacent","ED","5","4","O.jpg","R.jpg","0","0","1","",""
"","feedback","","html-keyboard-response","23","216394","0.0-1.0-24.0-0.0","0","0","67374","","null","","","null","2","","","","","","","","","","","","","","","",""
"","ITI","","html-keyboard-response","24","217397","0.0-1.0-27.0","0","0","67374","","null","","","null","2","","","","","","","","","","","","","","","NaN",""
"","S1","","html-keyboard-response","25","217651","0.0-1.0-29.0","0","0","67374","","null","","","null","3","","","","","","","","","","","","","","","",""
"","ISI","","html-keyboard-response","26","218652","0.0-1.0-30.0","0","0","67374","","null","","","null","3","NaN","","","","","","","","","","","","","","",""
"","S2","","html-keyboard-response","27","218905","0.0-1.0-31.0","0","0","67374","","null","","","null","3","","NaN","","","","","","","","","","","","","",""
"","response","","html-keyboard-response","28","219332","0.0-1.0-32.0-0.0","0","0","67374","","425","","","68","3","","","1","3","training","adjacent","CB","3","2","Q.jpg","L.jpg","1","0","0","",""
"","feedback","","html-keyboard-response","29","220335","0.0-1.0-33.0-0.0","0","0","67374","","null","","","null","3","","","","","","","","","","","","","","","",""
"","time_out","","html-keyboard-response","30","222337","0.0-1.0-35.0-0.0","0","0","67374","","null","","","null","3","","","","","","","","","","","","","","","",""
"","ITI","","html-keyboard-response","31","223341","0.0-1.0-36.0","0","0","67374","","null","","","null","3","","","","","","","","","","","","","","","NaN",""
"","S1","","html-keyboard-response","32","223593","0.0-1.0-38.0","0","0","67374","","null","","","null","4","","","","","","","","","","","","","","","",""
"","ISI","","html-keyboard-response","33","224596","0.0-1.0-39.0","0","0","67374","","null","","","null","4","NaN","","","","","","","","","","","","","","",""
"","S2","","html-keyboard-response","34","224850","0.0-1.0-40.0","0","0","67374","","null","","","null","4","","NaN","","","","","","","","","","","","","",""
"","response","","html-keyboard-response","35","225344","0.0-1.0-41.0-0.0","0","0","67374","","492","","","75","4","","","1","4","training","adjacent","FG","6","7","P.jpg","N.jpg","0","1","0","",""
"","feedback","","html-keyboard-response","36","226348","0.0-1.0-42.0-0.0","0","0","67374","","null","","","null","4","","","","","","","","","","","","","","","",""
"","time_out","","html-keyboard-response","37","228351","0.0-1.0-44.0-0.0","0","0","67374","","null","","","null","4","","","","","","","","","","","","","","","",""
"","ITI","","html-keyboard-response","38","229355","0.0-1.0-45.0","0","0","67374","","null","","","null","4","","","","","","","","","","","","","","","NaN",""
"","S1","","html-keyboard-response","39","229607","0.0-1.0-47.0","0","0","67374","","null","","","null","5","","","","","","","","","","","","","","","",""
"","ISI","","html-keyboard-response","40","230610","0.0-1.0-48.0","0","0","67374","","null","","","null","5","NaN","","","","","","","","","","","","","","",""
"","S2","","html-keyboard-response","41","230864","0.0-1.0-49.0","0","0","67374","","null","","","null","5","","NaN","","","","","","","","","","","","","",""
"","response","","html-keyboard-response","42","231259","0.0-1.0-50.0-0.0","0","0","67374","","393","","","68","5","","","1","5","training","adjacent","GF","7","6","N.jpg","P.jpg","1","0","0","",""
"","feedback","","html-keyboard-response","43","232261","0.0-1.0-51.0-0.0","0","0","67374","","null","","","null","5","","","","","","","","","","","","","","","",""
"","time_out","","html-keyboard-response","44","234264","0.0-1.0-53.0-0.0","0","0","67374","","null","","","null","5","","","","","","","","","","","","","","","",""
"","ITI","","html-keyboard-response","45","235266","0.0-1.0-54.0","0","0","67374","","null","","","null","5","","","","","","","","","","","","","","","NaN",""
"","S1","","html-keyboard-response","46","235519","0.0-1.0-56.0","0","0","67374","","null","","","null","6","","","","","","","","","","","","","","","",""
"","ISI","","html-keyboard-response","47","236522","0.0-1.0-57.0","0","0","67374","","null","","","null","6","NaN","","","","","","","","","","","","","","",""
"","S2","","html-keyboard-response","48","236776","0.0-1.0-58.0","0","0","67374","","null","","","null","6","","NaN","","","","","","","","","","","","","",""
"","response","","html-keyboard-response","49","237130","0.0-1.0-59.0-0.0","0","0","67374","","352","","","68","6","","","1","6","training","adjacent","DC","4","3","R.jpg","Q.jpg","1","0","0","",""
"","feedback","","html-keyboard-response","50","238133","0.0-1.0-60.0-0.0","0","0","67374","","null","","","null","6","","","","","","","","","","","","","","","",""
"","time_out","","html-keyboard-response","51","240136","0.0-1.0-62.0-0.0","0","0","67374","","null","","","null","6","","","","","","","","","","","","","","","",""
"","ITI","","html-keyboard-response","52","241139","0.0-1.0-63.0","0","0","67374","","null","","","null","6","","","","","","","","","","","","","","","NaN",""
"","S1","","html-keyboard-response","53","241392","0.0-1.0-65.0","0","0","67374","","null","","","null","7","","","","","","","","","","","","","","","",""
"","ISI","","html-keyboard-response","54","242395","0.0-1.0-66.0","0","0","67374","","null","","","null","7","NaN","","","","","","","","","","","","","","",""
"","S2","","html-keyboard-response","55","242648","0.0-1.0-67.0","0","0","67374","","null","","","null","7","","NaN","","","","","","","","","","","","","",""
"","response","","html-keyboard-response","56","242672","0.0-1.0-68.0-0.0","0","0","67374","","22","","","75","7","","","1","7","training","adjacent","FE","6","5","P.jpg","O.jpg","0","0","1","",""
"","feedback","","html-keyboard-response","57","243675","0.0-1.0-69.0-0.0","0","0","67374","","null","","","null","7","","","","","","","","","","","","","","","",""
"","ITI","","html-keyboard-response","58","244679","0.0-1.0-72.0","0","0","67374","","null","","","null","7","","","","","","","","","","","","","","","NaN",""
"","S1","","html-keyboard-response","59","244932","0.0-1.0-74.0","0","0","67374","","null","","","null","8","","","","","","","","","","","","","","","",""
"","ISI","","html-keyboard-response","60","245934","0.0-1.0-75.0","0","0","67374","","null","","","null","8","NaN","","","","","","","","","","","","","","",""
"","S2","","html-keyboard-response","61","246187","0.0-1.0-76.0","0","0","67374","","null","","","null","8","","NaN","","","","","","","","","","","","","",""
"","response","","html-keyboard-response","62","246197","0.0-1.0-77.0-0.0","0","0","67374","","8","","","75","8","","","1","8","training","adjacent","FG","6","7","P.jpg","N.jpg","0","1","0","",""
"","feedback","","html-keyboard-response","63","247200","0.0-1.0-78.0-0.0","0","0","67374","","null","","","null","8","","","","","","","","","","","","","","","",""
"","time_out","","html-keyboard-response","64","249203","0.0-1.0-80.0-0.0","0","0","67374","","null","","","null","8","","","","","","","","","","","","","","","",""
"","ITI","","html-keyboard-response","65","250207","0.0-1.0-81.0","0","0","67374","","null","","","null","8","","","","","","","","","","","","","","","NaN",""
"","S1","","html-keyboard-response","66","250460","0.0-1.0-83.0","0","0","67374","","null","","","null","9","","","","","","","","","","","","","","","",""
"","ISI","","html-keyboard-response","67","251463","0.0-1.0-84.0","0","0","67374","","null","","","null","9","NaN","","","","","","","","","","","","","","",""
"","S2","","html-keyboard-response","68","251716","0.0-1.0-85.0","0","0","67374","","null","","","null","9","","NaN","","","","","","","","","","","","","",""
"","response","","html-keyboard-response","69","251926","0.0-1.0-86.0-0.0","0","0","67374","","208","","","68","9","","","1","9","training","adjacent","ED","5","4","O.jpg","R.jpg","1","0","0","",""
"","feedback","","html-keyboard-response","70","252929","0.0-1.0-87.0-0.0","0","0","67374","","null","","","null","9","","","","","","","","","","","","","","","",""
"","time_out","","html-keyboard-response","71","254932","0.0-1.0-89.0-0.0","0","0","67374","","null","","","null","9","","","","","","","","","","","","","","","",""
"","ITI","","html-keyboard-response","72","255935","0.0-1.0-90.0","0","0","67374","","null","","","null","9","","","","","","","","","","","","","","","NaN",""
"","S1","","html-keyboard-response","73","256189","0.0-1.0-92.0","0","0","67374","","null","","","null","10","","","","","","","","","","","","","","","",""
"","ISI","","html-keyboard-response","74","257192","0.0-1.0-93.0","0","0","67374","","null","","","null","10","NaN","","","","","","","","","","","","","","",""
"","S2","","html-keyboard-response","75","257445","0.0-1.0-94.0","0","0","67374","","250","","","75","10","","k","1","10","training","adjacent","DE","4","5","R.jpg","O.jpg","0","1","0","",""
"","feedback","","html-keyboard-response","76","258449","0.0-1.0-96.0-0.0","0","0","67374","","null","","","null","10","","","","","","","","","","","","","","","",""
"","time_out","","html-keyboard-response","77","260451","0.0-1.0-98.0-0.0","0","0","67374","","null","","","null","10","","","","","","","","","","","","","","","",""
"","ITI","","html-keyboard-response","78","261454","0.0-1.0-99.0","0","0","67374","","null","","","null","10","","","","","","","","","","","","","","","NaN",""
"","S1","","html-keyboard-response","79","261707","0.0-1.0-101.0","0","0","67374","","null","","","null","11","","","","","","","","","","","","","","","",""
"","ISI","","html-keyboard-response","80","262710","0.0-1.0-102.0","0","0","67374","","null","","","null","11","NaN","","","","","","","","","","","","","","",""
"","S2","","html-keyboard-response","81","262935","0.0-1.0-103.0","0","0","67374","","222","","","68","11","","d","1","11","training","adjacent","BC","2","3","L.jpg","Q.jpg","1","1","1","",""
"","feedback","","html-keyboard-response","82","263939","0.0-1.0-105.0-0.0","0","0","67374","","null","","","null","11","","","","","","","","","","","","","","","",""
"","ITI","","html-keyboard-response","83","264941","0.0-1.0-108.0","0","0","67374","","null","","","null","11","","","","","","","","","","","","","","","NaN",""
"","S1","","html-keyboard-response","84","265194","0.0-1.0-110.0","0","0","67374","","null","","","null","12","","","","","","","","","","","","","","","",""
"","ISI","","html-keyboard-response","85","266198","0.0-1.0-111.0","0","0","67374","","null","","","null","12","NaN","","","","","","","","","","","","","","",""
"","S2","","html-keyboard-response","86","266213","0.0-1.0-112.0","0","0","67374","","13","","","75","12","","k","1","12","training","adjacent","EF","5","6","O.jpg","P.jpg","0","1","0","",""
"","feedback","","html-keyboard-response","87","267216","0.0-1.0-114.0-0.0","0","0","67374","","null","","","null","12","","","","","","","","","","","","","","","",""
"","time_out","","html-keyboard-response","88","269218","0.0-1.0-116.0-0.0","0","0","67374","","null","","","null","12","","","","","","","","","","","","","","","",""
"","ITI","","html-keyboard-response","89","270221","0.0-1.0-117.0","0","0","67374","","null","","","null","12","","","","","","","","","","","","","","","NaN",""
"","S1","","html-keyboard-response","90","270473","0.0-1.0-119.0","0","0","67374","","null","","","null","13","","","","","","","","","","","","","","","",""
"","ISI","","html-keyboard-response","91","271482","0.0-1.0-120.0","0","0","67374","","null","","","null","13","NaN","","","","","","","","","","","","","","",""
"","S2","","html-keyboard-response","92","271729","0.0-1.0-121.0","0","0","67374","","245","","","68","13","","d","1","13","training","adjacent","BA","2","1","L.jpg","M.jpg","1","0","0","",""
"","feedback","","html-keyboard-response","93","272732","0.0-1.0-123.0-0.0","0","0","67374","","null","","","null","13","","","","","","","","","","","","","","","",""
"","time_out","","html-keyboard-response","94","274736","0.0-1.0-125.0-0.0","0","0","67374","","null","","","null","13","","","","","","","","","","","","","","","",""
"","ITI","","html-keyboard-response","95","275738","0.0-1.0-126.0","0","0","67374","","null","","","null","13","","","","","","","","","","","","","","","NaN",""
"","S1","","html-keyboard-response","96","275992","0.0-1.0-128.0","0","0","67374","","null","","","null","14","","","","","","","","","","","","","","","",""
"","ISI","","html-keyboard-response","97","276993","0.0-1.0-129.0","0","0","67374","","null","","","null","14","NaN","","","","","","","","","","","","","","",""
"","S2","","html-keyboard-response","98","277247","0.0-1.0-130.0","0","0","67374","","null","","","null","14","","NaN","","","","","","","","","","","","","",""
"","response","","html-keyboard-response","99","277366","0.0-1.0-131.0-0.0","0","0","67374","","117","","","68","14","","","1","14","training","adjacent","BA","2","1","L.jpg","M.jpg","1","0","0","",""
"","feedback","","html-keyboard-response","100","278369","0.0-1.0-132.0-0.0","0","0","67374","","null","","","null","14","","","","","","","","","","","","","","","",""
"","time_out","","html-keyboard-response","101","280371","0.0-1.0-134.0-0.0","0","0","67374","","null","","","null","14","","","","","","","","","","","","","","","",""
"","ITI","","html-keyboard-response","102","281375","0.0-1.0-135.0","0","0","67374","","null","","","null","14","","","","","","","","","","","","","","","NaN",""
"","S1","","html-keyboard-response","103","281629","0.0-1.0-137.0","0","0","67374","","null","","","null","15","","","","","","","","","","","","","","","",""
"","ISI","","html-keyboard-response","104","282632","0.0-1.0-138.0","0","0","67374","","null","","","null","15","NaN","","","","","","","","","","","","","","",""
"","S2","","html-keyboard-response","105","282884","0.0-1.0-139.0","0","0","67374","","null","","","null","15","","NaN","","","","","","","","","","","","","",""
"","response","","html-keyboard-response","106","282944","0.0-1.0-140.0-0.0","0","0","67374","","58","","","75","15","","","1","15","training","adjacent","AB","1","2","M.jpg","L.jpg","0","1","0","",""
"","feedback","","html-keyboard-response","107","283947","0.0-1.0-141.0-0.0","0","0","67374","","null","","","null","15","","","","","","","","","","","","","","","",""
"","time_out","","html-keyboard-response","108","285951","0.0-1.0-143.0-0.0","0","0","67374","","null","","","null","15","","","","","","","","","","","","","","","",""
"","ITI","","html-keyboard-response","109","286954","0.0-1.0-144.0","0","0","67374","","null","","","null","15","","","","","","","","","","","","","","","NaN",""
"","S1","","html-keyboard-response","110","287207","0.0-1.0-146.0","0","0","67374","","null","","","null","16","","","","","","","","","","","","","","","",""
"","ISI","","html-keyboard-response","111","288210","0.0-1.0-147.0","0","0","67374","","null","","","null","16","NaN","","","","","","","","","","","","","","",""
"","S2","","html-keyboard-response","112","288463","0.0-1.0-148.0","0","0","67374","","null","","","null","16","","NaN","","","","","","","","","","","","","",""
"","response","","html-keyboard-response","113","288477","0.0-1.0-149.0-0.0","0","0","67374","","10","","","68","16","","","1","16","training","adjacent","BA","2","1","L.jpg","M.jpg","1","0","0","",""
"","feedback","","html-keyboard-response","114","289480","0.0-1.0-150.0-0.0","0","0","67374","","null","","","null","16","","","","","","","","","","","","","","","",""
"","time_out","","html-keyboard-response","115","291483","0.0-1.0-152.0-0.0","0","0","67374","","null","","","null","16","","","","","","","","","","","","","","","",""
"","ITI","","html-keyboard-response","116","292486","0.0-1.0-153.0","0","0","67374","","null","","","null","16","","","","","","","","","","","","","","","NaN",""
"","S1","","html-keyboard-response","117","292739","0.0-1.0-155.0","0","0","67374","","null","","","null","17","","","","","","","","","","","","","","","",""
"","ISI","","html-keyboard-response","118","293742","0.0-1.0-156.0","0","0","67374","","null","","","null","17","NaN","","","","","","","","","","","","","","",""
"","S2","","html-keyboard-response","119","293995","0.0-1.0-157.0","0","0","67374","","null","","","null","17","","NaN","","","","","","","","","","","","","",""
"","response","","html-keyboard-response","120","294074","0.0-1.0-158.0-0.0","0","0","67374","","77","","","68","17","","","1","17","training","adjacent","DE","4","5","R.jpg","O.jpg","1","1","1","",""
"","feedback","","html-keyboard-response","121","295077","0.0-1.0-159.0-0.0","0","0","67374","","null","","","null","17","","","","","","","","","","","","","","","",""
"","ITI","","html-keyboard-response","122","296081","0.0-1.0-162.0","0","0","67374","","null","","","null","17","","","","","","","","","","","","","","","NaN",""
"","S1","","html-keyboard-response","123","296333","0.0-1.0-164.0","0","0","67374","","null","","","null","18","","","","","","","","","","","","","","","",""
"","ISI","","html-keyboard-response","124","297336","0.0-1.0-165.0","0","0","67374","","null","","","null","18","NaN","","","","","","","","","","","","","","",""
"","S2","","html-keyboard-response","125","297562","0.0-1.0-166.0","0","0","67374","","224","","","68","18","","d","1","18","training","adjacent","DC","4","3","R.jpg","Q.jpg","1","0","0","",""
"","feedback","","html-keyboard-response","126","298566","0.0-1.0-168.0-0.0","0","0","67374","","null","","","null","18","","","","","","","","","","","","","","","",""
"","time_out","","html-keyboard-response","127","300568","0.0-1.0-170.0-0.0","0","0","67374","","null","","","null","18","","","","","","","","","","","","","","","",""
"","ITI","","html-keyboard-response","128","301571","0.0-1.0-171.0","0","0","67374","","null","","","null","18","","","","","","","","","","","","","","","NaN",""
"","S1","","html-keyboard-response","129","301824","0.0-1.0-173.0","0","0","67374","","null","","","null","19","","","","","","","","","","","","","","","",""
"","ISI","","html-keyboard-response","130","302827","0.0-1.0-174.0","0","0","67374","","null","","","null","19","NaN","","","","","","","","","","","","","","",""
"","S2","","html-keyboard-response","131","303080","0.0-1.0-175.0","0","0","67374","","null","","","null","19","","NaN","","","","","","","","","","","","","",""
"","response","","html-keyboard-response","132","303139","0.0-1.0-176.0-0.0","0","0","67374","","56","","","68","19","","","1","19","training","adjacent","ED","5","4","O.jpg","R.jpg","1","0","0","",""
"","feedback","","html-keyboard-response","133","304142","0.0-1.0-177.0-0.0","0","0","67374","","null","","","null","19","","","","","","","","","","","","","","","",""
"","time_out","","html-keyboard-response","134","306145","0.0-1.0-179.0-0.0","0","0","67374","","null","","","null","19","","","","","","","","","","","","","","","",""
"","ITI","","html-keyboard-response","135","307149","0.0-1.0-180.0","0","0","67374","","null","","","null","19","","","","","","","","","","","","","","","NaN",""
"","S1","","html-keyboard-response","136","307401","0.0-1.0-182.0","0","0","67374","","null","","","null","20","","","","","","","","","","","","","","","",""
"","ISI","","html-keyboard-response","137","308405","0.0-1.0-183.0","0","0","67374","","null","","","null","20","NaN","","","","","","","","","","","","","","",""
"","S2","","html-keyboard-response","138","308656","0.0-1.0-184.0","0","0","67374","","248","","","75","20","","k","1","20","training","adjacent","GF","7","6","N.jpg","P.jpg","0","0","1","",""
"","feedback","","html-keyboard-response","139","309660","0.0-1.0-186.0-0.0","0","0","67374","","null","","","null","20","","","","","","","","","","","","","","","",""
"","ITI","","html-keyboard-response","140","310663","0.0-1.0-189.0","0","0","67374","","null","","","null","20","","","","","","","","","","","","","","","NaN",""
"","S1","","html-keyboard-response","141","310916","0.0-1.0-191.0","0","0","67374","","null","","","null","21","","","","","","","","","","","","","","","",""
"","ISI","","html-keyboard-response","142","311919","0.0-1.0-192.0","0","0","67374","","null","","","null","21","NaN","","","","","","","","","","","","","","",""
"","S2","","html-keyboard-response","143","312134","0.0-1.0-193.0","0","0","67374","","213","","","75","21","","k","1","21","training","adjacent","CB","3","2","Q.jpg","L.jpg","0","0","1","",""
"","feedback","","html-keyboard-response","144","313137","0.0-1.0-195.0-0.0","0","0","67374","","null","","","null","21","","","","","","","","","","","","","","","",""
"","ITI","","html-keyboard-response","145","314140","0.0-1.0-198.0","0","0","67374","","null","","","null","21","","","","","","","","","","","","","","","NaN",""
"","S1","","html-keyboard-response","146","314393","0.0-1.0-200.0","0","0","67374","","null","","","null","22","","","","","","","","","","","","","","","",""
"","ISI","","html-keyboard-response","147","315396","0.0-1.0-201.0","0","0","67374","","null","","","null","22","NaN","","","","","","","","","","","","","","",""
"","S2","","html-keyboard-response","148","315649","0.0-1.0-202.0","0","0","67374","","null","","","null","22","","NaN","","","","","","","","","","","","","",""
"","response","","html-keyboard-response","149","315701","0.0-1.0-203.0-0.0","0","0","67374","","50","","","75","22","","","1","22","training","adjacent","FG","6","7","P.jpg","N.jpg","0","1","0","",""
"","feedback","","html-keyboard-response","150","316704","0.0-1.0-204.0-0.0","0","0","67374","","null","","","null","22","","","","","","","","","","","","","","","",""
"","time_out","","html-keyboard-response","151","318707","0.0-1.0-206.0-0.0","0","0","67374","","null","","","null","22","","","","","","","","","","","","","","","",""
"","ITI","","html-keyboard-response","152","319710","0.0-1.0-207.0","0","0","67374","","null","","","null","22","","","","","","","","","","","","","","","NaN",""
"","S1","","html-keyboard-response","153","319963","0.0-1.0-209.0","0","0","67374","","null","","","null","23","","","","","","","","","","","","","","","",""
"","ISI","","html-keyboard-response","154","320966","0.0-1.0-210.0","0","0","67374","","null","","","null","23","NaN","","","","","","","","","","","","","","",""
"","S2","","html-keyboard-response","155","321220","0.0-1.0-211.0","0","0","67374","","null","","","null","23","","NaN","","","","","","","","","","","","","",""
"","response","","html-keyboard-response","156","321243","0.0-1.0-212.0-0.0","0","0","67374","","22","","","68","23","","","1","23","training","adjacent","EF","5","6","O.jpg","P.jpg","1","1","1","",""
"","feedback","","html-keyboard-response","157","322246","0.0-1.0-213.0-0.0","0","0","67374","","null","","","null","23","","","","","","","","","","","","","","","",""
"","ITI","","html-keyboard-response","158","323250","0.0-1.0-216.0","0","0","67374","","null","","","null","23","","","","","","","","","","","","","","","NaN",""
"","S1","","html-keyboard-response","159","323503","0.0-1.0-218.0","0","0","67374","","null","","","null","24","","","","","","","","","","","","","","","",""
"","ISI","","html-keyboard-response","160","324506","0.0-1.0-219.0","0","0","67374","","null","","","null","24","NaN","","","","","","","","","","","","","","",""
"","S2","","html-keyboard-response","161","324611","0.0-1.0-220.0","0","0","67374","","103","","","75","24","","k","1","24","training","adjacent","FE","6","5","P.jpg","O.jpg","0","0","1","",""
"","feedback","","html-keyboard-response","162","325615","0.0-1.0-222.0-0.0","0","0","67374","","null","","","null","24","","","","","","","","","","","","","","","",""
"","ITI","","html-keyboard-response","163","326618","0.0-1.0-225.0","0","0","67374","","null","","","null","24","","","","","","","","","","","","","","","NaN",""
"","S1","","html-keyboard-response","164","326872","0.0-1.0-227.0","0","0","67374","","null","","","null","25","","","","","","","","","","","","","","","",""
"","ISI","","html-keyboard-response","165","327875","0.0-1.0-228.0","0","0","67374","","null","","","null","25","NaN","","","","","","","","","","","","","","",""
"","S2","","html-keyboard-response","166","328128","0.0-1.0-229.0","0","0","67374","","null","","","null","25","","NaN","","","","","","","","","","","","","",""
"","response","","html-keyboard-response","167","328185","0.0-1.0-230.0-0.0","0","0","67374","","55","","","68","25","","","1","25","training","adjacent","CD","3","4","Q.jpg","R.jpg","1","1","1","",""
"","feedback","","html-keyboard-response","168","329188","0.0-1.0-231.0-0.0","0","0","67374","","null","","","null","25","","","","","","","","","","","","","","","",""
"","ITI","","html-keyboard-response","169","330191","0.0-1.0-234.0","0","0","67374","","null","","","null","25","","","","","","","","","","","","","","","NaN",""
"","S1","","html-keyboard-response","170","330445","0.0-1.0-236.0","0","0","67374","","null","","","null","26","","","","","","","","","","","","","","","",""
"","ISI","","html-keyboard-response","171","331448","0.0-1.0-237.0","0","0","67374","","null","","","null","26","NaN","","","","","","","","","","","","","","",""
"","S2","","html-keyboard-response","172","331475","0.0-1.0-238.0","0","0","67374","","25","","","75","26","","k","1","26","training","adjacent","DE","4","5","R.jpg","O.jpg","0","1","0","",""
"","feedback","","html-keyboard-response","173","332481","0.0-1.0-240.0-0.0","0","0","67374","","null","","","null","26","","","","","","","","","","","","","","","",""
"","time_out","","html-keyboard-response","174","334484","0.0-1.0-242.0-0.0","0","0","67374","","null","","","null","26","","","","","","","","","","","","","","","",""
"","ITI","","html-keyboard-response","175","335488","0.0-1.0-243.0","0","0","67374","","null","","","null","26","","","","","","","","","","","","","","","NaN",""
"","S1","","html-keyboard-response","176","335741","0.0-1.0-245.0","0","0","67374","","null","","","null","27","","","","","","","","","","","","","","","",""
"","ISI","","html-keyboard-response","177","336744","0.0-1.0-246.0","0","0","67374","","null","","","null","27","NaN","","","","","","","","","","","","","","",""
"","S2","","html-keyboard-response","178","336817","0.0-1.0-247.0","0","0","67374","","70","","","68","27","","d","1","27","training","adjacent","EF","5","6","O.jpg","P.jpg","1","1","1","",""
"","feedback","","html-keyboard-response","179","337821","0.0-1.0-249.0-0.0","0","0","67374","","null","","","null","27","","","","","","","","","","","","","","","",""
"","ITI","","html-keyboard-response","180","338824","0.0-1.0-252.0","0","0","67374","","null","","","null","27","","","","","","","","","","","","","","","NaN",""
"","S1","","html-keyboard-response","181","339078","0.0-1.0-254.0","0","0","67374","","null","","","null","28","","","","","","","","","","","","","","","",""
"","ISI","","html-keyboard-response","182","340081","0.0-1.0-255.0","0","0","67374","","349","","","75","28","k","","","","","","","","","","","","","","",""
"","S2","","html-keyboard-response","183","340334","0.0-1.0-256.0","0","0","67374","","null","","","null","28","","NaN","","","","","","","","","","","","","",""
"","response","","html-keyboard-response","184","341104","0.0-1.0-257.0-0.0","0","0","67374","","767","","","75","28","","","1","28","training","adjacent","GF","7","6","N.jpg","P.jpg","0","0","1","",""
"","feedback","","html-keyboard-response","185","342107","0.0-1.0-258.0-0.0","0","0","67374","","null","","","null","28","","","","","","","","","","","","","","","",""
"","ITI","","html-keyboard-response","186","343111","0.0-1.0-261.0","0","0","67374","","null","","","null","28","","","","","","","","","","","","","","","NaN",""
"","S1","","html-keyboard-response","187","343364","0.0-1.0-263.0","0","0","67374","","null","","","null","29","","","","","","","","","","","","","","","",""
"","ISI","","html-keyboard-response","188","344367","0.0-1.0-264.0","0","0","67374","","null","","","null","29","NaN","","","","","","","","","","","","","","",""
"","S2","","html-keyboard-response","189","344620","0.0-1.0-265.0","0","0","67374","","null","","","null","29","","NaN","","","","","","","","","","","","","",""
"","response","","html-keyboard-response","190","344853","0.0-1.0-266.0-0.0","0","0","67374","","230","","","68","29","","","1","29","training","adjacent","FG","6","7","P.jpg","N.jpg","1","1","1","",""
"","feedback","","html-keyboard-response","191","345857","0.0-1.0-267.0-0.0","0","0","67374","","null","","","null","29","","","","","","","","","","","","","","","",""
"","ITI","","html-keyboard-response","192","346860","0.0-1.0-270.0","0","0","67374","","null","","","null","29","","","","","","","","","","","","","","","NaN",""
"","S1","","html-keyboard-response","193","347113","0.0-1.0-272.0","0","0","67374","","null","","","null","30","","","","","","","","","","","","","","","",""
"","ISI","","html-keyboard-response","194","348116","0.0-1.0-273.0","0","0","67374","","null","","","null","30","NaN","","","","","","","","","","","","","","",""
"","S2","","html-keyboard-response","195","348370","0.0-1.0-274.0","0","0","67374","","null","","","null","30","","NaN","","","","","","","","","","","","","",""
"","response","","html-keyboard-response","196","348406","0.0-1.0-275.0-0.0","0","0","67374","","33","","","75","30","","","1","30","training","adjacent","CD","3","4","Q.jpg","R.jpg","0","1","0","",""
"","feedback","","html-keyboard-response","197","349410","0.0-1.0-276.0-0.0","0","0","67374","","null","","","null","30","","","","","","","","","","","","","","","",""
"","time_out","","html-keyboard-response","198","351412","0.0-1.0-278.0-0.0","0","0","67374","","null","","","null","30","","","","","","","","","","","","","","","",""
"","ITI","","html-keyboard-response","199","352415","0.0-1.0-279.0","0","0","67374","","null","","","null","30","","","","","","","","","","","","","","","NaN",""
"","S1","","html-keyboard-response","200","352668","0.0-1.0-281.0","0","0","67374","","null","","","null","31","","","","","","","","","","","","","","","",""
"","ISI","","html-keyboard-response","201","353671","0.0-1.0-282.0","0","0","67374","","null","","","null","31","NaN","","","","","","","","","","","","","","",""
"","S2","","html-keyboard-response","202","353925","0.0-1.0-283.0","0","0","67374","","null","","","null","31","","NaN","","","","","","","","","","","","","",""
"","response","","html-keyboard-response","203","354076","0.0-1.0-284.0-0.0","0","0","67374","","149","","","68","31","","","1","31","training","adjacent","AB","1","2","M.jpg","L.jpg","1","1","1","",""
"","feedback","","html-keyboard-response","204","355079","0.0-1.0-285.0-0.0","0","0","67374","","null","","","null","31","","","","","","","","","","","","","","","",""
"","ITI","","html-keyboard-response","205","356082","0.0-1.0-288.0","0","0","67374","","null","","","null","31","","","","","","","","","","","","","","","NaN",""
"","S1","","html-keyboard-response","206","356336","0.0-1.0-290.0","0","0","67374","","null","","","null","32","","","","","","","","","","","","","","","",""
"","ISI","","html-keyboard-response","207","357338","0.0-1.0-291.0","0","0","67374","","558","","","75","32","k","","","","","","","","","","","","","","",""
"","S2","","html-keyboard-response","208","357591","0.0-1.0-292.0","0","0","67374","","null","","","null","32","","NaN","","","","","","","","","","","","","",""
"","response","","html-keyboard-response","209","357905","0.0-1.0-293.0-0.0","0","0","67374","","312","","","75","32","","","1","32","training","adjacent","CB","3","2","Q.jpg","L.jpg","0","0","1","",""
"","feedback","","html-keyboard-response","210","358908","0.0-1.0-294.0-0.0","0","0","67374","","null","","","null","32","","","","","","","","","","","","","","","",""
"","ITI","","html-keyboard-response","211","359911","0.0-1.0-297.0","0","0","67374","","null","","","null","32","","","","","","","","","","","","","","","NaN",""
"","S1","","html-keyboard-response","212","360164","0.0-1.0-299.0","0","0","67374","","null","","","null","33","","","","","","","","","","","","","","","",""
"","ISI","","html-keyboard-response","213","361166","0.0-1.0-300.0","0","0","67374","","null","","","null","33","NaN","","","","","","","","","","","","","","",""
"","S2","","html-keyboard-response","214","361420","0.0-1.0-301.0","0","0","67374","","null","","","null","33","","NaN","","","","","","","","","","","","","",""
"","response","","html-keyboard-response","215","361581","0.0-1.0-302.0-0.0","0","0","67374","","160","","","68","33","","","1","33","training","adjacent","CD","3","4","Q.jpg","R.jpg","1","1","1","",""
"","feedback","","html-keyboard-response","216","362585","0.0-1.0-303.0-0.0","0","0","67374","","null","","","null","33","","","","","","","","","","","","","","","",""
"","ITI","","html-keyboard-response","217","363588","0.0-1.0-306.0","0","0","67374","","null","","","null","33","","","","","","","","","","","","","","","NaN",""
"","S1","","html-keyboard-response","218","363840","0.0-1.0-308.0","0","0","67374","","null","","","null","34","","","","","","","","","","","","","","","",""
"","ISI","","html-keyboard-response","219","364844","0.0-1.0-309.0","0","0","67374","","null","","","null","34","NaN","","","","","","","","","","","","","","",""
"","S2","","html-keyboard-response","220","365086","0.0-1.0-310.0","0","0","67374","","240","","","75","34","","k","1","34","training","adjacent","AB","1","2","M.jpg","L.jpg","0","1","0","",""
"","feedback","","html-keyboard-response","221","366089","0.0-1.0-312.0-0.0","0","0","67374","","null","","","null","34","","","","","","","","","","","","","","","",""
"","time_out","","html-keyboard-response","222","368093","0.0-1.0-314.0-0.0","0","0","67374","","null","","","null","34","","","","","","","","","","","","","","","",""
"","ITI","","html-keyboard-response","223","369096","0.0-1.0-315.0","0","0","67374","","null","","","null","34","","","","","","","","","","","","","","","NaN",""
"","S1","","html-keyboard-response","224","369349","0.0-1.0-317.0","0","0","67374","","null","","","null","35","","","","","","","","","","","","","","","",""
"","ISI","","html-keyboard-response","225","370352","0.0-1.0-318.0","0","0","67374","","null","","","null","35","NaN","","","","","","","","","","","","","","",""
"","S2","","html-keyboard-response","226","370456","0.0-1.0-319.0","0","0","67374","","101","","","68","35","","d","1","35","training","adjacent","CD","3","4","Q.jpg","R.jpg","1","1","1","",""
"","feedback","","html-keyboard-response","227","371460","0.0-1.0-321.0-0.0","0","0","67374","","null","","","null","35","","","","","","","","","","","","","","","",""
"","ITI","","html-keyboard-response","228","372463","0.0-1.0-324.0","0","0","67374","","null","","","null","35","","","","","","","","","","","","","","","NaN",""
"","S1","","html-keyboard-response","229","372717","0.0-1.0-326.0","0","0","67374","","null","","","null","36","","","","","","","","","","","","","","","",""
"","ISI","","html-keyboard-response","230","373719","0.0-1.0-327.0","0","0","67374","","null","","","null","36","NaN","","","","","","","","","","","","","","",""
"","S2","","html-keyboard-response","231","373972","0.0-1.0-328.0","0","0","67374","","null","","","null","36","","NaN","","","","","","","","","","","","","",""
"","response","","html-keyboard-response","232","374006","0.0-1.0-329.0-0.0","0","0","67374","","32","","","75","36","","","1","36","training","adjacent","CB","3","2","Q.jpg","L.jpg","0","0","1","",""
"","feedback","","html-keyboard-response","233","375010","0.0-1.0-330.0-0.0","0","0","67374","","null","","","null","36","","","","","","","","","","","","","","","",""
"","ITI","","html-keyboard-response","234","376012","0.0-1.0-333.0","0","0","67374","","null","","","null","36","","","","","","","","","","","","","","","NaN",""
"","S1","","html-keyboard-response","235","376266","0.0-1.0-335.0","0","0","67374","","null","","","null","37","","","","","","","","","","","","","","","",""
"","ISI","","html-keyboard-response","236","377269","0.0-1.0-336.0","0","0","67374","","null","","","null","37","NaN","","","","","","","","","","","","","","",""
"","S2","","html-keyboard-response","237","377523","0.0-1.0-337.0","0","0","67374","","null","","","null","37","","NaN","","","","","","","","","","","","","",""
"","response","","html-keyboard-response","238","377614","0.0-1.0-338.0-0.0","0","0","67374","","88","","","68","37","","","1","37","training","adjacent","BC","2","3","L.jpg","Q.jpg","1","1","1","",""
"","feedback","","html-keyboard-response","239","378616","0.0-1.0-339.0-0.0","0","0","67374","","null","","","null","37","","","","","","","","","","","","","","","",""
"","ITI","","html-keyboard-response","240","379618","0.0-1.0-342.0","0","0","67374","","null","","","null","37","","","","","","","","","","","","","","","NaN",""
"","S1","","html-keyboard-response","241","379871","0.0-1.0-344.0","0","0","67374","","null","","","null","38","","","","","","","","","","","","","","","",""
"","ISI","","html-keyboard-response","242","380875","0.0-1.0-345.0","0","0","67374","","null","","","null","38","NaN","","","","","","","","","","","","","","",""
"","S2","","html-keyboard-response","243","381128","0.0-1.0-346.0","0","0","67374","","null","","","null","38","","NaN","","","","","","","","","","","","","",""
"","response","","html-keyboard-response","244","381167","0.0-1.0-347.0-0.0","0","0","67374","","36","","","75","38","","","1","38","training","adjacent","BC","2","3","L.jpg","Q.jpg","0","1","0","",""
"","feedback","","html-keyboard-response","245","382170","0.0-1.0-348.0-0.0","0","0","67374","","null","","","null","38","","","","","","","","","","","","","","","",""
"","time_out","","html-keyboard-response","246","384172","0.0-1.0-350.0-0.0","0","0","67374","","null","","","null","38","","","","","","","","","","","","","","","",""
"","ITI","","html-keyboard-response","247","385176","0.0-1.0-351.0","0","0","67374","","null","","","null","38","","","","","","","","","","","","","","","NaN",""
"","S1","","html-keyboard-response","248","385429","0.0-1.0-353.0","0","0","67374","","null","","","null","39","","","","","","","","","","","","","","","",""
"","ISI","","html-keyboard-response","249","386432","0.0-1.0-354.0","0","0","67374","","null","","","null","39","NaN","","","","","","","","","","","","","","",""
"","S2","","html-keyboard-response","250","386685","0.0-1.0-355.0","0","0","67374","","null","","","null","39","","NaN","","","","","","","","","","","","","",""
"","response","","html-keyboard-response","251","386717","0.0-1.0-356.0-0.0","0","0","67374","","29","","","68","39","","","1","39","training","adjacent","FE","6","5","P.jpg","O.jpg","1","0","0","",""
"","feedback","","html-keyboard-response","252","387720","0.0-1.0-357.0-0.0","0","0","67374","","null","","","null","39","","","","","","","","","","","","","","","",""
"","time_out","","html-keyboard-response","253","389723","0.0-1.0-359.0-0.0","0","0","67374","","null","","","null","39","","","","","","","","","","","","","","","",""
"","ITI","","html-keyboard-response","254","390743","0.0-1.0-360.0","0","0","67374","","null","","","null","39","","","","","","","","","","","","","","","NaN",""
"","S1","","html-keyboard-response","255","390996","0.0-1.0-362.0","0","0","67374","","null","","","null","40","","","","","","","","","","","","","","","",""
"","ISI","","html-keyboard-response","256","391999","0.0-1.0-363.0","0","0","67374","","704","","","75","40","k","","","","","","","","","","","","","","",""
"","S2","","html-keyboard-response","257","392253","0.0-1.0-364.0","0","0","67374","","null","","","null","40","","NaN","","","","","","","","","","","","","",""
"","response","","html-keyboard-response","258","392385","0.0-1.0-365.0-0.0","0","0","67374","","130","","","75","40","","","1","40","training","adjacent","DE","4","5","R.jpg","O.jpg","0","1","0","",""
"","feedback","","html-keyboard-response","259","393388","0.0-1.0-366.0-0.0","0","0","67374","","null","","","null","40","","","","","","","","","","","","","","","",""
"","time_out","","html-keyboard-response","260","395392","0.0-1.0-368.0-0.0","0","0","67374","","null","","","null","40","","","","","","","","","","","","","","","",""
"","ITI","","html-keyboard-response","261","396396","0.0-1.0-369.0","0","0","67374","","null","","","null","40","","","","","","","","","","","","","","","NaN",""
"","S1","","html-keyboard-response","262","396650","0.0-1.0-371.0","0","0","67374","","null","","","null","41","","","","","","","","","","","","","","","",""
"","ISI","","html-keyboard-response","263","397654","0.0-1.0-372.0","0","0","67374","","null","","","null","41","NaN","","","","","","","","","","","","","","",""
"","S2","","html-keyboard-response","264","397779","0.0-1.0-373.0","0","0","67374","","122","","","68","41","","d","1","41","training","adjacent","EF","5","6","O.jpg","P.jpg","1","1","1","",""
"","feedback","","html-keyboard-response","265","398783","0.0-1.0-375.0-0.0","0","0","67374","","null","","","null","41","","","","","","","","","","","","","","","",""
"","ITI","","html-keyboard-response","266","399786","0.0-1.0-378.0","0","0","67374","","null","","","null","41","","","","","","","","","","","","","","","NaN",""
"","S1","","html-keyboard-response","267","400040","0.0-1.0-380.0","0","0","67374","","null","","","null","42","","","","","","","","","","","","","","","",""
"","ISI","","html-keyboard-response","268","401043","0.0-1.0-381.0","0","0","67374","","null","","","null","42","NaN","","","","","","","","","","","","","","",""
"","S2","","html-keyboard-response","269","401296","0.0-1.0-382.0","0","0","67374","","null","","","null","42","","NaN","","","","","","","","","","","","","",""
"","response","","html-keyboard-response","270","401341","0.0-1.0-383.0-0.0","0","0","67374","","43","","","68","42","","","1","42","training","adjacent","GF","7","6","N.jpg","P.jpg","1","0","0","",""
"","feedback","","html-keyboard-response","271","402344","0.0-1.0-384.0-0.0","0","0","67374","","null","","","null","42","","","","","","","","","","","","","","","",""
"","time_out","","html-keyboard-response","272","404347","0.0-1.0-386.0-0.0","0","0","67374","","null","","","null","42","","","","","","","","","","","","","","","",""
"","ITI","","html-keyboard-response","273","405350","0.0-1.0-387.0","0","0","67374","","null","","","null","42","","","","","","","","","","","","","","","NaN",""
"","S1","","html-keyboard-response","274","405604","0.0-1.0-389.0","0","0","67374","","null","","","null","43","","","","","","","","","","","","","","","",""
"","ISI","","html-keyboard-response","275","406607","0.0-1.0-390.0","0","0","67374","","null","","","null","43","NaN","","","","","","","","","","","","","","",""
"","S2","","html-keyboard-response","276","406860","0.0-1.0-391.0","0","0","67374","","null","","","null","43","","NaN","","","","","","","","","","","","","",""
"","response","","html-keyboard-response","277","406873","0.0-1.0-392.0-0.0","0","0","67374","","11","","","75","43","","","1","43","training","adjacent","BA","2","1","L.jpg","M.jpg","0","0","1","",""
"","feedback","","html-keyboard-response","278","407877","0.0-1.0-393.0-0.0","0","0","67374","","null","","","null","43","","","","","","","","","","","","","","","",""
"","ITI","","html-keyboard-response","279","408880","0.0-1.0-396.0","0","0","67374","","null","","","null","43","","","","","","","","","","","","","","","NaN",""
"","S1","","html-keyboard-response","280","409133","0.0-1.0-398.0","0","0","67374","","null","","","null","44","","","","","","","","","","","","","","","",""
"","ISI","","html-keyboard-response","281","410135","0.0-1.0-399.0","0","0","67374","","null","","","null","44","NaN","","","","","","","","","","","","","","",""
"","S2","","html-keyboard-response","282","410387","0.0-1.0-400.0","0","0","67374","","249","","","68","44","","d","1","44","training","adjacent","DC","4","3","R.jpg","Q.jpg","1","0","0","",""
"","feedback","","html-keyboard-response","283","411390","0.0-1.0-402.0-0.0","0","0","67374","","null","","","null","44","","","","","","","","","","","","","","","",""
"","time_out","","html-keyboard-response","284","413393","0.0-1.0-404.0-0.0","0","0","67374","","null","","","null","44","","","","","","","","","","","","","","","",""
"","ITI","","html-keyboard-response","285","414395","0.0-1.0-405.0","0","0","67374","","null","","","null","44","","","","","","","","","","","","","","","NaN",""
"","S1","","html-keyboard-response","286","414649","0.0-1.0-407.0","0","0","67374","","null","","","null","45","","","","","","","","","","","","","","","",""
"","ISI","","html-keyboard-response","287","415652","0.0-1.0-408.0","0","0","67374","","297","","","75","45","k","","","","","","","","","","","","","","",""
"","S2","","html-keyboard-response","288","415892","0.0-1.0-409.0","0","0","67374","","237","","","75","45","","k","1","45","training","adjacent","FE","6","5","P.jpg","O.jpg","0","0","1","",""
"","feedback","","html-keyboard-response","289","416896","0.0-1.0-411.0-0.0","0","0","67374","","null","","","null","45","","","","","","","","","","","","","","","",""
"","ITI","","html-keyboard-response","290","417899","0.0-1.0-414.0","0","0","67374","","null","","","null","45","","","","","","","","","","","","","","","NaN",""
"","S1","","html-keyboard-response","291","418152","0.0-1.0-416.0","0","0","67374","","null","","","null","46","","","","","","","","","","","","","","","",""
"","ISI","","html-keyboard-response","292","419155","0.0-1.0-417.0","0","0","67374","","null","","","null","46","NaN","","","","","","","","","","","","","","",""
"","S2","","html-keyboard-response","293","419408","0.0-1.0-418.0","0","0","67374","","null","","","null","46","","NaN","","","","","","","","","","","","","",""
"","response","","html-keyboard-response","294","419463","0.0-1.0-419.0-0.0","0","0","67374","","53","","","68","46","","","1","46","training","adjacent","AB","1","2","M.jpg","L.jpg","1","1","1","",""
"","feedback","","html-keyboard-response","295","420466","0.0-1.0-420.0-0.0","0","0","67374","","null","","","null","46","","","","","","","","","","","","","","","",""
"","ITI","","html-keyboard-response","296","421469","0.0-1.0-423.0","0","0","67374","","null","","","null","46","","","","","","","","","","","","","","","NaN",""
"","S1","","html-keyboard-response","297","421722","0.0-1.0-425.0","0","0","67374","","null","","","null","47","","","","","","","","","","","","","","","",""
"","ISI","","html-keyboard-response","298","422726","0.0-1.0-426.0","0","0","67374","","null","","","null","47","NaN","","","","","","","","","","","","","","",""
"","S2","","html-keyboard-response","299","422979","0.0-1.0-427.0","0","0","67374","","null","","","null","47","","NaN","","","","","","","","","","","","","",""
"","response","","html-keyboard-response","300","423081","0.0-1.0-428.0-0.0","0","0","67374","","100","","","75","47","","","1","47","training","adjacent","DC","4","3","R.jpg","Q.jpg","0","0","1","",""
"","feedback","","html-keyboard-response","301","424085","0.0-1.0-429.0-0.0","0","0","67374","","null","","","null","47","","","","","","","","","","","","","","","",""
"","ITI","","html-keyboard-response","302","425089","0.0-1.0-432.0","0","0","67374","","null","","","null","47","","","","","","","","","","","","","","","NaN",""
"","block_over","","html-keyboard-response","303","438839","0.0-1.0-433.0-0.0","0","0","67374","","13747","","","32","47","","","","","","","","","","","","","","","",""
"","S1","","html-keyboard-response","304","439092","0.0-1.0-434.0","0","0","67374","","null","","","null","48","","","","","","","","","","","","","","","",""
"","ISI","","html-keyboard-response","305","440096","0.0-1.0-435.0","0","0","67374","","null","","","null","48","NaN","","","","","","","","","","","","","","",""
"","S2","","html-keyboard-response","306","440351","0.0-1.0-436.0","0","0","67374","","null","","","null","48","","NaN","","","","","","","","","","","","","",""
"","response","","html-keyboard-response","307","440353","0.0-1.0-437.0-0.0","0","0","67374","","0","","","68","48","","","2","48","training","adjacent","FE","6","5","P.jpg","O.jpg","1","0","0","",""
"","feedback","","html-keyboard-response","308","441355","0.0-1.0-438.0-0.0","0","0","67374","","null","","","null","48","","","","","","","","","","","","","","","",""
"","time_out","","html-keyboard-response","309","443358","0.0-1.0-440.0-0.0","0","0","67374","","null","","","null","48","","","","","","","","","","","","","","","",""
"","ITI","","html-keyboard-response","310","444361","0.0-1.0-441.0","0","0","67374","","null","","","null","48","","","","","","","","","","","","","","","NaN",""
"","S1","","html-keyboard-response","311","444618","0.0-1.0-443.0","0","0","67374","","null","","","null","49","","","","","","","","","","","","","","","",""
"","ISI","","html-keyboard-response","312","445621","0.0-1.0-444.0","0","0","67374","","null","","","null","49","NaN","","","","","","","","","","","","","","",""
"","S2","","html-keyboard-response","313","445874","0.0-1.0-445.0","0","0","67374","","null","","","null","49","","NaN","","","","","","","","","","","","","",""
"","response","","html-keyboard-response","314","446205","0.0-1.0-446.0-0.0","0","0","67374","","328","","","75","49","","","2","49","training","adjacent","EF","5","6","O.jpg","P.jpg","0","1","0","",""
"","feedback","","html-keyboard-response","315","447209","0.0-1.0-447.0-0.0","0","0","67374","","null","","","null","49","","","","","","","","","","","","","","","",""
"","time_out","","html-keyboard-response","316","449223","0.0-1.0-449.0-0.0","0","0","67374","","null","","","null","49","","","","","","","","","","","","","","","",""
"","ITI","","html-keyboard-response","317","450226","0.0-1.0-450.0","0","0","67374","","null","","","null","49","","","","","","","","","","","","","","","NaN",""
"","S1","","html-keyboard-response","318","450479","0.0-1.0-452.0","0","0","67374","","null","","","null","50","","","","","","","","","","","","","","","",""
"","ISI","","html-keyboard-response","319","451492","0.0-1.0-453.0","0","0","67374","","null","","","null","50","NaN","","","","","","","","","","","","","","",""
"","S2","","html-keyboard-response","320","451746","0.0-1.0-454.0","0","0","67374","","null","","","null","50","","NaN","","","","","","","","","","","","","",""
"","response","","html-keyboard-response","321","451860","0.0-1.0-455.0-0.0","0","0","67374","","113","","","75","50","","","2","50","training","adjacent","BC","2","3","L.jpg","Q.jpg","0","1","0","",""
"","feedback","","html-keyboard-response","322","452864","0.0-1.0-456.0-0.0","0","0","67374","","null","","","null","50","","","","","","","","","","","","","","","",""
"","time_out","","html-keyboard-response","323","454867","0.0-1.0-458.0-0.0","0","0","67374","","null","","","null","50","","","","","","","","","","","","","","","",""
"","ITI","","html-keyboard-response","324","455871","0.0-1.0-459.0","0","0","67374","","null","","","null","50","","","","","","","","","","","","","","","NaN",""
"","S1","","html-keyboard-response","325","456124","0.0-1.0-461.0","0","0","67374","","null","","","null","51","","","","","","","","","","","","","","","",""
"","ISI","","html-keyboard-response","326","457127","0.0-1.0-462.0","0","0","67374","","null","","","null","51","NaN","","","","","","","","","","","","","","",""
"","S2","","html-keyboard-response","327","457381","0.0-1.0-463.0","0","0","67374","","null","","","null","51","","NaN","","","","","","","","","","","","","",""
"","response","","html-keyboard-response","328","457685","0.0-1.0-464.0-0.0","0","0","67374","","302","","","68","51","","","2","51","training","adjacent","EF","5","6","O.jpg","P.jpg","1","1","1","",""
"","feedback","","html-keyboard-response","329","458689","0.0-1.0-465.0-0.0","0","0","67374","","null","","","null","51","","","","","","","","","","","","","","","",""
"","ITI","","html-keyboard-response","330","459693","0.0-1.0-468.0","0","0","67374","","null","","","null","51","","","","","","","","","","","","","","","NaN",""
"","S1","","html-keyboard-response","331","459946","0.0-1.0-470.0","0","0","67374","","null","","","null","52","","","","","","","","","","","","","","","",""
"","ISI","","html-keyboard-response","332","460949","0.0-1.0-471.0","0","0","67374","","737","","","75","52","k","","","","","","","","","","","","","","",""
"","S2","","html-keyboard-response","333","461202","0.0-1.0-472.0","0","0","67374","","null","","","null","52","","NaN","","","","","","","","","","","","","",""
"","response","","html-keyboard-response","334","461262","0.0-1.0-473.0-0.0","0","0","67374","","57","","","75","52","","","2","52","training","adjacent","DC","4","3","R.jpg","Q.jpg","0","0","1","",""
"","feedback","","html-keyboard-response","335","462265","0.0-1.0-474.0-0.0","0","0","67374","","null","","","null","52","","","","","","","","","","","","","","","",""
"","ITI","","html-keyboard-response","336","463267","0.0-1.0-477.0","0","0","67374","","null","","","null","52","","","","","","","","","","","","","","","NaN",""
"","S1","","html-keyboard-response","337","463520","0.0-1.0-479.0","0","0","67374","","null","","","null","53","","","","","","","","","","","","","","","",""
"","ISI","","html-keyboard-response","338","464523","0.0-1.0-480.0","0","0","67374","","null","","","null","53","NaN","","","","","","","","","","","","","","",""
"","S2","","html-keyboard-response","339","464776","0.0-1.0-481.0","0","0","67374","","null","","","null","53","","NaN","","","","","","","","","","","","","",""
"","response","","html-keyboard-response","340","464798","0.0-1.0-482.0-0.0","0","0","67374","","19","","","68","53","","","2","53","training","adjacent","EF","5","6","O.jpg","P.jpg","1","1","1","",""
"","feedback","","html-keyboard-response","341","465800","0.0-1.0-483.0-0.0","0","0","67374","","null","","","null","53","","","","","","","","","","","","","","","",""
"","ITI","","html-keyboard-response","342","466804","0.0-1.0-486.0","0","0","67374","","null","","","null","53","","","","","","","","","","","","","","","NaN",""
"","S1","","html-keyboard-response","343","467058","0.0-1.0-488.0","0","0","67374","","null","","","null","54","","","","","","","","","","","","","","","",""
"","ISI","","html-keyboard-response","344","468061","0.0-1.0-489.0","0","0","67374","","988","","","75","54","k","","","","","","","","","","","","","","",""
"","S2","","html-keyboard-response","345","468314","0.0-1.0-490.0","0","0","67374","","null","","","null","54","","NaN","","","","","","","","","","","","","",""
"","response","","html-keyboard-response","346","468896","0.0-1.0-491.0-0.0","0","0","67374","","579","","","75","54","","","2","54","training","adjacent","CB","3","2","Q.jpg","L.jpg","0","0","1","",""
"","feedback","","html-keyboard-response","347","469899","0.0-1.0-492.0-0.0","0","0","67374","","null","","","null","54","","","","","","","","","","","","","","","",""
"","ITI","","html-keyboard-response","348","470903","0.0-1.0-495.0","0","0","67374","","null","","","null","54","","","","","","","","","","","","","","","NaN",""
"","S1","","html-keyboard-response","349","471156","0.0-1.0-497.0","0","0","67374","","null","","","null","55","","","","","","","","","","","","","","","",""
"","ISI","","html-keyboard-response","350","472160","0.0-1.0-498.0","0","0","67374","","null","","","null","55","NaN","","","","","","","","","","","","","","",""
"","S2","","html-keyboard-response","351","472413","0.0-1.0-499.0","0","0","67374","","null","","","null","55","","NaN","","","","","","","","","","","","","",""
"","response","","html-keyboard-response","352","472426","0.0-1.0-500.0-0.0","0","0","67374","","11","","","68","55","","","2","55","training","adjacent","AB","1","2","M.jpg","L.jpg","1","1","1","",""
"","feedback","","html-keyboard-response","353","473429","0.0-1.0-501.0-0.0","0","0","67374","","null","","","null","55","","","","","","","","","","","","","","","",""
"","ITI","","html-keyboard-response","354","474432","0.0-1.0-504.0","0","0","67374","","null","","","null","55","","","","","","","","","","","","","","","NaN",""
"","S1","","html-keyboard-response","355","474685","0.0-1.0-506.0","0","0","67374","","null","","","null","56","","","","","","","","","","","","","","","",""
"","ISI","","html-keyboard-response","356","475689","0.0-1.0-507.0","0","0","67374","","null","","","null","56","NaN","","","","","","","","","","","","","","",""
"","S2","","html-keyboard-response","357","475942","0.0-1.0-508.0","0","0","67374","","null","","","null","56","","NaN","","","","","","","","","","","","","",""
"","response","","html-keyboard-response","358","475975","0.0-1.0-509.0-0.0","0","0","67374","","30","","","75","56","","","2","56","training","adjacent","BC","2","3","L.jpg","Q.jpg","0","1","0","",""
"","feedback","","html-keyboard-response","359","476979","0.0-1.0-510.0-0.0","0","0","67374","","null","","","null","56","","","","","","","","","","","","","","","",""
"","time_out","","html-keyboard-response","360","478982","0.0-1.0-512.0-0.0","0","0","67374","","null","","","null","56","","","","","","","","","","","","","","","",""
"","ITI","","html-keyboard-response","361","479985","0.0-1.0-513.0","0","0","67374","","null","","","null","56","","","","","","","","","","","","","","","NaN",""
"","S1","","html-keyboard-response","362","480239","0.0-1.0-515.0","0","0","67374","","null","","","null","57","","","","","","","","","","","","","","","",""
"","ISI","","html-keyboard-response","363","481242","0.0-1.0-516.0","0","0","67374","","null","","","null","57","NaN","","","","","","","","","","","","","","",""
"","S2","","html-keyboard-response","364","481495","0.0-1.0-517.0","0","0","67374","","null","","","null","57","","NaN","","","","","","","","","","","","","",""
"","response","","html-keyboard-response","365","481513","0.0-1.0-518.0-0.0","0","0","67374","","15","","","68","57","","","2","57","training","adjacent","ED","5","4","O.jpg","R.jpg","1","0","0","",""
"","feedback","","html-keyboard-response","366","482516","0.0-1.0-519.0-0.0","0","0","67374","","null","","","null","57","","","","","","","","","","","","","","","",""
"","time_out","","html-keyboard-response","367","484519","0.0-1.0-521.0-0.0","0","0","67374","","null","","","null","57","","","","","","","","","","","","","","","",""
"","ITI","","html-keyboard-response","368","485521","0.0-1.0-522.0","0","0","67374","","null","","","null","57","","","","","","","","","","","","","","","NaN",""
"","S1","","html-keyboard-response","369","485774","0.0-1.0-524.0","0","0","67374","","null","","","null","58","","","","","","","","","","","","","","","",""
"","ISI","","html-keyboard-response","370","486777","0.0-1.0-525.0","0","0","67374","","null","","","null","58","NaN","","","","","","","","","","","","","","",""
"","S2","","html-keyboard-response","371","487030","0.0-1.0-526.0","0","0","67374","","null","","","null","58","","NaN","","","","","","","","","","","","","",""
"","response","","html-keyboard-response","372","487059","0.0-1.0-527.0-0.0","0","0","67374","","27","","","75","58","","","2","58","training","adjacent","BC","2","3","L.jpg","Q.jpg","0","1","0","",""
"","feedback","","html-keyboard-response","373","488063","0.0-1.0-528.0-0.0","0","0","67374","","null","","","null","58","","","","","","","","","","","","","","","",""
"","time_out","","html-keyboard-response","374","490066","0.0-1.0-530.0-0.0","0","0","67374","","null","","","null","58","","","","","","","","","","","","","","","",""
"","ITI","","html-keyboard-response","375","491069","0.0-1.0-531.0","0","0","67374","","null","","","null","58","","","","","","","","","","","","","","","NaN",""
"","S1","","html-keyboard-response","376","491321","0.0-1.0-533.0","0","0","67374","","null","","","null","59","","","","","","","","","","","","","","","",""
"","ISI","","html-keyboard-response","377","492324","0.0-1.0-534.0","0","0","67374","","null","","","null","59","NaN","","","","","","","","","","","","","","",""
"","S2","","html-keyboard-response","378","492578","0.0-1.0-535.0","0","0","67374","","null","","","null","59","","NaN","","","","","","","","","","","","","",""
"","response","","html-keyboard-response","379","492632","0.0-1.0-536.0-0.0","0","0","67374","","53","","","75","59","","","2","59","training","adjacent","BA","2","1","L.jpg","M.jpg","0","0","1","",""
"","feedback","","html-keyboard-response","380","493635","0.0-1.0-537.0-0.0","0","0","67374","","null","","","null","59","","","","","","","","","","","","","","","",""
"","ITI","","html-keyboard-response","381","494638","0.0-1.0-540.0","0","0","67374","","null","","","null","59","","","","","","","","","","","","","","","NaN",""
"","S1","","html-keyboard-response","382","494892","0.0-1.0-542.0","0","0","67374","","null","","","null","60","","","","","","","","","","","","","","","",""
"","ISI","","html-keyboard-response","383","495895","0.0-1.0-543.0","0","0","67374","","null","","","null","60","NaN","","","","","","","","","","","","","","",""
"","S2","","html-keyboard-response","384","496149","0.0-1.0-544.0","0","0","67374","","null","","","null","60","","NaN","","","","","","","","","","","","","",""
"","response","","html-keyboard-response","385","496187","0.0-1.0-545.0-0.0","0","0","67374","","36","","","68","60","","","2","60","training","adjacent","CD","3","4","Q.jpg","R.jpg","1","1","1","",""
"","feedback","","html-keyboard-response","386","497190","0.0-1.0-546.0-0.0","0","0","67374","","null","","","null","60","","","","","","","","","","","","","","","",""
"","ITI","","html-keyboard-response","387","498193","0.0-1.0-549.0","0","0","67374","","null","","","null","60","","","","","","","","","","","","","","","NaN",""
"","S1","","html-keyboard-response","388","498446","0.0-1.0-551.0","0","0","67374","","null","","","null","61","","","","","","","","","","","","","","","",""
"","ISI","","html-keyboard-response","389","499449","0.0-1.0-552.0","0","0","67374","","135","","","75","61","k","","","","","","","","","","","","","","",""
"","S2","","html-keyboard-response","390","499703","0.0-1.0-553.0","0","0","67374","","null","","","null","61","","NaN","","","","","","","","","","","","","",""
"","response","","html-keyboard-response","391","500100","0.0-1.0-554.0-0.0","0","0","67374","","395","","","75","61","","","2","61","training","adjacent","CB","3","2","Q.jpg","L.jpg","0","0","1","",""
"","feedback","","html-keyboard-response","392","501103","0.0-1.0-555.0-0.0","0","0","67374","","null","","","null","61","","","","","","","","","","","","","","","",""
"","ITI","","html-keyboard-response","393","502108","0.0-1.0-558.0","0","0","67374","","null","","","null","61","","","","","","","","","","","","","","","NaN",""
"","S1","","html-keyboard-response","394","502361","0.0-1.0-560.0","0","0","67374","","null","","","null","62","","","","","","","","","","","","","","","",""
"","ISI","","html-keyboard-response","395","503364","0.0-1.0-561.0","0","0","67374","","382","","","75","62","k","","","","","","","","","","","","","","",""
"","S2","","html-keyboard-response","396","503618","0.0-1.0-562.0","0","0","67374","","null","","","null","62","","NaN","","","","","","","","","","","","","",""
"","response","","html-keyboard-response","397","503761","0.0-1.0-563.0-0.0","0","0","67374","","141","","","68","62","","","2","62","training","adjacent","CD","3","4","Q.jpg","R.jpg","1","1","1","",""
"","feedback","","html-keyboard-response","398","504765","0.0-1.0-564.0-0.0","0","0","67374","","null","","","null","62","","","","","","","","","","","","","","","",""
"","ITI","","html-keyboard-response","399","505770","0.0-1.0-567.0","0","0","67374","","null","","","null","62","","","","","","","","","","","","","","","NaN",""
"","S1","","html-keyboard-response","400","506023","0.0-1.0-569.0","0","0","67374","","null","","","null","63","","","","","","","","","","","","","","","",""
"","ISI","","html-keyboard-response","401","507025","0.0-1.0-570.0","0","0","67374","","991","","","75","63","k","","","","","","","","","","","","","","",""
"","S2","","html-keyboard-response","402","507277","0.0-1.0-571.0","0","0","67374","","null","","","null","63","","NaN","","","","","","","","","","","","","",""
"","response","","html-keyboard-response","403","507674","0.0-1.0-572.0-0.0","0","0","67374","","395","","","75","63","","","2","63","training","adjacent","ED","5","4","O.jpg","R.jpg","0","0","1","",""
"","feedback","","html-keyboard-response","404","508677","0.0-1.0-573.0-0.0","0","0","67374","","null","","","null","63","","","","","","","","","","","","","","","",""
"","ITI","","html-keyboard-response","405","509681","0.0-1.0-576.0","0","0","67374","","null","","","null","63","","","","","","","","","","","","","","","NaN",""
"","S1","","html-keyboard-response","406","509933","0.0-1.0-578.0","0","0","67374","","null","","","null","64","","","","","","","","","","","","","","","",""
"","ISI","","html-keyboard-response","407","510936","0.0-1.0-579.0","0","0","67374","","null","","","null","64","NaN","","","","","","","","","","","","","","",""
"","S2","","html-keyboard-response","408","511190","0.0-1.0-580.0","0","0","67374","","null","","","null","64","","NaN","","","","","","","","","","","","","",""
"","response","","html-keyboard-response","409","511308","0.0-1.0-581.0-0.0","0","0","67374","","116","","","68","64","","","2","64","training","adjacent","FG","6","7","P.jpg","N.jpg","1","1","1","",""
"","feedback","","html-keyboard-response","410","512310","0.0-1.0-582.0-0.0","0","0","67374","","null","","","null","64","","","","","","","","","","","","","","","",""
"","ITI","","html-keyboard-response","411","513313","0.0-1.0-585.0","0","0","67374","","null","","","null","64","","","","","","","","","","","","","","","NaN",""
"","S1","","html-keyboard-response","412","513566","0.0-1.0-587.0","0","0","67374","","null","","","null","65","","","","","","","","","","","","","","","",""
"","ISI","","html-keyboard-response","413","514568","0.0-1.0-588.0","0","0","67374","","null","","","null","65","NaN","","","","","","","","","","","","","","",""
"","S2","","html-keyboard-response","414","514622","0.0-1.0-589.0","0","0","67374","","52","","","75","65","","k","2","65","training","adjacent","GF","7","6","N.jpg","P.jpg","0","0","1","",""
"","feedback","","html-keyboard-response","415","515626","0.0-1.0-591.0-0.0","0","0","67374","","null","","","null","65","","","","","","","","","","","","","","","",""
"","ITI","","html-keyboard-response","416","516629","0.0-1.0-594.0","0","0","67374","","null","","","null","65","","","","","","","","","","","","","","","NaN",""
"","S1","","html-keyboard-response","417","516882","0.0-1.0-596.0","0","0","67374","","null","","","null","66","","","","","","","","","","","","","","","",""
"","ISI","","html-keyboard-response","418","517884","0.0-1.0-597.0","0","0","67374","","981","","","68","66","d","","","","","","","","","","","","","","",""
"","S2","","html-keyboard-response","419","518138","0.0-1.0-598.0","0","0","67374","","null","","","null","66","","NaN","","","","","","","","","","","","","",""
"","response","","html-keyboard-response","420","518532","0.0-1.0-599.0-0.0","0","0","67374","","391","","","68","66","","","2","66","training","adjacent","FG","6","7","P.jpg","N.jpg","1","1","1","",""
"","feedback","","html-keyboard-response","421","519535","0.0-1.0-600.0-0.0","0","0","67374","","null","","","null","66","","","","","","","","","","","","","","","",""
"","ITI","","html-keyboard-response","422","520538","0.0-1.0-603.0","0","0","67374","","null","","","null","66","","","","","","","","","","","","","","","NaN",""
"","S1","","html-keyboard-response","423","520792","0.0-1.0-605.0","0","0","67374","","null","","","null","67","","","","","","","","","","","","","","","",""
"","ISI","","html-keyboard-response","424","521795","0.0-1.0-606.0","0","0","67374","","null","","","null","67","NaN","","","","","","","","","","","","","","",""
"","S2","","html-keyboard-response","425","522049","0.0-1.0-607.0","0","0","67374","","null","","","null","67","","NaN","","","","","","","","","","","","","",""
"","response","","html-keyboard-response","426","522062","0.0-1.0-608.0-0.0","0","0","67374","","12","","","75","67","","","2","67","training","adjacent","AB","1","2","M.jpg","L.jpg","0","1","0","",""
"","feedback","","html-keyboard-response","427","523065","0.0-1.0-609.0-0.0","0","0","67374","","null","","","null","67","","","","","","","","","","","","","","","",""
"","time_out","","html-keyboard-response","428","525069","0.0-1.0-611.0-0.0","0","0","67374","","null","","","null","67","","","","","","","","","","","","","","","",""
"","ITI","","html-keyboard-response","429","526072","0.0-1.0-612.0","0","0","67374","","null","","","null","67","","","","","","","","","","","","","","","NaN",""
"","S1","","html-keyboard-response","430","526325","0.0-1.0-614.0","0","0","67374","","null","","","null","68","","","","","","","","","","","","","","","",""
"","ISI","","html-keyboard-response","431","527328","0.0-1.0-615.0","0","0","67374","","null","","","null","68","NaN","","","","","","","","","","","","","","",""
"","S2","","html-keyboard-response","432","527582","0.0-1.0-616.0","0","0","67374","","null","","","null","68","","NaN","","","","","","","","","","","","","",""
"","response","","html-keyboard-response","433","527699","0.0-1.0-617.0-0.0","0","0","67374","","115","","","68","68","","","2","68","training","adjacent","DE","4","5","R.jpg","O.jpg","1","1","1","",""
"","feedback","","html-keyboard-response","434","528702","0.0-1.0-618.0-0.0","0","0","67374","","null","","","null","68","","","","","","","","","","","","","","","",""
"","ITI","","html-keyboard-response","435","529705","0.0-1.0-621.0","0","0","67374","","null","","","null","68","","","","","","","","","","","","","","","NaN",""
"","S1","","html-keyboard-response","436","529959","0.0-1.0-623.0","0","0","67374","","null","","","null","69","","","","","","","","","","","","","","","",""
"","ISI","","html-keyboard-response","437","530962","0.0-1.0-624.0","0","0","67374","","null","","","null","69","NaN","","","","","","","","","","","","","","",""
"","S2","","html-keyboard-response","438","531216","0.0-1.0-625.0","0","0","67374","","null","","","null","69","","NaN","","","","","","","","","","","","","",""
"","response","","html-keyboard-response","439","531584","0.0-1.0-626.0-0.0","0","0","67374","","365","","","75","69","","","2","69","training","adjacent","BA","2","1","L.jpg","M.jpg","0","0","1","",""
"","feedback","","html-keyboard-response","440","532588","0.0-1.0-627.0-0.0","0","0","67374","","null","","","null","69","","","","","","","","","","","","","","","",""
"","ITI","","html-keyboard-response","441","533591","0.0-1.0-630.0","0","0","67374","","null","","","null","69","","","","","","","","","","","","","","","NaN",""
"","S1","","html-keyboard-response","442","533846","0.0-1.0-632.0","0","0","67374","","null","","","null","70","","","","","","","","","","","","","","","",""
"","ISI","","html-keyboard-response","443","534849","0.0-1.0-633.0","0","0","67374","","null","","","null","70","NaN","","","","","","","","","","","","","","",""
"","S2","","html-keyboard-response","444","535102","0.0-1.0-634.0","0","0","67374","","null","","","null","70","","NaN","","","","","","","","","","","","","",""
"","response","","html-keyboard-response","445","535152","0.0-1.0-635.0-0.0","0","0","67374","","48","","","68","70","","","2","70","training","adjacent","ED","5","4","O.jpg","R.jpg","1","0","0","",""
"","feedback","","html-keyboard-response","446","536155","0.0-1.0-636.0-0.0","0","0","67374","","null","","","null","70","","","","","","","","","","","","","","","",""
"","time_out","","html-keyboard-response","447","538158","0.0-1.0-638.0-0.0","0","0","67374","","null","","","null","70","","","","","","","","","","","","","","","",""
"","ITI","","html-keyboard-response","448","539161","0.0-1.0-639.0","0","0","67374","","null","","","null","70","","","","","","","","","","","","","","","NaN",""
"","S1","","html-keyboard-response","449","539414","0.0-1.0-641.0","0","0","67374","","null","","","null","71","","","","","","","","","","","","","","","",""
"","ISI","","html-keyboard-response","450","540417","0.0-1.0-642.0","0","0","67374","","null","","","null","71","NaN","","","","","","","","","","","","","","",""
"","S2","","html-keyboard-response","451","540670","0.0-1.0-643.0","0","0","67374","","null","","","null","71","","NaN","","","","","","","","","","","","","",""
"","response","","html-keyboard-response","452","540816","0.0-1.0-644.0-0.0","0","0","67374","","143","","","75","71","","","2","71","training","adjacent","GF","7","6","N.jpg","P.jpg","0","0","1","",""
"","feedback","","html-keyboard-response","453","541819","0.0-1.0-645.0-0.0","0","0","67374","","null","","","null","71","","","","","","","","","","","","","","","",""
"","ITI","","html-keyboard-response","454","542822","0.0-1.0-648.0","0","0","67374","","null","","","null","71","","","","","","","","","","","","","","","NaN",""
"","S1","","html-keyboard-response","455","543075","0.0-1.0-650.0","0","0","67374","","null","","","null","72","","","","","","","","","","","","","","","",""
"","ISI","","html-keyboard-response","456","544078","0.0-1.0-651.0","0","0","67374","","null","","","null","72","NaN","","","","","","","","","","","","","","",""
"","S2","","html-keyboard-response","457","544331","0.0-1.0-652.0","0","0","67374","","null","","","null","72","","NaN","","","","","","","","","","","","","",""
"","response","","html-keyboard-response","458","544516","0.0-1.0-653.0-0.0","0","0","67374","","183","","","68","72","","","2","72","training","adjacent","GF","7","6","N.jpg","P.jpg","1","0","0","",""
"","feedback","","html-keyboard-response","459","545520","0.0-1.0-654.0-0.0","0","0","67374","","null","","","null","72","","","","","","","","","","","","","","","",""
"","time_out","","html-keyboard-response","460","547523","0.0-1.0-656.0-0.0","0","0","67374","","null","","","null","72","","","","","","","","","","","","","","","",""
"","ITI","","html-keyboard-response","461","548525","0.0-1.0-657.0","0","0","67374","","null","","","null","72","","","","","","","","","","","","","","","NaN",""
"","S1","","html-keyboard-response","462","548779","0.0-1.0-659.0","0","0","67374","","null","","","null","73","","","","","","","","","","","","","","","",""
"","ISI","","html-keyboard-response","463","549782","0.0-1.0-660.0","0","0","67374","","null","","","null","73","NaN","","","","","","","","","","","","","","",""
"","S2","","html-keyboard-response","464","550036","0.0-1.0-661.0","0","0","67374","","null","","","null","73","","NaN","","","","","","","","","","","","","",""
"","response","","html-keyboard-response","465","550230","0.0-1.0-662.0-0.0","0","0","67374","","191","","","75","73","","","2","73","training","adjacent","AB","1","2","M.jpg","L.jpg","0","1","0","",""
"","feedback","","html-keyboard-response","466","551234","0.0-1.0-663.0-0.0","0","0","67374","","null","","","null","73","","","","","","","","","","","","","","","",""
"","time_out","","html-keyboard-response","467","553238","0.0-1.0-665.0-0.0","0","0","67374","","null","","","null","73","","","","","","","","","","","","","","","",""
"","ITI","","html-keyboard-response","468","554240","0.0-1.0-666.0","0","0","67374","","null","","","null","73","","","","","","","","","","","","","","","NaN",""
"","S1","","html-keyboard-response","469","554493","0.0-1.0-668.0","0","0","67374","","null","","","null","74","","","","","","","","","","","","","","","",""
"","ISI","","html-keyboard-response","470","555494","0.0-1.0-669.0","0","0","67374","","166","","","68","74","d","","","","","","","","","","","","","","",""
"","S2","","html-keyboard-response","471","555747","0.0-1.0-670.0","0","0","67374","","null","","","null","74","","NaN","","","","","","","","","","","","","",""
"","response","","html-keyboard-response","472","556366","0.0-1.0-671.0-0.0","0","0","67374","","616","","","68","74","","","2","74","training","adjacent","FE","6","5","P.jpg","O.jpg","1","0","0","",""
"","feedback","","html-keyboard-response","473","557369","0.0-1.0-672.0-0.0","0","0","67374","","null","","","null","74","","","","","","","","","","","","","","","",""
"","time_out","","html-keyboard-response","474","559374","0.0-1.0-674.0-0.0","0","0","67374","","null","","","null","74","","","","","","","","","","","","","","","",""
"","ITI","","html-keyboard-response","475","560376","0.0-1.0-675.0","0","0","67374","","null","","","null","74","","","","","","","","","","","","","","","NaN",""
"","S1","","html-keyboard-response","476","560630","0.0-1.0-677.0","0","0","67374","","null","","","null","75","","","","","","","","","","","","","","","",""
"","ISI","","html-keyboard-response","477","561634","0.0-1.0-678.0","0","0","67374","","null","","","null","75","NaN","","","","","","","","","","","","","","",""
"","S2","","html-keyboard-response","478","561887","0.0-1.0-679.0","0","0","67374","","null","","","null","75","","NaN","","","","","","","","","","","","","",""
"","response","","html-keyboard-response","479","561906","0.0-1.0-680.0-0.0","0","0","67374","","16","","","75","75","","","2","75","training","adjacent","DC","4","3","R.jpg","Q.jpg","0","0","1","",""
"","feedback","","html-keyboard-response","480","562910","0.0-1.0-681.0-0.0","0","0","67374","","null","","","null","75","","","","","","","","","","","","","","","",""
"","ITI","","html-keyboard-response","481","563914","0.0-1.0-684.0","0","0","67374","","null","","","null","75","","","","","","","","","","","","","","","NaN",""
"","S1","","html-keyboard-response","482","564168","0.0-1.0-686.0","0","0","67374","","null","","","null","76","","","","","","","","","","","","","","","",""
"","ISI","","html-keyboard-response","483","565172","0.0-1.0-687.0","0","0","67374","","null","","","null","76","NaN","","","","","","","","","","","","","","",""
"","S2","","html-keyboard-response","484","565426","0.0-1.0-688.0","0","0","67374","","null","","","null","76","","NaN","","","","","","","","","","","","","",""
"","response","","html-keyboard-response","485","565784","0.0-1.0-689.0-0.0","0","0","67374","","356","","","68","76","","","2","76","training","adjacent","CD","3","4","Q.jpg","R.jpg","1","1","1","",""
"","feedback","","html-keyboard-response","486","566788","0.0-1.0-690.0-0.0","0","0","67374","","null","","","null","76","","","","","","","","","","","","","","","",""
"","ITI","","html-keyboard-response","487","567791","0.0-1.0-693.0","0","0","67374","","null","","","null","76","","","","","","","","","","","","","","","NaN",""
"","S1","","html-keyboard-response","488","568044","0.0-1.0-695.0","0","0","67374","","null","","","null","77","","","","","","","","","","","","","","","",""
"","ISI","","html-keyboard-response","489","569047","0.0-1.0-696.0","0","0","67374","","null","","","null","77","NaN","","","","","","","","","","","","","","",""
"","S2","","html-keyboard-response","490","569300","0.0-1.0-697.0","0","0","67374","","null","","","null","77","","NaN","","","","","","","","","","","","","",""
"","response","","html-keyboard-response","491","569362","0.0-1.0-698.0-0.0","0","0","67374","","60","","","75","77","","","2","77","training","adjacent","CD","3","4","Q.jpg","R.jpg","0","1","0","",""
"","feedback","","html-keyboard-response","492","570365","0.0-1.0-699.0-0.0","0","0","67374","","null","","","null","77","","","","","","","","","","","","","","","",""
"","time_out","","html-keyboard-response","493","572367","0.0-1.0-701.0-0.0","0","0","67374","","null","","","null","77","","","","","","","","","","","","","","","",""
"","ITI","","html-keyboard-response","494","573371","0.0-1.0-702.0","0","0","67374","","null","","","null","77","","","","","","","","","","","","","","","NaN",""
"","S1","","html-keyboard-response","495","573625","0.0-1.0-704.0","0","0","67374","","null","","","null","78","","","","","","","","","","","","","","","",""
"","ISI","","html-keyboard-response","496","574628","0.0-1.0-705.0","0","0","67374","","null","","","null","78","NaN","","","","","","","","","","","","","","",""
"","S2","","html-keyboard-response","497","574881","0.0-1.0-706.0","0","0","67374","","null","","","null","78","","NaN","","","","","","","","","","","","","",""
"","response","","html-keyboard-response","498","574921","0.0-1.0-707.0-0.0","0","0","67374","","38","","","68","78","","","2","78","training","adjacent","FE","6","5","P.jpg","O.jpg","1","0","0","",""
"","feedback","","html-keyboard-response","499","575925","0.0-1.0-708.0-0.0","0","0","67374","","null","","","null","78","","","","","","","","","","","","","","","",""
"","time_out","","html-keyboard-response","500","577928","0.0-1.0-710.0-0.0","0","0","67374","","null","","","null","78","","","","","","","","","","","","","","","",""
"","ITI","","html-keyboard-response","501","578954","0.0-1.0-711.0","0","0","67374","","null","","","null","78","","","","","","","","","","","","","","","NaN",""
"","S1","","html-keyboard-response","502","579207","0.0-1.0-713.0","0","0","67374","","null","","","null","79","","","","","","","","","","","","","","","",""
"","ISI","","html-keyboard-response","503","580210","0.0-1.0-714.0","0","0","67374","","null","","","null","79","NaN","","","","","","","","","","","","","","",""
"","S2","","html-keyboard-response","504","580464","0.0-1.0-715.0","0","0","67374","","null","","","null","79","","NaN","","","","","","","","","","","","","",""
"","response","","html-keyboard-response","505","580951","0.0-1.0-716.0-0.0","0","0","67374","","485","","","75","79","","","2","79","training","adjacent","CB","3","2","Q.jpg","L.jpg","0","0","1","",""
"","feedback","","html-keyboard-response","506","581955","0.0-1.0-717.0-0.0","0","0","67374","","null","","","null","79","","","","","","","","","","","","","","","",""
"","ITI","","html-keyboard-response","507","582958","0.0-1.0-720.0","0","0","67374","","null","","","null","79","","","","","","","","","","","","","","","NaN",""
"","S1","","html-keyboard-response","508","583211","0.0-1.0-722.0","0","0","67374","","null","","","null","80","","","","","","","","","","","","","","","",""
"","ISI","","html-keyboard-response","509","584214","0.0-1.0-723.0","0","0","67374","","null","","","null","80","NaN","","","","","","","","","","","","","","",""
"","S2","","html-keyboard-response","510","584468","0.0-1.0-724.0","0","0","67374","","null","","","null","80","","NaN","","","","","","","","","","","","","",""
"","response","","html-keyboard-response","511","584579","0.0-1.0-725.0-0.0","0","0","67374","","108","","","68","80","","","2","80","training","adjacent","FG","6","7","P.jpg","N.jpg","1","1","1","",""
"","feedback","","html-keyboard-response","512","585581","0.0-1.0-726.0-0.0","0","0","67374","","null","","","null","80","","","","","","","","","","","","","","","",""
"","ITI","","html-keyboard-response","513","586585","0.0-1.0-729.0","0","0","67374","","null","","","null","80","","","","","","","","","","","","","","","NaN",""
"","S1","","html-keyboard-response","514","586838","0.0-1.0-731.0","0","0","67374","","null","","","null","81","","","","","","","","","","","","","","","",""
"","ISI","","html-keyboard-response","515","587841","0.0-1.0-732.0","0","0","67374","","null","","","null","81","NaN","","","","","","","","","","","","","","",""
"","S2","","html-keyboard-response","516","588095","0.0-1.0-733.0","0","0","67374","","null","","","null","81","","NaN","","","","","","","","","","","","","",""
"","response","","html-keyboard-response","517","588172","0.0-1.0-734.0-0.0","0","0","67374","","74","","","75","81","","","2","81","training","adjacent","BA","2","1","L.jpg","M.jpg","0","0","1","",""
"","feedback","","html-keyboard-response","518","589175","0.0-1.0-735.0-0.0","0","0","67374","","null","","","null","81","","","","","","","","","","","","","","","",""
"","ITI","","html-keyboard-response","519","590178","0.0-1.0-738.0","0","0","67374","","null","","","null","81","","","","","","","","","","","","","","","NaN",""
"","S1","","html-keyboard-response","520","590430","0.0-1.0-740.0","0","0","67374","","null","","","null","82","","","","","","","","","","","","","","","",""
"","ISI","","html-keyboard-response","521","591434","0.0-1.0-741.0","0","0","67374","","null","","","null","82","NaN","","","","","","","","","","","","","","",""
"","S2","","html-keyboard-response","522","591688","0.0-1.0-742.0","0","0","67374","","null","","","null","82","","NaN","","","","","","","","","","","","","",""
"","response","","html-keyboard-response","523","591725","0.0-1.0-743.0-0.0","0","0","67374","","35","","","68","82","","","2","82","training","adjacent","CB","3","2","Q.jpg","L.jpg","1","0","0","",""
"","feedback","","html-keyboard-response","524","592728","0.0-1.0-744.0-0.0","0","0","67374","","null","","","null","82","","","","","","","","","","","","","","","",""
"","time_out","","html-keyboard-response","525","594731","0.0-1.0-746.0-0.0","0","0","67374","","null","","","null","82","","","","","","","","","","","","","","","",""
"","ITI","","html-keyboard-response","526","595734","0.0-1.0-747.0","0","0","67374","","null","","","null","82","","","","","","","","","","","","","","","NaN",""
"","S1","","html-keyboard-response","527","595988","0.0-1.0-749.0","0","0","67374","","null","","","null","83","","","","","","","","","","","","","","","",""
"","ISI","","html-keyboard-response","528","596991","0.0-1.0-750.0","0","0","67374","","null","","","null","83","NaN","","","","","","","","","","","","","","",""
"","S2","","html-keyboard-response","529","597244","0.0-1.0-751.0","0","0","67374","","null","","","null","83","","NaN","","","","","","","","","","","","","",""
"","response","","html-keyboard-response","530","597613","0.0-1.0-752.0-0.0","0","0","67374","","368","","","75","83","","","2","83","training","adjacent","DC","4","3","R.jpg","Q.jpg","0","0","1","",""
"","feedback","","html-keyboard-response","531","598617","0.0-1.0-753.0-0.0","0","0","67374","","null","","","null","83","","","","","","","","","","","","","","","",""
"","ITI","","html-keyboard-response","532","599621","0.0-1.0-756.0","0","0","67374","","null","","","null","83","","","","","","","","","","","","","","","NaN",""
"","S1","","html-keyboard-response","533","599873","0.0-1.0-758.0","0","0","67374","","null","","","null","84","","","","","","","","","","","","","","","",""
"","ISI","","html-keyboard-response","534","600876","0.0-1.0-759.0","0","0","67374","","null","","","null","84","NaN","","","","","","","","","","","","","","",""
"","S2","","html-keyboard-response","535","601129","0.0-1.0-760.0","0","0","67374","","null","","","null","84","","NaN","","","","","","","","","","","","","",""
"","response","","html-keyboard-response","536","601201","0.0-1.0-761.0-0.0","0","0","67374","","69","","","68","84","","","2","84","training","adjacent","DE","4","5","R.jpg","O.jpg","1","1","1","",""
"","feedback","","html-keyboard-response","537","602205","0.0-1.0-762.0-0.0","0","0","67374","","null","","","null","84","","","","","","","","","","","","","","","",""
"","ITI","","html-keyboard-response","538","603208","0.0-1.0-765.0","0","0","67374","","null","","","null","84","","","","","","","","","","","","","","","NaN",""
"","S1","","html-keyboard-response","539","603465","0.0-1.0-767.0","0","0","67374","","null","","","null","85","","","","","","","","","","","","","","","",""
"","ISI","","html-keyboard-response","540","604468","0.0-1.0-768.0","0","0","67374","","null","","","null","85","NaN","","","","","","","","","","","","","","",""
"","S2","","html-keyboard-response","541","604721","0.0-1.0-769.0","0","0","67374","","null","","","null","85","","NaN","","","","","","","","","","","","","",""
"","response","","html-keyboard-response","542","604985","0.0-1.0-770.0-0.0","0","0","67374","","262","","","75","85","","","2","85","training","adjacent","EF","5","6","O.jpg","P.jpg","0","1","0","",""
"","feedback","","html-keyboard-response","543","605989","0.0-1.0-771.0-0.0","0","0","67374","","null","","","null","85","","","","","","","","","","","","","","","",""
"","time_out","","html-keyboard-response","544","607993","0.0-1.0-773.0-0.0","0","0","67374","","null","","","null","85","","","","","","","","","","","","","","","",""
"","ITI","","html-keyboard-response","545","608996","0.0-1.0-774.0","0","0","67374","","null","","","null","85","","","","","","","","","","","","","","","NaN",""
"","S1","","html-keyboard-response","546","609249","0.0-1.0-776.0","0","0","67374","","null","","","null","86","","","","","","","","","","","","","","","",""
"","ISI","","html-keyboard-response","547","610253","0.0-1.0-777.0","0","0","67374","","null","","","null","86","NaN","","","","","","","","","","","","","","",""
"","S2","","html-keyboard-response","548","610507","0.0-1.0-778.0","0","0","67374","","null","","","null","86","","NaN","","","","","","","","","","","","","",""
"","response","","html-keyboard-response","549","610700","0.0-1.0-779.0-0.0","0","0","67374","","191","","","68","86","","","2","86","training","adjacent","DE","4","5","R.jpg","O.jpg","1","1","1","",""
"","feedback","","html-keyboard-response","550","611704","0.0-1.0-780.0-0.0","0","0","67374","","null","","","null","86","","","","","","","","","","","","","","","",""
"","ITI","","html-keyboard-response","551","612707","0.0-1.0-783.0","0","0","67374","","null","","","null","86","","","","","","","","","","","","","","","NaN",""
"","S1","","html-keyboard-response","552","612961","0.0-1.0-785.0","0","0","67374","","null","","","null","87","","","","","","","","","","","","","","","",""
"","ISI","","html-keyboard-response","553","613963","0.0-1.0-786.0","0","0","67374","","null","","","null","87","NaN","","","","","","","","","","","","","","",""
"","S2","","html-keyboard-response","554","614218","0.0-1.0-787.0","0","0","67374","","null","","","null","87","","NaN","","","","","","","","","","","","","",""
"","response","","html-keyboard-response","555","614689","0.0-1.0-788.0-0.0","0","0","67374","","470","","","75","87","","","2","87","training","adjacent","DC","4","3","R.jpg","Q.jpg","0","0","1","",""
"","feedback","","html-keyboard-response","556","615692","0.0-1.0-789.0-0.0","0","0","67374","","null","","","null","87","","","","","","","","","","","","","","","",""
"","ITI","","html-keyboard-response","557","616695","0.0-1.0-792.0","0","0","67374","","null","","","null","87","","","","","","","","","","","","","","","NaN",""
"","S1","","html-keyboard-response","558","616950","0.0-1.0-794.0","0","0","67374","","null","","","null","88","","","","","","","","","","","","","","","",""
"","ISI","","html-keyboard-response","559","617953","0.0-1.0-795.0","0","0","67374","","null","","","null","88","NaN","","","","","","","","","","","","","","",""
"","S2","","html-keyboard-response","560","618208","0.0-1.0-796.0","0","0","67374","","null","","","null","88","","NaN","","","","","","","","","","","","","",""
"","response","","html-keyboard-response","561","618306","0.0-1.0-797.0-0.0","0","0","67374","","96","","","68","88","","","2","88","training","adjacent","DE","4","5","R.jpg","O.jpg","1","1","1","",""
"","feedback","","html-keyboard-response","562","619309","0.0-1.0-798.0-0.0","0","0","67374","","null","","","null","88","","","","","","","","","","","","","","","",""
"","ITI","","html-keyboard-response","563","620313","0.0-1.0-801.0","0","0","67374","","null","","","null","88","","","","","","","","","","","","","","","NaN",""
"","S1","","html-keyboard-response","564","620567","0.0-1.0-803.0","0","0","67374","","null","","","null","89","","","","","","","","","","","","","","","",""
"","ISI","","html-keyboard-response","565","621569","0.0-1.0-804.0","0","0","67374","","null","","","null","89","NaN","","","","","","","","","","","","","","",""
"","S2","","html-keyboard-response","566","621822","0.0-1.0-805.0","0","0","67374","","null","","","null","89","","NaN","","","","","","","","","","","","","",""
"","response","","html-keyboard-response","567","622104","0.0-1.0-806.0-0.0","0","0","67374","","279","","","75","89","","","2","89","training","adjacent","BC","2","3","L.jpg","Q.jpg","0","1","0","",""
"","feedback","","html-keyboard-response","568","623107","0.0-1.0-807.0-0.0","0","0","67374","","null","","","null","89","","","","","","","","","","","","","","","",""
"","time_out","","html-keyboard-response","569","625110","0.0-1.0-809.0-0.0","0","0","67374","","null","","","null","89","","","","","","","","","","","","","","","",""
"","ITI","","html-keyboard-response","570","626113","0.0-1.0-810.0","0","0","67374","","null","","","null","89","","","","","","","","","","","","","","","NaN",""
"","S1","","html-keyboard-response","571","626366","0.0-1.0-812.0","0","0","67374","","null","","","null","90","","","","","","","","","","","","","","","",""
"","ISI","","html-keyboard-response","572","627369","0.0-1.0-813.0","0","0","67374","","null","","","null","90","NaN","","","","","","","","","","","","","","",""
"","S2","","html-keyboard-response","573","627622","0.0-1.0-814.0","0","0","67374","","null","","","null","90","","NaN","","","","","","","","","","","","","",""
"","response","","html-keyboard-response","574","627718","0.0-1.0-815.0-0.0","0","0","67374","","92","","","68","90","","","2","90","training","adjacent","ED","5","4","O.jpg","R.jpg","1","0","0","",""
"","feedback","","html-keyboard-response","575","628722","0.0-1.0-816.0-0.0","0","0","67374","","null","","","null","90","","","","","","","","","","","","","","","",""
"","time_out","","html-keyboard-response","576","630724","0.0-1.0-818.0-0.0","0","0","67374","","null","","","null","90","","","","","","","","","","","","","","","",""
"","ITI","","html-keyboard-response","577","631727","0.0-1.0-819.0","0","0","67374","","null","","","null","90","","","","","","","","","","","","","","","NaN",""
"","S1","","html-keyboard-response","578","631981","0.0-1.0-821.0","0","0","67374","","null","","","null","91","","","","","","","","","","","","","","","",""
"","ISI","","html-keyboard-response","579","632983","0.0-1.0-822.0","0","0","67374","","356","","","75","91","k","","","","","","","","","","","","","","",""
"","S2","","html-keyboard-response","580","633181","0.0-1.0-823.0","0","0","67374","","197","","","75","91","","k","2","91","training","adjacent","AB","1","2","M.jpg","L.jpg","0","1","0","",""
"","feedback","","html-keyboard-response","581","634185","0.0-1.0-825.0-0.0","0","0","67374","","null","","","null","91","","","","","","","","","","","","","","","",""
