"success","ttype","start_time","trial_type","trial_index","time_elapsed","internal_node_id","warning","missed_checkup","PID","view_history","rt","responses","repeat_instructions","key_press","index","keypress_isi","keypress_S2","block","trial_num","phase","group_type","pair_type","S1_stim","S2_stim","S1_img","S2_img","S1_chosen","S1_higher","accuracy","keypress_iti","total_bonus_tally"
"true","full_screen","d04142023hr1923","fullscreen","0","11747","0.0-0.0","0","0","41581","","","","","","","","","","","","","","","","","","","","","",""
"","instructions","","instructions","1","56113","0.0-1.0-0.0-0.0","0","0","41581","[{""page_index"":0,""viewing_time"":5057},{""page_index"":1,""viewing_time"":27506},{""page_index"":2,""viewing_time"":9681},{""page_index"":3,""viewing_time"":2119}]","44363","","","","","","","","","","","","","","","","","","","",""
"","comprehension_check","","survey-multi-choice","2","76367","0.0-1.0-0.0-1.0","0","0","41581","","20249","{""Q0"":""True"",""Q1"":""D"",""Q2"":""Only when the screen 'MAKE A CHOICE' is shown"",""Q3"":""Green mark"",""Q4"":""either D or K""}","1","","","","","","","","","","","","","","","","","",""
"","missed_instruction_checkup","","html-keyboard-response","3","79613","0.0-1.0-0.0-2.0-0.0","0","1","41581","","3242","","","32","","","","","","","","","","","","","","","","",""
"","instructions","","instructions","4","113470","0.0-1.0-0.1-0.1","0","0","41581","[{""page_index"":0,""viewing_time"":3394},{""page_index"":1,""viewing_time"":27072},{""page_index"":2,""viewing_time"":2323},{""page_index"":3,""viewing_time"":1066}]","33855","","","","","","","","","","","","","","","","","","","",""
"","comprehension_check","","survey-multi-choice","5","136524","0.0-1.0-0.1-1.1","0","0","41581","","23050","{""Q0"":""True"",""Q1"":""K"",""Q2"":""Once the second image appears and while the screen 'MAKE A CHOICE' is shown"",""Q3"":""Green mark"",""Q4"":""either D or K""}","0","","","","","","","","","","","","","","","","","",""
"","start_exp","","html-keyboard-response","6","141803","0.0-1.0-1.0","0","0","41581","","5276","","","32","","","","","","","","","","","","","","","","",""
"","S1","","html-keyboard-response","7","142057","0.0-1.0-2.0","0","0","41581","","null","","","null","0","","","","","","","","","","","","","","","",""
"","ISI","","html-keyboard-response","8","143060","0.0-1.0-3.0","0","0","41581","","null","","","null","0","NaN","","","","","","","","","","","","","","",""
"","S2","","html-keyboard-response","9","143314","0.0-1.0-4.0","0","0","41581","","null","","","null","0","","NaN","","","","","","","","","","","","","",""
"","response","","html-keyboard-response","10","145067","0.0-1.0-5.0-0.0","0","0","41581","","null","","","null","0","","","1","0","training","adjacent","AB","1","2","M.jpg","L.jpg","NaN","1","0","",""
"","too_slow_prompt","","html-keyboard-response","11","146071","0.0-1.0-7.0-0.0","1","0","41581","","null","","","null","","","","","","","","","","","","","","","","",""
"","time_out","","html-keyboard-response","12","148073","0.0-1.0-8.0-0.0","0","0","41581","","null","","","null","0","","","","","","","","","","","","","","","",""
"","ITI","","html-keyboard-response","13","149075","0.0-1.0-9.0","0","0","41581","","835","","","32","0","","","","","","","","","","","","","","","space",""
"","S1","","html-keyboard-response","14","149330","0.0-1.0-11.0","0","0","41581","","null","","","null","1","","","","","","","","","","","","","","","",""
"","ISI","","html-keyboard-response","15","150333","0.0-1.0-12.0","0","0","41581","","null","","","null","1","NaN","","","","","","","","","","","","","","",""
"","S2","","html-keyboard-response","16","150586","0.0-1.0-13.0","0","0","41581","","null","","","null","1","","NaN","","","","","","","","","","","","","",""
"","response","","html-keyboard-response","17","151391","0.0-1.0-14.0-0.0","0","0","41581","","802","","","68","1","","","1","1","training","adjacent","BC","2","3","L.jpg","O.jpg","0","1","0","",""
"","feedback","","html-keyboard-response","18","152394","0.0-1.0-15.0-0.0","0","0","41581","","null","","","null","1","","","","","","","","","","","","","","","",""
"","time_out","","html-keyboard-response","19","154396","0.0-1.0-17.0-0.0","0","0","41581","","null","","","null","1","","","","","","","","","","","","","","","",""
"","ITI","","html-keyboard-response","20","155400","0.0-1.0-18.0","0","0","41581","","null","","","null","1","","","","","","","","","","","","","","","NaN",""
"","S1","","html-keyboard-response","21","155652","0.0-1.0-20.0","0","0","41581","","null","","","null","2","","","","","","","","","","","","","","","",""
"","ISI","","html-keyboard-response","22","156655","0.0-1.0-21.0","0","0","41581","","null","","","null","2","NaN","","","","","","","","","","","","","","",""
"","S2","","html-keyboard-response","23","156908","0.0-1.0-22.0","0","0","41581","","null","","","null","2","","NaN","","","","","","","","","","","","","",""
"","response","","html-keyboard-response","24","158003","0.0-1.0-23.0-0.0","0","0","41581","","1093","","","75","2","","","1","2","training","adjacent","EF","5","6","Q.jpg","R.jpg","1","1","1","",""
"","feedback","","html-keyboard-response","25","159006","0.0-1.0-24.0-0.0","0","0","41581","","null","","","null","2","","","","","","","","","","","","","","","",""
"","ITI","","html-keyboard-response","26","160010","0.0-1.0-27.0","0","0","41581","","null","","","null","2","","","","","","","","","","","","","","","NaN",""
"","S1","","html-keyboard-response","27","160262","0.0-1.0-29.0","0","0","41581","","null","","","null","3","","","","","","","","","","","","","","","",""
"","ISI","","html-keyboard-response","28","161265","0.0-1.0-30.0","0","0","41581","","null","","","null","3","NaN","","","","","","","","","","","","","","",""
"","S2","","html-keyboard-response","29","161518","0.0-1.0-31.0","0","0","41581","","null","","","null","3","","NaN","","","","","","","","","","","","","",""
"","response","","html-keyboard-response","30","162063","0.0-1.0-32.0-0.0","0","0","41581","","543","","","75","3","","","1","3","training","adjacent","EF","5","6","Q.jpg","R.jpg","1","1","1","",""
"","feedback","","html-keyboard-response","31","163066","0.0-1.0-33.0-0.0","0","0","41581","","null","","","null","3","","","","","","","","","","","","","","","",""
"","ITI","","html-keyboard-response","32","164069","0.0-1.0-36.0","0","0","41581","","null","","","null","3","","","","","","","","","","","","","","","NaN",""
"","S1","","html-keyboard-response","33","164322","0.0-1.0-38.0","0","0","41581","","null","","","null","4","","","","","","","","","","","","","","","",""
"","ISI","","html-keyboard-response","34","165325","0.0-1.0-39.0","0","0","41581","","null","","","null","4","NaN","","","","","","","","","","","","","","",""
"","S2","","html-keyboard-response","35","165578","0.0-1.0-40.0","0","0","41581","","null","","","null","4","","NaN","","","","","","","","","","","","","",""
"","response","","html-keyboard-response","36","166263","0.0-1.0-41.0-0.0","0","0","41581","","682","","","75","4","","","1","4","training","adjacent","CD","3","4","O.jpg","P.jpg","1","1","1","",""
"","feedback","","html-keyboard-response","37","167266","0.0-1.0-42.0-0.0","0","0","41581","","null","","","null","4","","","","","","","","","","","","","","","",""
"","ITI","","html-keyboard-response","38","168269","0.0-1.0-45.0","0","0","41581","","null","","","null","4","","","","","","","","","","","","","","","NaN",""
"","S1","","html-keyboard-response","39","168523","0.0-1.0-47.0","0","0","41581","","null","","","null","5","","","","","","","","","","","","","","","",""
"","ISI","","html-keyboard-response","40","169525","0.0-1.0-48.0","0","0","41581","","null","","","null","5","NaN","","","","","","","","","","","","","","",""
"","S2","","html-keyboard-response","41","169778","0.0-1.0-49.0","0","0","41581","","null","","","null","5","","NaN","","","","","","","","","","","","","",""
"","response","","html-keyboard-response","42","170147","0.0-1.0-50.0-0.0","0","0","41581","","366","","","75","5","","","1","5","training","adjacent","EF","5","6","Q.jpg","R.jpg","1","1","1","",""
"","feedback","","html-keyboard-response","43","171150","0.0-1.0-51.0-0.0","0","0","41581","","null","","","null","5","","","","","","","","","","","","","","","",""
"","ITI","","html-keyboard-response","44","172154","0.0-1.0-54.0","0","0","41581","","null","","","null","5","","","","","","","","","","","","","","","NaN",""
"","S1","","html-keyboard-response","45","172406","0.0-1.0-56.0","0","0","41581","","null","","","null","6","","","","","","","","","","","","","","","",""
"","ISI","","html-keyboard-response","46","173408","0.0-1.0-57.0","0","0","41581","","null","","","null","6","NaN","","","","","","","","","","","","","","",""
"","S2","","html-keyboard-response","47","173661","0.0-1.0-58.0","0","0","41581","","null","","","null","6","","NaN","","","","","","","","","","","","","",""
"","response","","html-keyboard-response","48","174182","0.0-1.0-59.0-0.0","0","0","41581","","519","","","75","6","","","1","6","training","adjacent","BC","2","3","L.jpg","O.jpg","1","1","1","",""
"","feedback","","html-keyboard-response","49","175184","0.0-1.0-60.0-0.0","0","0","41581","","null","","","null","6","","","","","","","","","","","","","","","",""
"","ITI","","html-keyboard-response","50","176187","0.0-1.0-63.0","0","0","41581","","null","","","null","6","","","","","","","","","","","","","","","NaN",""
"","S1","","html-keyboard-response","51","176440","0.0-1.0-65.0","0","0","41581","","null","","","null","7","","","","","","","","","","","","","","","",""
"","ISI","","html-keyboard-response","52","177443","0.0-1.0-66.0","0","0","41581","","null","","","null","7","NaN","","","","","","","","","","","","","","",""
"","S2","","html-keyboard-response","53","177696","0.0-1.0-67.0","0","0","41581","","null","","","null","7","","NaN","","","","","","","","","","","","","",""
"","response","","html-keyboard-response","54","178295","0.0-1.0-68.0-0.0","0","0","41581","","597","","","75","7","","","1","7","training","adjacent","EF","5","6","Q.jpg","R.jpg","1","1","1","",""
"","feedback","","html-keyboard-response","55","179298","0.0-1.0-69.0-0.0","0","0","41581","","null","","","null","7","","","","","","","","","","","","","","","",""
"","ITI","","html-keyboard-response","56","180300","0.0-1.0-72.0","0","0","41581","","null","","","null","7","","","","","","","","","","","","","","","NaN",""
"","S1","","html-keyboard-response","57","180553","0.0-1.0-74.0","0","0","41581","","null","","","null","8","","","","","","","","","","","","","","","",""
"","ISI","","html-keyboard-response","58","181555","0.0-1.0-75.0","0","0","41581","","null","","","null","8","NaN","","","","","","","","","","","","","","",""
"","S2","","html-keyboard-response","59","181809","0.0-1.0-76.0","0","0","41581","","null","","","null","8","","NaN","","","","","","","","","","","","","",""
"","response","","html-keyboard-response","60","181907","0.0-1.0-77.0-0.0","0","0","41581","","96","","","75","8","","","1","8","training","adjacent","BA","2","1","L.jpg","M.jpg","1","0","0","",""
"","feedback","","html-keyboard-response","61","182910","0.0-1.0-78.0-0.0","0","0","41581","","null","","","null","8","","","","","","","","","","","","","","","",""
"","time_out","","html-keyboard-response","62","184913","0.0-1.0-80.0-0.0","0","0","41581","","null","","","null","8","","","","","","","","","","","","","","","",""
"","ITI","","html-keyboard-response","63","185915","0.0-1.0-81.0","0","0","41581","","null","","","null","8","","","","","","","","","","","","","","","NaN",""
"","S1","","html-keyboard-response","64","186168","0.0-1.0-83.0","0","0","41581","","null","","","null","9","","","","","","","","","","","","","","","",""
"","ISI","","html-keyboard-response","65","187171","0.0-1.0-84.0","0","0","41581","","null","","","null","9","NaN","","","","","","","","","","","","","","",""
"","S2","","html-keyboard-response","66","187424","0.0-1.0-85.0","0","0","41581","","null","","","null","9","","NaN","","","","","","","","","","","","","",""
"","response","","html-keyboard-response","67","188167","0.0-1.0-86.0-0.0","0","0","41581","","740","","","68","9","","","1","9","training","adjacent","FG","6","7","R.jpg","N.jpg","0","1","0","",""
"","feedback","","html-keyboard-response","68","189170","0.0-1.0-87.0-0.0","0","0","41581","","null","","","null","9","","","","","","","","","","","","","","","",""
"","time_out","","html-keyboard-response","69","191173","0.0-1.0-89.0-0.0","0","0","41581","","null","","","null","9","","","","","","","","","","","","","","","",""
"","ITI","","html-keyboard-response","70","192175","0.0-1.0-90.0","0","0","41581","","null","","","null","9","","","","","","","","","","","","","","","NaN",""
"","S1","","html-keyboard-response","71","192428","0.0-1.0-92.0","0","0","41581","","null","","","null","10","","","","","","","","","","","","","","","",""
"","ISI","","html-keyboard-response","72","193431","0.0-1.0-93.0","0","0","41581","","null","","","null","10","NaN","","","","","","","","","","","","","","",""
"","S2","","html-keyboard-response","73","193684","0.0-1.0-94.0","0","0","41581","","null","","","null","10","","NaN","","","","","","","","","","","","","",""
"","response","","html-keyboard-response","74","194611","0.0-1.0-95.0-0.0","0","0","41581","","925","","","75","10","","","1","10","training","adjacent","AB","1","2","M.jpg","L.jpg","1","1","1","",""
"","feedback","","html-keyboard-response","75","195614","0.0-1.0-96.0-0.0","0","0","41581","","null","","","null","10","","","","","","","","","","","","","","","",""
"","ITI","","html-keyboard-response","76","196616","0.0-1.0-99.0","0","0","41581","","null","","","null","10","","","","","","","","","","","","","","","NaN",""
"","S1","","html-keyboard-response","77","196870","0.0-1.0-101.0","0","0","41581","","null","","","null","11","","","","","","","","","","","","","","","",""
"","ISI","","html-keyboard-response","78","197872","0.0-1.0-102.0","0","0","41581","","null","","","null","11","NaN","","","","","","","","","","","","","","",""
"","S2","","html-keyboard-response","79","198125","0.0-1.0-103.0","0","0","41581","","null","","","null","11","","NaN","","","","","","","","","","","","","",""
"","response","","html-keyboard-response","80","198670","0.0-1.0-104.0-0.0","0","0","41581","","544","","","75","11","","","1","11","training","adjacent","ED","5","4","Q.jpg","P.jpg","1","0","0","",""
"","feedback","","html-keyboard-response","81","199673","0.0-1.0-105.0-0.0","0","0","41581","","null","","","null","11","","","","","","","","","","","","","","","",""
"","time_out","","html-keyboard-response","82","201676","0.0-1.0-107.0-0.0","0","0","41581","","null","","","null","11","","","","","","","","","","","","","","","",""
"","ITI","","html-keyboard-response","83","202678","0.0-1.0-108.0","0","0","41581","","null","","","null","11","","","","","","","","","","","","","","","NaN",""
"","S1","","html-keyboard-response","84","202931","0.0-1.0-110.0","0","0","41581","","null","","","null","12","","","","","","","","","","","","","","","",""
"","ISI","","html-keyboard-response","85","203941","0.0-1.0-111.0","0","0","41581","","null","","","null","12","NaN","","","","","","","","","","","","","","",""
"","S2","","html-keyboard-response","86","204193","0.0-1.0-112.0","0","0","41581","","null","","","null","12","","NaN","","","","","","","","","","","","","",""
"","response","","html-keyboard-response","87","205426","0.0-1.0-113.0-0.0","0","0","41581","","1231","","","68","12","","","1","12","training","adjacent","CD","3","4","O.jpg","P.jpg","0","1","0","",""
"","feedback","","html-keyboard-response","88","206431","0.0-1.0-114.0-0.0","0","0","41581","","null","","","null","12","","","","","","","","","","","","","","","",""
"","time_out","","html-keyboard-response","89","208434","0.0-1.0-116.0-0.0","0","0","41581","","null","","","null","12","","","","","","","","","","","","","","","",""
"","ITI","","html-keyboard-response","90","209437","0.0-1.0-117.0","0","0","41581","","null","","","null","12","","","","","","","","","","","","","","","NaN",""
"","S1","","html-keyboard-response","91","209690","0.0-1.0-119.0","0","0","41581","","null","","","null","13","","","","","","","","","","","","","","","",""
"","ISI","","html-keyboard-response","92","210693","0.0-1.0-120.0","0","0","41581","","null","","","null","13","NaN","","","","","","","","","","","","","","",""
"","S2","","html-keyboard-response","93","210946","0.0-1.0-121.0","0","0","41581","","null","","","null","13","","NaN","","","","","","","","","","","","","",""
"","response","","html-keyboard-response","94","211614","0.0-1.0-122.0-0.0","0","0","41581","","666","","","75","13","","","1","13","training","adjacent","FG","6","7","R.jpg","N.jpg","1","1","1","",""
"","feedback","","html-keyboard-response","95","212617","0.0-1.0-123.0-0.0","0","0","41581","","null","","","null","13","","","","","","","","","","","","","","","",""
"","ITI","","html-keyboard-response","96","213620","0.0-1.0-126.0","0","0","41581","","null","","","null","13","","","","","","","","","","","","","","","NaN",""
"","S1","","html-keyboard-response","97","213873","0.0-1.0-128.0","0","0","41581","","null","","","null","14","","","","","","","","","","","","","","","",""
"","ISI","","html-keyboard-response","98","214876","0.0-1.0-129.0","0","0","41581","","null","","","null","14","NaN","","","","","","","","","","","","","","",""
"","S2","","html-keyboard-response","99","215130","0.0-1.0-130.0","0","0","41581","","null","","","null","14","","NaN","","","","","","","","","","","","","",""
"","response","","html-keyboard-response","100","216219","0.0-1.0-131.0-0.0","0","0","41581","","1086","","","68","14","","","1","14","training","adjacent","BC","2","3","L.jpg","O.jpg","0","1","0","",""
"","feedback","","html-keyboard-response","101","217225","0.0-1.0-132.0-0.0","0","0","41581","","null","","","null","14","","","","","","","","","","","","","","","",""
"","time_out","","html-keyboard-response","102","219227","0.0-1.0-134.0-0.0","0","0","41581","","null","","","null","14","","","","","","","","","","","","","","","",""
"","ITI","","html-keyboard-response","103","220231","0.0-1.0-135.0","0","0","41581","","null","","","null","14","","","","","","","","","","","","","","","NaN",""
"","S1","","html-keyboard-response","104","220484","0.0-1.0-137.0","0","0","41581","","null","","","null","15","","","","","","","","","","","","","","","",""
"","ISI","","html-keyboard-response","105","221486","0.0-1.0-138.0","0","0","41581","","null","","","null","15","NaN","","","","","","","","","","","","","","",""
"","S2","","html-keyboard-response","106","221741","0.0-1.0-139.0","0","0","41581","","null","","","null","15","","NaN","","","","","","","","","","","","","",""
"","response","","html-keyboard-response","107","222862","0.0-1.0-140.0-0.0","0","0","41581","","1120","","","68","15","","","1","15","training","adjacent","ED","5","4","Q.jpg","P.jpg","0","0","1","",""
"","feedback","","html-keyboard-response","108","223866","0.0-1.0-141.0-0.0","0","0","41581","","null","","","null","15","","","","","","","","","","","","","","","",""
"","ITI","","html-keyboard-response","109","224870","0.0-1.0-144.0","0","0","41581","","null","","","null","15","","","","","","","","","","","","","","","NaN",""
"","S1","","html-keyboard-response","110","225122","0.0-1.0-146.0","0","0","41581","","null","","","null","16","","","","","","","","","","","","","","","",""
"","ISI","","html-keyboard-response","111","226124","0.0-1.0-147.0","0","0","41581","","null","","","null","16","NaN","","","","","","","","","","","","","","",""
"","S2","","html-keyboard-response","112","226378","0.0-1.0-148.0","0","0","41581","","null","","","null","16","","NaN","","","","","","","","","","","","","",""
"","response","","html-keyboard-response","113","226938","0.0-1.0-149.0-0.0","0","0","41581","","558","","","68","16","","","1","16","training","adjacent","BC","2","3","L.jpg","O.jpg","0","1","0","",""
"","feedback","","html-keyboard-response","114","227941","0.0-1.0-150.0-0.0","0","0","41581","","null","","","null","16","","","","","","","","","","","","","","","",""
"","time_out","","html-keyboard-response","115","229943","0.0-1.0-152.0-0.0","0","0","41581","","null","","","null","16","","","","","","","","","","","","","","","",""
"","ITI","","html-keyboard-response","116","230947","0.0-1.0-153.0","0","0","41581","","null","","","null","16","","","","","","","","","","","","","","","NaN",""
"","S1","","html-keyboard-response","117","231199","0.0-1.0-155.0","0","0","41581","","null","","","null","17","","","","","","","","","","","","","","","",""
"","ISI","","html-keyboard-response","118","232202","0.0-1.0-156.0","0","0","41581","","null","","","null","17","NaN","","","","","","","","","","","","","","",""
"","S2","","html-keyboard-response","119","232456","0.0-1.0-157.0","0","0","41581","","null","","","null","17","","NaN","","","","","","","","","","","","","",""
"","response","","html-keyboard-response","120","233790","0.0-1.0-158.0-0.0","0","0","41581","","1333","","","75","17","","","1","17","training","adjacent","DE","4","5","P.jpg","Q.jpg","1","1","1","",""
"","feedback","","html-keyboard-response","121","234794","0.0-1.0-159.0-0.0","0","0","41581","","null","","","null","17","","","","","","","","","","","","","","","",""
"","ITI","","html-keyboard-response","122","235797","0.0-1.0-162.0","0","0","41581","","null","","","null","17","","","","","","","","","","","","","","","NaN",""
"","S1","","html-keyboard-response","123","236049","0.0-1.0-164.0","0","0","41581","","null","","","null","18","","","","","","","","","","","","","","","",""
"","ISI","","html-keyboard-response","124","237052","0.0-1.0-165.0","0","0","41581","","null","","","null","18","NaN","","","","","","","","","","","","","","",""
"","S2","","html-keyboard-response","125","237305","0.0-1.0-166.0","0","0","41581","","null","","","null","18","","NaN","","","","","","","","","","","","","",""
"","response","","html-keyboard-response","126","237851","0.0-1.0-167.0-0.0","0","0","41581","","543","","","75","18","","","1","18","training","adjacent","FE","6","5","R.jpg","Q.jpg","1","0","0","",""
"","feedback","","html-keyboard-response","127","238854","0.0-1.0-168.0-0.0","0","0","41581","","null","","","null","18","","","","","","","","","","","","","","","",""
"","time_out","","html-keyboard-response","128","240857","0.0-1.0-170.0-0.0","0","0","41581","","null","","","null","18","","","","","","","","","","","","","","","",""
"","ITI","","html-keyboard-response","129","241860","0.0-1.0-171.0","0","0","41581","","null","","","null","18","","","","","","","","","","","","","","","NaN",""
"","S1","","html-keyboard-response","130","242113","0.0-1.0-173.0","0","0","41581","","null","","","null","19","","","","","","","","","","","","","","","",""
"","ISI","","html-keyboard-response","131","243115","0.0-1.0-174.0","0","0","41581","","null","","","null","19","NaN","","","","","","","","","","","","","","",""
"","S2","","html-keyboard-response","132","243370","0.0-1.0-175.0","0","0","41581","","null","","","null","19","","NaN","","","","","","","","","","","","","",""
"","response","","html-keyboard-response","133","244118","0.0-1.0-176.0-0.0","0","0","41581","","746","","","75","19","","","1","19","training","adjacent","CD","3","4","O.jpg","P.jpg","1","1","1","",""
"","feedback","","html-keyboard-response","134","245121","0.0-1.0-177.0-0.0","0","0","41581","","null","","","null","19","","","","","","","","","","","","","","","",""
"","ITI","","html-keyboard-response","135","246124","0.0-1.0-180.0","0","0","41581","","null","","","null","19","","","","","","","","","","","","","","","NaN",""
"","S1","","html-keyboard-response","136","246377","0.0-1.0-182.0","0","0","41581","","null","","","null","20","","","","","","","","","","","","","","","",""
"","ISI","","html-keyboard-response","137","247380","0.0-1.0-183.0","0","0","41581","","null","","","null","20","NaN","","","","","","","","","","","","","","",""
"","S2","","html-keyboard-response","138","247633","0.0-1.0-184.0","0","0","41581","","null","","","null","20","","NaN","","","","","","","","","","","","","",""
"","response","","html-keyboard-response","139","248402","0.0-1.0-185.0-0.0","0","0","41581","","766","","","68","20","","","1","20","training","adjacent","FE","6","5","R.jpg","Q.jpg","0","0","1","",""
"","feedback","","html-keyboard-response","140","249405","0.0-1.0-186.0-0.0","0","0","41581","","null","","","null","20","","","","","","","","","","","","","","","",""
"","ITI","","html-keyboard-response","141","250408","0.0-1.0-189.0","0","0","41581","","null","","","null","20","","","","","","","","","","","","","","","NaN",""
"","S1","","html-keyboard-response","142","250661","0.0-1.0-191.0","0","0","41581","","null","","","null","21","","","","","","","","","","","","","","","",""
"","ISI","","html-keyboard-response","143","251664","0.0-1.0-192.0","0","0","41581","","null","","","null","21","NaN","","","","","","","","","","","","","","",""
"","S2","","html-keyboard-response","144","251917","0.0-1.0-193.0","0","0","41581","","null","","","null","21","","NaN","","","","","","","","","","","","","",""
"","response","","html-keyboard-response","145","252398","0.0-1.0-194.0-0.0","0","0","41581","","479","","","68","21","","","1","21","training","adjacent","DE","4","5","P.jpg","Q.jpg","0","1","0","",""
"","feedback","","html-keyboard-response","146","253401","0.0-1.0-195.0-0.0","0","0","41581","","null","","","null","21","","","","","","","","","","","","","","","",""
"","time_out","","html-keyboard-response","147","255404","0.0-1.0-197.0-0.0","0","0","41581","","null","","","null","21","","","","","","","","","","","","","","","",""
"","ITI","","html-keyboard-response","148","256406","0.0-1.0-198.0","0","0","41581","","null","","","null","21","","","","","","","","","","","","","","","NaN",""
"","S1","","html-keyboard-response","149","256660","0.0-1.0-200.0","0","0","41581","","null","","","null","22","","","","","","","","","","","","","","","",""
"","ISI","","html-keyboard-response","150","257663","0.0-1.0-201.0","0","0","41581","","null","","","null","22","NaN","","","","","","","","","","","","","","",""
"","S2","","html-keyboard-response","151","257915","0.0-1.0-202.0","0","0","41581","","null","","","null","22","","NaN","","","","","","","","","","","","","",""
"","response","","html-keyboard-response","152","258954","0.0-1.0-203.0-0.0","0","0","41581","","1036","","","68","22","","","1","22","training","adjacent","FG","6","7","R.jpg","N.jpg","0","1","0","",""
"","feedback","","html-keyboard-response","153","259957","0.0-1.0-204.0-0.0","0","0","41581","","null","","","null","22","","","","","","","","","","","","","","","",""
"","time_out","","html-keyboard-response","154","261959","0.0-1.0-206.0-0.0","0","0","41581","","null","","","null","22","","","","","","","","","","","","","","","",""
"","ITI","","html-keyboard-response","155","262962","0.0-1.0-207.0","0","0","41581","","null","","","null","22","","","","","","","","","","","","","","","NaN",""
"","S1","","html-keyboard-response","156","263215","0.0-1.0-209.0","0","0","41581","","null","","","null","23","","","","","","","","","","","","","","","",""
"","ISI","","html-keyboard-response","157","264217","0.0-1.0-210.0","0","0","41581","","null","","","null","23","NaN","","","","","","","","","","","","","","",""
"","S2","","html-keyboard-response","158","264470","0.0-1.0-211.0","0","0","41581","","null","","","null","23","","NaN","","","","","","","","","","","","","",""
"","response","","html-keyboard-response","159","265542","0.0-1.0-212.0-0.0","0","0","41581","","1069","","","68","23","","","1","23","training","adjacent","AB","1","2","M.jpg","L.jpg","0","1","0","",""
"","feedback","","html-keyboard-response","160","266545","0.0-1.0-213.0-0.0","0","0","41581","","null","","","null","23","","","","","","","","","","","","","","","",""
"","time_out","","html-keyboard-response","161","268548","0.0-1.0-215.0-0.0","0","0","41581","","null","","","null","23","","","","","","","","","","","","","","","",""
"","ITI","","html-keyboard-response","162","269551","0.0-1.0-216.0","0","0","41581","","null","","","null","23","","","","","","","","","","","","","","","NaN",""
"","S1","","html-keyboard-response","163","269804","0.0-1.0-218.0","0","0","41581","","null","","","null","24","","","","","","","","","","","","","","","",""
"","ISI","","html-keyboard-response","164","270807","0.0-1.0-219.0","0","0","41581","","null","","","null","24","NaN","","","","","","","","","","","","","","",""
"","S2","","html-keyboard-response","165","271061","0.0-1.0-220.0","0","0","41581","","null","","","null","24","","NaN","","","","","","","","","","","","","",""
"","response","","html-keyboard-response","166","272026","0.0-1.0-221.0-0.0","0","0","41581","","963","","","68","24","","","1","24","training","adjacent","FE","6","5","R.jpg","Q.jpg","0","0","1","",""
"","feedback","","html-keyboard-response","167","273030","0.0-1.0-222.0-0.0","0","0","41581","","null","","","null","24","","","","","","","","","","","","","","","",""
"","ITI","","html-keyboard-response","168","274033","0.0-1.0-225.0","0","0","41581","","null","","","null","24","","","","","","","","","","","","","","","NaN",""
"","S1","","html-keyboard-response","169","274286","0.0-1.0-227.0","0","0","41581","","null","","","null","25","","","","","","","","","","","","","","","",""
"","ISI","","html-keyboard-response","170","275289","0.0-1.0-228.0","0","0","41581","","null","","","null","25","NaN","","","","","","","","","","","","","","",""
"","S2","","html-keyboard-response","171","275543","0.0-1.0-229.0","0","0","41581","","null","","","null","25","","NaN","","","","","","","","","","","","","",""
"","response","","html-keyboard-response","172","276174","0.0-1.0-230.0-0.0","0","0","41581","","629","","","75","25","","","1","25","training","adjacent","ED","5","4","Q.jpg","P.jpg","1","0","0","",""
"","feedback","","html-keyboard-response","173","277177","0.0-1.0-231.0-0.0","0","0","41581","","null","","","null","25","","","","","","","","","","","","","","","",""
"","time_out","","html-keyboard-response","174","279180","0.0-1.0-233.0-0.0","0","0","41581","","null","","","null","25","","","","","","","","","","","","","","","",""
"","ITI","","html-keyboard-response","175","280183","0.0-1.0-234.0","0","0","41581","","null","","","null","25","","","","","","","","","","","","","","","NaN",""
"","S1","","html-keyboard-response","176","280435","0.0-1.0-236.0","0","0","41581","","null","","","null","26","","","","","","","","","","","","","","","",""
"","ISI","","html-keyboard-response","177","281437","0.0-1.0-237.0","0","0","41581","","null","","","null","26","NaN","","","","","","","","","","","","","","",""
"","S2","","html-keyboard-response","178","281690","0.0-1.0-238.0","0","0","41581","","null","","","null","26","","NaN","","","","","","","","","","","","","",""
"","response","","html-keyboard-response","179","282786","0.0-1.0-239.0-0.0","0","0","41581","","1093","","","68","26","","","1","26","training","adjacent","DE","4","5","P.jpg","Q.jpg","0","1","0","",""
"","feedback","","html-keyboard-response","180","283788","0.0-1.0-240.0-0.0","0","0","41581","","null","","","null","26","","","","","","","","","","","","","","","",""
"","time_out","","html-keyboard-response","181","285791","0.0-1.0-242.0-0.0","0","0","41581","","null","","","null","26","","","","","","","","","","","","","","","",""
"","ITI","","html-keyboard-response","182","286794","0.0-1.0-243.0","0","0","41581","","null","","","null","26","","","","","","","","","","","","","","","NaN",""
"","S1","","html-keyboard-response","183","287047","0.0-1.0-245.0","0","0","41581","","null","","","null","27","","","","","","","","","","","","","","","",""
"","ISI","","html-keyboard-response","184","288050","0.0-1.0-246.0","0","0","41581","","null","","","null","27","NaN","","","","","","","","","","","","","","",""
"","S2","","html-keyboard-response","185","288303","0.0-1.0-247.0","0","0","41581","","null","","","null","27","","NaN","","","","","","","","","","","","","",""
"","response","","html-keyboard-response","186","289598","0.0-1.0-248.0-0.0","0","0","41581","","1292","","","68","27","","","1","27","training","adjacent","DC","4","3","P.jpg","O.jpg","0","0","1","",""
"","feedback","","html-keyboard-response","187","290601","0.0-1.0-249.0-0.0","0","0","41581","","null","","","null","27","","","","","","","","","","","","","","","",""
"","ITI","","html-keyboard-response","188","291604","0.0-1.0-252.0","0","0","41581","","null","","","null","27","","","","","","","","","","","","","","","NaN",""
"","S1","","html-keyboard-response","189","291857","0.0-1.0-254.0","0","0","41581","","null","","","null","28","","","","","","","","","","","","","","","",""
"","ISI","","html-keyboard-response","190","292860","0.0-1.0-255.0","0","0","41581","","null","","","null","28","NaN","","","","","","","","","","","","","","",""
"","S2","","html-keyboard-response","191","293113","0.0-1.0-256.0","0","0","41581","","null","","","null","28","","NaN","","","","","","","","","","","","","",""
"","response","","html-keyboard-response","192","293617","0.0-1.0-257.0-0.0","0","0","41581","","503","","","68","28","","","1","28","training","adjacent","BA","2","1","L.jpg","M.jpg","0","0","1","",""
"","feedback","","html-keyboard-response","193","294621","0.0-1.0-258.0-0.0","0","0","41581","","null","","","null","28","","","","","","","","","","","","","","","",""
"","ITI","","html-keyboard-response","194","295625","0.0-1.0-261.0","0","0","41581","","null","","","null","28","","","","","","","","","","","","","","","NaN",""
"","S1","","html-keyboard-response","195","295877","0.0-1.0-263.0","0","0","41581","","null","","","null","29","","","","","","","","","","","","","","","",""
"","ISI","","html-keyboard-response","196","296880","0.0-1.0-264.0","0","0","41581","","null","","","null","29","NaN","","","","","","","","","","","","","","",""
"","S2","","html-keyboard-response","197","297133","0.0-1.0-265.0","0","0","41581","","null","","","null","29","","NaN","","","","","","","","","","","","","",""
"","response","","html-keyboard-response","198","297837","0.0-1.0-266.0-0.0","0","0","41581","","702","","","68","29","","","1","29","training","adjacent","CD","3","4","O.jpg","P.jpg","0","1","0","",""
"","feedback","","html-keyboard-response","199","298841","0.0-1.0-267.0-0.0","0","0","41581","","null","","","null","29","","","","","","","","","","","","","","","",""
"","time_out","","html-keyboard-response","200","300844","0.0-1.0-269.0-0.0","0","0","41581","","null","","","null","29","","","","","","","","","","","","","","","",""
"","ITI","","html-keyboard-response","201","301847","0.0-1.0-270.0","0","0","41581","","null","","","null","29","","","","","","","","","","","","","","","NaN",""
"","S1","","html-keyboard-response","202","302101","0.0-1.0-272.0","0","0","41581","","null","","","null","30","","","","","","","","","","","","","","","",""
"","ISI","","html-keyboard-response","203","303103","0.0-1.0-273.0","0","0","41581","","null","","","null","30","NaN","","","","","","","","","","","","","","",""
"","S2","","html-keyboard-response","204","303356","0.0-1.0-274.0","0","0","41581","","null","","","null","30","","NaN","","","","","","","","","","","","","",""
"","response","","html-keyboard-response","205","303915","0.0-1.0-275.0-0.0","0","0","41581","","556","","","75","30","","","1","30","training","adjacent","GF","7","6","N.jpg","R.jpg","1","0","0","",""
"","feedback","","html-keyboard-response","206","304918","0.0-1.0-276.0-0.0","0","0","41581","","null","","","null","30","","","","","","","","","","","","","","","",""
"","time_out","","html-keyboard-response","207","306921","0.0-1.0-278.0-0.0","0","0","41581","","null","","","null","30","","","","","","","","","","","","","","","",""
"","ITI","","html-keyboard-response","208","307924","0.0-1.0-279.0","0","0","41581","","null","","","null","30","","","","","","","","","","","","","","","NaN",""
"","S1","","html-keyboard-response","209","308177","0.0-1.0-281.0","0","0","41581","","null","","","null","31","","","","","","","","","","","","","","","",""
"","ISI","","html-keyboard-response","210","309180","0.0-1.0-282.0","0","0","41581","","null","","","null","31","NaN","","","","","","","","","","","","","","",""
"","S2","","html-keyboard-response","211","309433","0.0-1.0-283.0","0","0","41581","","null","","","null","31","","NaN","","","","","","","","","","","","","",""
"","response","","html-keyboard-response","212","310317","0.0-1.0-284.0-0.0","0","0","41581","","883","","","68","31","","","1","31","training","adjacent","GF","7","6","N.jpg","R.jpg","0","0","1","",""
"","feedback","","html-keyboard-response","213","311321","0.0-1.0-285.0-0.0","0","0","41581","","null","","","null","31","","","","","","","","","","","","","","","",""
"","ITI","","html-keyboard-response","214","312323","0.0-1.0-288.0","0","0","41581","","null","","","null","31","","","","","","","","","","","","","","","NaN",""
"","S1","","html-keyboard-response","215","312576","0.0-1.0-290.0","0","0","41581","","null","","","null","32","","","","","","","","","","","","","","","",""
"","ISI","","html-keyboard-response","216","313579","0.0-1.0-291.0","0","0","41581","","null","","","null","32","NaN","","","","","","","","","","","","","","",""
"","S2","","html-keyboard-response","217","313832","0.0-1.0-292.0","0","0","41581","","null","","","null","32","","NaN","","","","","","","","","","","","","",""
"","response","","html-keyboard-response","218","314105","0.0-1.0-293.0-0.0","0","0","41581","","271","","","68","32","","","1","32","training","adjacent","GF","7","6","N.jpg","R.jpg","0","0","1","",""
"","feedback","","html-keyboard-response","219","315108","0.0-1.0-294.0-0.0","0","0","41581","","null","","","null","32","","","","","","","","","","","","","","","",""
"","ITI","","html-keyboard-response","220","316111","0.0-1.0-297.0","0","0","41581","","null","","","null","32","","","","","","","","","","","","","","","NaN",""
"","S1","","html-keyboard-response","221","316364","0.0-1.0-299.0","0","0","41581","","null","","","null","33","","","","","","","","","","","","","","","",""
"","ISI","","html-keyboard-response","222","317366","0.0-1.0-300.0","0","0","41581","","null","","","null","33","NaN","","","","","","","","","","","","","","",""
"","S2","","html-keyboard-response","223","317620","0.0-1.0-301.0","0","0","41581","","null","","","null","33","","NaN","","","","","","","","","","","","","",""
"","response","","html-keyboard-response","224","318517","0.0-1.0-302.0-0.0","0","0","41581","","896","","","68","33","","","1","33","training","adjacent","BA","2","1","L.jpg","M.jpg","0","0","1","",""
"","feedback","","html-keyboard-response","225","319521","0.0-1.0-303.0-0.0","0","0","41581","","null","","","null","33","","","","","","","","","","","","","","","",""
"","ITI","","html-keyboard-response","226","320524","0.0-1.0-306.0","0","0","41581","","null","","","null","33","","","","","","","","","","","","","","","NaN",""
"","S1","","html-keyboard-response","227","320777","0.0-1.0-308.0","0","0","41581","","null","","","null","34","","","","","","","","","","","","","","","",""
"","ISI","","html-keyboard-response","228","321779","0.0-1.0-309.0","0","0","41581","","null","","","null","34","NaN","","","","","","","","","","","","","","",""
"","S2","","html-keyboard-response","229","322032","0.0-1.0-310.0","0","0","41581","","null","","","null","34","","NaN","","","","","","","","","","","","","",""
"","response","","html-keyboard-response","230","322893","0.0-1.0-311.0-0.0","0","0","41581","","859","","","75","34","","","1","34","training","adjacent","FG","6","7","R.jpg","N.jpg","1","1","1","",""
"","feedback","","html-keyboard-response","231","323897","0.0-1.0-312.0-0.0","0","0","41581","","null","","","null","34","","","","","","","","","","","","","","","",""
"","ITI","","html-keyboard-response","232","324900","0.0-1.0-315.0","0","0","41581","","null","","","null","34","","","","","","","","","","","","","","","NaN",""
"","S1","","html-keyboard-response","233","325154","0.0-1.0-317.0","0","0","41581","","null","","","null","35","","","","","","","","","","","","","","","",""
"","ISI","","html-keyboard-response","234","326156","0.0-1.0-318.0","0","0","41581","","null","","","null","35","NaN","","","","","","","","","","","","","","",""
"","S2","","html-keyboard-response","235","326409","0.0-1.0-319.0","0","0","41581","","null","","","null","35","","NaN","","","","","","","","","","","","","",""
"","response","","html-keyboard-response","236","327313","0.0-1.0-320.0-0.0","0","0","41581","","901","","","75","35","","","1","35","training","adjacent","AB","1","2","M.jpg","L.jpg","1","1","1","",""
"","feedback","","html-keyboard-response","237","328316","0.0-1.0-321.0-0.0","0","0","41581","","null","","","null","35","","","","","","","","","","","","","","","",""
"","ITI","","html-keyboard-response","238","329319","0.0-1.0-324.0","0","0","41581","","null","","","null","35","","","","","","","","","","","","","","","NaN",""
"","S1","","html-keyboard-response","239","329572","0.0-1.0-326.0","0","0","41581","","null","","","null","36","","","","","","","","","","","","","","","",""
"","ISI","","html-keyboard-response","240","330575","0.0-1.0-327.0","0","0","41581","","null","","","null","36","NaN","","","","","","","","","","","","","","",""
"","S2","","html-keyboard-response","241","330828","0.0-1.0-328.0","0","0","41581","","null","","","null","36","","NaN","","","","","","","","","","","","","",""
"","response","","html-keyboard-response","242","331917","0.0-1.0-329.0-0.0","0","0","41581","","1087","","","75","36","","","1","36","training","adjacent","DC","4","3","P.jpg","O.jpg","1","0","0","",""
"","feedback","","html-keyboard-response","243","332920","0.0-1.0-330.0-0.0","0","0","41581","","null","","","null","36","","","","","","","","","","","","","","","",""
"","time_out","","html-keyboard-response","244","334923","0.0-1.0-332.0-0.0","0","0","41581","","null","","","null","36","","","","","","","","","","","","","","","",""
"","ITI","","html-keyboard-response","245","335925","0.0-1.0-333.0","0","0","41581","","null","","","null","36","","","","","","","","","","","","","","","NaN",""
"","S1","","html-keyboard-response","246","336178","0.0-1.0-335.0","0","0","41581","","null","","","null","37","","","","","","","","","","","","","","","",""
"","ISI","","html-keyboard-response","247","337181","0.0-1.0-336.0","0","0","41581","","null","","","null","37","NaN","","","","","","","","","","","","","","",""
"","S2","","html-keyboard-response","248","337434","0.0-1.0-337.0","0","0","41581","","null","","","null","37","","NaN","","","","","","","","","","","","","",""
"","response","","html-keyboard-response","249","338465","0.0-1.0-338.0-0.0","0","0","41581","","1028","","","75","37","","","1","37","training","adjacent","CB","3","2","O.jpg","L.jpg","1","0","0","",""
"","feedback","","html-keyboard-response","250","339468","0.0-1.0-339.0-0.0","0","0","41581","","null","","","null","37","","","","","","","","","","","","","","","",""
"","time_out","","html-keyboard-response","251","341471","0.0-1.0-341.0-0.0","0","0","41581","","null","","","null","37","","","","","","","","","","","","","","","",""
"","ITI","","html-keyboard-response","252","342473","0.0-1.0-342.0","0","0","41581","","null","","","null","37","","","","","","","","","","","","","","","NaN",""
"","S1","","html-keyboard-response","253","342726","0.0-1.0-344.0","0","0","41581","","null","","","null","38","","","","","","","","","","","","","","","",""
"","ISI","","html-keyboard-response","254","343731","0.0-1.0-345.0","0","0","41581","","null","","","null","38","NaN","","","","","","","","","","","","","","",""
"","S2","","html-keyboard-response","255","343983","0.0-1.0-346.0","0","0","41581","","null","","","null","38","","NaN","","","","","","","","","","","","","",""
"","response","","html-keyboard-response","256","344357","0.0-1.0-347.0-0.0","0","0","41581","","371","","","75","38","","","1","38","training","adjacent","ED","5","4","Q.jpg","P.jpg","1","0","0","",""
"","feedback","","html-keyboard-response","257","345360","0.0-1.0-348.0-0.0","0","0","41581","","null","","","null","38","","","","","","","","","","","","","","","",""
"","time_out","","html-keyboard-response","258","347362","0.0-1.0-350.0-0.0","0","0","41581","","null","","","null","38","","","","","","","","","","","","","","","",""
"","ITI","","html-keyboard-response","259","348371","0.0-1.0-351.0","0","0","41581","","null","","","null","38","","","","","","","","","","","","","","","NaN",""
"","S1","","html-keyboard-response","260","348624","0.0-1.0-353.0","0","0","41581","","null","","","null","39","","","","","","","","","","","","","","","",""
"","ISI","","html-keyboard-response","261","349626","0.0-1.0-354.0","0","0","41581","","null","","","null","39","NaN","","","","","","","","","","","","","","",""
"","S2","","html-keyboard-response","262","349889","0.0-1.0-355.0","0","0","41581","","null","","","null","39","","NaN","","","","","","","","","","","","","",""
"","response","","html-keyboard-response","263","350657","0.0-1.0-356.0-0.0","0","0","41581","","765","","","75","39","","","1","39","training","adjacent","CB","3","2","O.jpg","L.jpg","1","0","0","",""
"","feedback","","html-keyboard-response","264","351661","0.0-1.0-357.0-0.0","0","0","41581","","null","","","null","39","","","","","","","","","","","","","","","",""
"","time_out","","html-keyboard-response","265","353663","0.0-1.0-359.0-0.0","0","0","41581","","null","","","null","39","","","","","","","","","","","","","","","",""
"","ITI","","html-keyboard-response","266","354666","0.0-1.0-360.0","0","0","41581","","null","","","null","39","","","","","","","","","","","","","","","NaN",""
"","S1","","html-keyboard-response","267","354931","0.0-1.0-362.0","0","0","41581","","null","","","null","40","","","","","","","","","","","","","","","",""
"","ISI","","html-keyboard-response","268","355934","0.0-1.0-363.0","0","0","41581","","null","","","null","40","NaN","","","","","","","","","","","","","","",""
"","S2","","html-keyboard-response","269","356187","0.0-1.0-364.0","0","0","41581","","null","","","null","40","","NaN","","","","","","","","","","","","","",""
"","response","","html-keyboard-response","270","356805","0.0-1.0-365.0-0.0","0","0","41581","","615","","","75","40","","","1","40","training","adjacent","DC","4","3","P.jpg","O.jpg","1","0","0","",""
"","feedback","","html-keyboard-response","271","357808","0.0-1.0-366.0-0.0","0","0","41581","","null","","","null","40","","","","","","","","","","","","","","","",""
"","time_out","","html-keyboard-response","272","359811","0.0-1.0-368.0-0.0","0","0","41581","","null","","","null","40","","","","","","","","","","","","","","","",""
"","ITI","","html-keyboard-response","273","360814","0.0-1.0-369.0","0","0","41581","","null","","","null","40","","","","","","","","","","","","","","","NaN",""
"","S1","","html-keyboard-response","274","361080","0.0-1.0-371.0","0","0","41581","","null","","","null","41","","","","","","","","","","","","","","","",""
"","ISI","","html-keyboard-response","275","362083","0.0-1.0-372.0","0","0","41581","","null","","","null","41","NaN","","","","","","","","","","","","","","",""
"","S2","","html-keyboard-response","276","362335","0.0-1.0-373.0","0","0","41581","","null","","","null","41","","NaN","","","","","","","","","","","","","",""
"","response","","html-keyboard-response","277","363617","0.0-1.0-374.0-0.0","0","0","41581","","1279","","","68","41","","","1","41","training","adjacent","DC","4","3","P.jpg","O.jpg","0","0","1","",""
"","feedback","","html-keyboard-response","278","364621","0.0-1.0-375.0-0.0","0","0","41581","","null","","","null","41","","","","","","","","","","","","","","","",""
"","ITI","","html-keyboard-response","279","365623","0.0-1.0-378.0","0","0","41581","","null","","","null","41","","","","","","","","","","","","","","","NaN",""
"","S1","","html-keyboard-response","280","365876","0.0-1.0-380.0","0","0","41581","","null","","","null","42","","","","","","","","","","","","","","","",""
"","ISI","","html-keyboard-response","281","366879","0.0-1.0-381.0","0","0","41581","","null","","","null","42","NaN","","","","","","","","","","","","","","",""
"","S2","","html-keyboard-response","282","367132","0.0-1.0-382.0","0","0","41581","","null","","","null","42","","NaN","","","","","","","","","","","","","",""
"","response","","html-keyboard-response","283","367621","0.0-1.0-383.0-0.0","0","0","41581","","486","","","75","42","","","1","42","training","adjacent","BA","2","1","L.jpg","M.jpg","1","0","0","",""
"","feedback","","html-keyboard-response","284","368624","0.0-1.0-384.0-0.0","0","0","41581","","null","","","null","42","","","","","","","","","","","","","","","",""
"","time_out","","html-keyboard-response","285","370627","0.0-1.0-386.0-0.0","0","0","41581","","null","","","null","42","","","","","","","","","","","","","","","",""
"","ITI","","html-keyboard-response","286","371630","0.0-1.0-387.0","0","0","41581","","null","","","null","42","","","","","","","","","","","","","","","NaN",""
"","S1","","html-keyboard-response","287","371883","0.0-1.0-389.0","0","0","41581","","null","","","null","43","","","","","","","","","","","","","","","",""
"","ISI","","html-keyboard-response","288","372886","0.0-1.0-390.0","0","0","41581","","null","","","null","43","NaN","","","","","","","","","","","","","","",""
"","S2","","html-keyboard-response","289","373139","0.0-1.0-391.0","0","0","41581","","null","","","null","43","","NaN","","","","","","","","","","","","","",""
"","response","","html-keyboard-response","290","373818","0.0-1.0-392.0-0.0","0","0","41581","","676","","","68","43","","","1","43","training","adjacent","DE","4","5","P.jpg","Q.jpg","0","1","0","",""
"","feedback","","html-keyboard-response","291","374821","0.0-1.0-393.0-0.0","0","0","41581","","null","","","null","43","","","","","","","","","","","","","","","",""
"","time_out","","html-keyboard-response","292","376824","0.0-1.0-395.0-0.0","0","0","41581","","null","","","null","43","","","","","","","","","","","","","","","",""
"","ITI","","html-keyboard-response","293","377827","0.0-1.0-396.0","0","0","41581","","null","","","null","43","","","","","","","","","","","","","","","NaN",""
"","S1","","html-keyboard-response","294","378080","0.0-1.0-398.0","0","0","41581","","null","","","null","44","","","","","","","","","","","","","","","",""
"","ISI","","html-keyboard-response","295","379083","0.0-1.0-399.0","0","0","41581","","null","","","null","44","NaN","","","","","","","","","","","","","","",""
"","S2","","html-keyboard-response","296","379337","0.0-1.0-400.0","0","0","41581","","null","","","null","44","","NaN","","","","","","","","","","","","","",""
"","response","","html-keyboard-response","297","379933","0.0-1.0-401.0-0.0","0","0","41581","","593","","","68","44","","","1","44","training","adjacent","CB","3","2","O.jpg","L.jpg","0","0","1","",""
"","feedback","","html-keyboard-response","298","380935","0.0-1.0-402.0-0.0","0","0","41581","","null","","","null","44","","","","","","","","","","","","","","","",""
"","ITI","","html-keyboard-response","299","381938","0.0-1.0-405.0","0","0","41581","","null","","","null","44","","","","","","","","","","","","","","","NaN",""
"","S1","","html-keyboard-response","300","382192","0.0-1.0-407.0","0","0","41581","","null","","","null","45","","","","","","","","","","","","","","","",""
"","ISI","","html-keyboard-response","301","383194","0.0-1.0-408.0","0","0","41581","","null","","","null","45","NaN","","","","","","","","","","","","","","",""
"","S2","","html-keyboard-response","302","383447","0.0-1.0-409.0","0","0","41581","","null","","","null","45","","NaN","","","","","","","","","","","","","",""
"","response","","html-keyboard-response","303","383977","0.0-1.0-410.0-0.0","0","0","41581","","528","","","68","45","","","1","45","training","adjacent","GF","7","6","N.jpg","R.jpg","0","0","1","",""
"","feedback","","html-keyboard-response","304","384981","0.0-1.0-411.0-0.0","0","0","41581","","null","","","null","45","","","","","","","","","","","","","","","",""
"","ITI","","html-keyboard-response","305","385991","0.0-1.0-414.0","0","0","41581","","null","","","null","45","","","","","","","","","","","","","","","NaN",""
"","S1","","html-keyboard-response","306","386245","0.0-1.0-416.0","0","0","41581","","null","","","null","46","","","","","","","","","","","","","","","",""
"","ISI","","html-keyboard-response","307","387248","0.0-1.0-417.0","0","0","41581","","null","","","null","46","NaN","","","","","","","","","","","","","","",""
"","S2","","html-keyboard-response","308","387501","0.0-1.0-418.0","0","0","41581","","null","","","null","46","","NaN","","","","","","","","","","","","","",""
"","response","","html-keyboard-response","309","388333","0.0-1.0-419.0-0.0","0","0","41581","","829","","","68","46","","","1","46","training","adjacent","FE","6","5","R.jpg","Q.jpg","0","0","1","",""
"","feedback","","html-keyboard-response","310","389335","0.0-1.0-420.0-0.0","0","0","41581","","null","","","null","46","","","","","","","","","","","","","","","",""
"","ITI","","html-keyboard-response","311","390338","0.0-1.0-423.0","0","0","41581","","null","","","null","46","","","","","","","","","","","","","","","NaN",""
"","S1","","html-keyboard-response","312","390592","0.0-1.0-425.0","0","0","41581","","null","","","null","47","","","","","","","","","","","","","","","",""
"","ISI","","html-keyboard-response","313","391594","0.0-1.0-426.0","0","0","41581","","null","","","null","47","NaN","","","","","","","","","","","","","","",""
"","S2","","html-keyboard-response","314","391847","0.0-1.0-427.0","0","0","41581","","null","","","null","47","","NaN","","","","","","","","","","","","","",""
"","response","","html-keyboard-response","315","392620","0.0-1.0-428.0-0.0","0","0","41581","","771","","","68","47","","","1","47","training","adjacent","CB","3","2","O.jpg","L.jpg","0","0","1","",""
"","feedback","","html-keyboard-response","316","393623","0.0-1.0-429.0-0.0","0","0","41581","","null","","","null","47","","","","","","","","","","","","","","","",""
"","ITI","","html-keyboard-response","317","394626","0.0-1.0-432.0","0","0","41581","","null","","","null","47","","","","","","","","","","","","","","","NaN",""
"","block_over","","html-keyboard-response","318","403129","0.0-1.0-433.0-0.0","0","0","41581","","8499","","","32","47","","","","","","","","","","","","","","","",""
"","S1","","html-keyboard-response","319","403381","0.0-1.0-434.0","0","0","41581","","null","","","null","48","","","","","","","","","","","","","","","",""
"","ISI","","html-keyboard-response","320","404384","0.0-1.0-435.0","0","0","41581","","null","","","null","48","NaN","","","","","","","","","","","","","","",""
"","S2","","html-keyboard-response","321","404636","0.0-1.0-436.0","0","0","41581","","null","","","null","48","","NaN","","","","","","","","","","","","","",""
"","response","","html-keyboard-response","322","405244","0.0-1.0-437.0-0.0","0","0","41581","","606","","","75","48","","","2","48","training","adjacent","FG","6","7","R.jpg","N.jpg","1","1","1","",""
"","feedback","","html-keyboard-response","323","406247","0.0-1.0-438.0-0.0","0","0","41581","","null","","","null","48","","","","","","","","","","","","","","","",""
"","ITI","","html-keyboard-response","324","407250","0.0-1.0-441.0","0","0","41581","","null","","","null","48","","","","","","","","","","","","","","","NaN",""
"","S1","","html-keyboard-response","325","407503","0.0-1.0-443.0","0","0","41581","","null","","","null","49","","","","","","","","","","","","","","","",""
"","ISI","","html-keyboard-response","326","408506","0.0-1.0-444.0","0","0","41581","","null","","","null","49","NaN","","","","","","","","","","","","","","",""
"","S2","","html-keyboard-response","327","408760","0.0-1.0-445.0","0","0","41581","","null","","","null","49","","NaN","","","","","","","","","","","","","",""
"","response","","html-keyboard-response","328","409860","0.0-1.0-446.0-0.0","0","0","41581","","1098","","","68","49","","","2","49","training","adjacent","GF","7","6","N.jpg","R.jpg","0","0","1","",""
"","feedback","","html-keyboard-response","329","410863","0.0-1.0-447.0-0.0","0","0","41581","","null","","","null","49","","","","","","","","","","","","","","","",""
"","ITI","","html-keyboard-response","330","411871","0.0-1.0-450.0","0","0","41581","","null","","","null","49","","","","","","","","","","","","","","","NaN",""
"","S1","","html-keyboard-response","331","412123","0.0-1.0-452.0","0","0","41581","","null","","","null","50","","","","","","","","","","","","","","","",""
"","ISI","","html-keyboard-response","332","413126","0.0-1.0-453.0","0","0","41581","","null","","","null","50","NaN","","","","","","","","","","","","","","",""
"","S2","","html-keyboard-response","333","413393","0.0-1.0-454.0","0","0","41581","","null","","","null","50","","NaN","","","","","","","","","","","","","",""
"","response","","html-keyboard-response","334","414072","0.0-1.0-455.0-0.0","0","0","41581","","677","","","68","50","","","2","50","training","adjacent","CB","3","2","O.jpg","L.jpg","0","0","1","",""
"","feedback","","html-keyboard-response","335","415075","0.0-1.0-456.0-0.0","0","0","41581","","null","","","null","50","","","","","","","","","","","","","","","",""
"","ITI","","html-keyboard-response","336","416078","0.0-1.0-459.0","0","0","41581","","null","","","null","50","","","","","","","","","","","","","","","NaN",""
"","S1","","html-keyboard-response","337","416332","0.0-1.0-461.0","0","0","41581","","null","","","null","51","","","","","","","","","","","","","","","",""
"","ISI","","html-keyboard-response","338","417334","0.0-1.0-462.0","0","0","41581","","null","","","null","51","NaN","","","","","","","","","","","","","","",""
"","S2","","html-keyboard-response","339","417587","0.0-1.0-463.0","0","0","41581","","null","","","null","51","","NaN","","","","","","","","","","","","","",""
"","response","","html-keyboard-response","340","418180","0.0-1.0-464.0-0.0","0","0","41581","","592","","","68","51","","","2","51","training","adjacent","CD","3","4","O.jpg","P.jpg","0","1","0","",""
"","feedback","","html-keyboard-response","341","419184","0.0-1.0-465.0-0.0","0","0","41581","","null","","","null","51","","","","","","","","","","","","","","","",""
"","time_out","","html-keyboard-response","342","421186","0.0-1.0-467.0-0.0","0","0","41581","","null","","","null","51","","","","","","","","","","","","","","","",""
"","ITI","","html-keyboard-response","343","422189","0.0-1.0-468.0","0","0","41581","","null","","","null","51","","","","","","","","","","","","","","","NaN",""
"","S1","","html-keyboard-response","344","422442","0.0-1.0-470.0","0","0","41581","","null","","","null","52","","","","","","","","","","","","","","","",""
"","ISI","","html-keyboard-response","345","423445","0.0-1.0-471.0","0","0","41581","","null","","","null","52","NaN","","","","","","","","","","","","","","",""
"","S2","","html-keyboard-response","346","423698","0.0-1.0-472.0","0","0","41581","","null","","","null","52","","NaN","","","","","","","","","","","","","",""
"","response","","html-keyboard-response","347","424168","0.0-1.0-473.0-0.0","0","0","41581","","467","","","75","52","","","2","52","training","adjacent","ED","5","4","Q.jpg","P.jpg","1","0","0","",""
"","feedback","","html-keyboard-response","348","425171","0.0-1.0-474.0-0.0","0","0","41581","","null","","","null","52","","","","","","","","","","","","","","","",""
"","time_out","","html-keyboard-response","349","427174","0.0-1.0-476.0-0.0","0","0","41581","","null","","","null","52","","","","","","","","","","","","","","","",""
"","ITI","","html-keyboard-response","350","428177","0.0-1.0-477.0","0","0","41581","","null","","","null","52","","","","","","","","","","","","","","","NaN",""
"","S1","","html-keyboard-response","351","428430","0.0-1.0-479.0","0","0","41581","","null","","","null","53","","","","","","","","","","","","","","","",""
"","ISI","","html-keyboard-response","352","429432","0.0-1.0-480.0","0","0","41581","","null","","","null","53","NaN","","","","","","","","","","","","","","",""
"","S2","","html-keyboard-response","353","429685","0.0-1.0-481.0","0","0","41581","","null","","","null","53","","NaN","","","","","","","","","","","","","",""
"","response","","html-keyboard-response","354","430844","0.0-1.0-482.0-0.0","0","0","41581","","1157","","","75","53","","","2","53","training","adjacent","FE","6","5","R.jpg","Q.jpg","1","0","0","",""
"","feedback","","html-keyboard-response","355","431847","0.0-1.0-483.0-0.0","0","0","41581","","null","","","null","53","","","","","","","","","","","","","","","",""
"","time_out","","html-keyboard-response","356","433850","0.0-1.0-485.0-0.0","0","0","41581","","null","","","null","53","","","","","","","","","","","","","","","",""
"","ITI","","html-keyboard-response","357","434852","0.0-1.0-486.0","0","0","41581","","null","","","null","53","","","","","","","","","","","","","","","NaN",""
"","S1","","html-keyboard-response","358","435105","0.0-1.0-488.0","0","0","41581","","null","","","null","54","","","","","","","","","","","","","","","",""
"","ISI","","html-keyboard-response","359","436107","0.0-1.0-489.0","0","0","41581","","null","","","null","54","NaN","","","","","","","","","","","","","","",""
"","S2","","html-keyboard-response","360","436361","0.0-1.0-490.0","0","0","41581","","null","","","null","54","","NaN","","","","","","","","","","","","","",""
"","response","","html-keyboard-response","361","437400","0.0-1.0-491.0-0.0","0","0","41581","","1037","","","68","54","","","2","54","training","adjacent","BA","2","1","L.jpg","M.jpg","0","0","1","",""
"","feedback","","html-keyboard-response","362","438403","0.0-1.0-492.0-0.0","0","0","41581","","null","","","null","54","","","","","","","","","","","","","","","",""
"","ITI","","html-keyboard-response","363","439406","0.0-1.0-495.0","0","0","41581","","null","","","null","54","","","","","","","","","","","","","","","NaN",""
"","S1","","html-keyboard-response","364","439660","0.0-1.0-497.0","0","0","41581","","null","","","null","55","","","","","","","","","","","","","","","",""
"","ISI","","html-keyboard-response","365","440662","0.0-1.0-498.0","0","0","41581","","null","","","null","55","NaN","","","","","","","","","","","","","","",""
"","S2","","html-keyboard-response","366","440915","0.0-1.0-499.0","0","0","41581","","null","","","null","55","","NaN","","","","","","","","","","","","","",""
"","response","","html-keyboard-response","367","441492","0.0-1.0-500.0-0.0","0","0","41581","","575","","","75","55","","","2","55","training","adjacent","EF","5","6","Q.jpg","R.jpg","1","1","1","",""
"","feedback","","html-keyboard-response","368","442496","0.0-1.0-501.0-0.0","0","0","41581","","null","","","null","55","","","","","","","","","","","","","","","",""
"","ITI","","html-keyboard-response","369","443498","0.0-1.0-504.0","0","0","41581","","null","","","null","55","","","","","","","","","","","","","","","NaN",""
"","S1","","html-keyboard-response","370","443752","0.0-1.0-506.0","0","0","41581","","null","","","null","56","","","","","","","","","","","","","","","",""
"","ISI","","html-keyboard-response","371","444755","0.0-1.0-507.0","0","0","41581","","null","","","null","56","NaN","","","","","","","","","","","","","","",""
"","S2","","html-keyboard-response","372","445007","0.0-1.0-508.0","0","0","41581","","null","","","null","56","","NaN","","","","","","","","","","","","","",""
"","response","","html-keyboard-response","373","445572","0.0-1.0-509.0-0.0","0","0","41581","","562","","","75","56","","","2","56","training","adjacent","BA","2","1","L.jpg","M.jpg","1","0","0","",""
"","feedback","","html-keyboard-response","374","446576","0.0-1.0-510.0-0.0","0","0","41581","","null","","","null","56","","","","","","","","","","","","","","","",""
"","time_out","","html-keyboard-response","375","448579","0.0-1.0-512.0-0.0","0","0","41581","","null","","","null","56","","","","","","","","","","","","","","","",""
"","ITI","","html-keyboard-response","376","449582","0.0-1.0-513.0","0","0","41581","","null","","","null","56","","","","","","","","","","","","","","","NaN",""
"","S1","","html-keyboard-response","377","449836","0.0-1.0-515.0","0","0","41581","","null","","","null","57","","","","","","","","","","","","","","","",""
"","ISI","","html-keyboard-response","378","450838","0.0-1.0-516.0","0","0","41581","","null","","","null","57","NaN","","","","","","","","","","","","","","",""
"","S2","","html-keyboard-response","379","451092","0.0-1.0-517.0","0","0","41581","","null","","","null","57","","NaN","","","","","","","","","","","","","",""
"","response","","html-keyboard-response","380","451744","0.0-1.0-518.0-0.0","0","0","41581","","649","","","75","57","","","2","57","training","adjacent","AB","1","2","M.jpg","L.jpg","1","1","1","",""
"","feedback","","html-keyboard-response","381","452747","0.0-1.0-519.0-0.0","0","0","41581","","null","","","null","57","","","","","","","","","","","","","","","",""
"","ITI","","html-keyboard-response","382","453750","0.0-1.0-522.0","0","0","41581","","null","","","null","57","","","","","","","","","","","","","","","NaN",""
"","S1","","html-keyboard-response","383","454003","0.0-1.0-524.0","0","0","41581","","null","","","null","58","","","","","","","","","","","","","","","",""
"","ISI","","html-keyboard-response","384","455006","0.0-1.0-525.0","0","0","41581","","null","","","null","58","NaN","","","","","","","","","","","","","","",""
"","S2","","html-keyboard-response","385","455264","0.0-1.0-526.0","0","0","41581","","null","","","null","58","","NaN","","","","","","","","","","","","","",""
"","response","","html-keyboard-response","386","455916","0.0-1.0-527.0-0.0","0","0","41581","","650","","","68","58","","","2","58","training","adjacent","CD","3","4","O.jpg","P.jpg","0","1","0","",""
"","feedback","","html-keyboard-response","387","456920","0.0-1.0-528.0-0.0","0","0","41581","","null","","","null","58","","","","","","","","","","","","","","","",""
"","time_out","","html-keyboard-response","388","458922","0.0-1.0-530.0-0.0","0","0","41581","","null","","","null","58","","","","","","","","","","","","","","","",""
"","ITI","","html-keyboard-response","389","459925","0.0-1.0-531.0","0","0","41581","","null","","","null","58","","","","","","","","","","","","","","","NaN",""
"","S1","","html-keyboard-response","390","460178","0.0-1.0-533.0","0","0","41581","","null","","","null","59","","","","","","","","","","","","","","","",""
"","ISI","","html-keyboard-response","391","461181","0.0-1.0-534.0","0","0","41581","","null","","","null","59","NaN","","","","","","","","","","","","","","",""
"","S2","","html-keyboard-response","392","461434","0.0-1.0-535.0","0","0","41581","","null","","","null","59","","NaN","","","","","","","","","","","","","",""
"","response","","html-keyboard-response","393","462216","0.0-1.0-536.0-0.0","0","0","41581","","779","","","75","59","","","2","59","training","adjacent","BA","2","1","L.jpg","M.jpg","1","0","0","",""
"","feedback","","html-keyboard-response","394","463219","0.0-1.0-537.0-0.0","0","0","41581","","null","","","null","59","","","","","","","","","","","","","","","",""
"","time_out","","html-keyboard-response","395","465222","0.0-1.0-539.0-0.0","0","0","41581","","null","","","null","59","","","","","","","","","","","","","","","",""
"","ITI","","html-keyboard-response","396","466224","0.0-1.0-540.0","0","0","41581","","null","","","null","59","","","","","","","","","","","","","","","NaN",""
"","S1","","html-keyboard-response","397","466478","0.0-1.0-542.0","0","0","41581","","null","","","null","60","","","","","","","","","","","","","","","",""
"","ISI","","html-keyboard-response","398","467492","0.0-1.0-543.0","0","0","41581","","null","","","null","60","NaN","","","","","","","","","","","","","","",""
"","S2","","html-keyboard-response","399","467746","0.0-1.0-544.0","0","0","41581","","null","","","null","60","","NaN","","","","","","","","","","","","","",""
"","response","","html-keyboard-response","400","468636","0.0-1.0-545.0-0.0","0","0","41581","","887","","","75","60","","","2","60","training","adjacent","DC","4","3","P.jpg","O.jpg","1","0","0","",""
"","feedback","","html-keyboard-response","401","469639","0.0-1.0-546.0-0.0","0","0","41581","","null","","","null","60","","","","","","","","","","","","","","","",""
"","time_out","","html-keyboard-response","402","471642","0.0-1.0-548.0-0.0","0","0","41581","","null","","","null","60","","","","","","","","","","","","","","","",""
"","ITI","","html-keyboard-response","403","472646","0.0-1.0-549.0","0","0","41581","","null","","","null","60","","","","","","","","","","","","","","","NaN",""
"","S1","","html-keyboard-response","404","472900","0.0-1.0-551.0","0","0","41581","","null","","","null","61","","","","","","","","","","","","","","","",""
"","ISI","","html-keyboard-response","405","473903","0.0-1.0-552.0","0","0","41581","","null","","","null","61","NaN","","","","","","","","","","","","","","",""
"","S2","","html-keyboard-response","406","474156","0.0-1.0-553.0","0","0","41581","","null","","","null","61","","NaN","","","","","","","","","","","","","",""
"","response","","html-keyboard-response","407","474944","0.0-1.0-554.0-0.0","0","0","41581","","786","","","68","61","","","2","61","training","adjacent","CB","3","2","O.jpg","L.jpg","0","0","1","",""
"","feedback","","html-keyboard-response","408","475947","0.0-1.0-555.0-0.0","0","0","41581","","null","","","null","61","","","","","","","","","","","","","","","",""
"","ITI","","html-keyboard-response","409","476952","0.0-1.0-558.0","0","0","41581","","null","","","null","61","","","","","","","","","","","","","","","NaN",""
"","S1","","html-keyboard-response","410","477205","0.0-1.0-560.0","0","0","41581","","null","","","null","62","","","","","","","","","","","","","","","",""
"","ISI","","html-keyboard-response","411","478207","0.0-1.0-561.0","0","0","41581","","null","","","null","62","NaN","","","","","","","","","","","","","","",""
"","S2","","html-keyboard-response","412","478460","0.0-1.0-562.0","0","0","41581","","null","","","null","62","","NaN","","","","","","","","","","","","","",""
"","response","","html-keyboard-response","413","479124","0.0-1.0-563.0-0.0","0","0","41581","","661","","","68","62","","","2","62","training","adjacent","DE","4","5","P.jpg","Q.jpg","0","1","0","",""
"","feedback","","html-keyboard-response","414","480135","0.0-1.0-564.0-0.0","0","0","41581","","null","","","null","62","","","","","","","","","","","","","","","",""
"","time_out","","html-keyboard-response","415","482150","0.0-1.0-566.0-0.0","0","0","41581","","null","","","null","62","","","","","","","","","","","","","","","",""
"","ITI","","html-keyboard-response","416","483152","0.0-1.0-567.0","0","0","41581","","null","","","null","62","","","","","","","","","","","","","","","NaN",""
"","S1","","html-keyboard-response","417","483406","0.0-1.0-569.0","0","0","41581","","null","","","null","63","","","","","","","","","","","","","","","",""
"","ISI","","html-keyboard-response","418","484409","0.0-1.0-570.0","0","0","41581","","null","","","null","63","NaN","","","","","","","","","","","","","","",""
"","S2","","html-keyboard-response","419","484662","0.0-1.0-571.0","0","0","41581","","null","","","null","63","","NaN","","","","","","","","","","","","","",""
"","response","","html-keyboard-response","420","485328","0.0-1.0-572.0-0.0","0","0","41581","","664","","","68","63","","","2","63","training","adjacent","GF","7","6","N.jpg","R.jpg","0","0","1","",""
"","feedback","","html-keyboard-response","421","486331","0.0-1.0-573.0-0.0","0","0","41581","","null","","","null","63","","","","","","","","","","","","","","","",""
"","ITI","","html-keyboard-response","422","487334","0.0-1.0-576.0","0","0","41581","","null","","","null","63","","","","","","","","","","","","","","","NaN",""
"","S1","","html-keyboard-response","423","487587","0.0-1.0-578.0","0","0","41581","","null","","","null","64","","","","","","","","","","","","","","","",""
"","ISI","","html-keyboard-response","424","488590","0.0-1.0-579.0","0","0","41581","","null","","","null","64","NaN","","","","","","","","","","","","","","",""
"","S2","","html-keyboard-response","425","488844","0.0-1.0-580.0","0","0","41581","","null","","","null","64","","NaN","","","","","","","","","","","","","",""
"","response","","html-keyboard-response","426","489476","0.0-1.0-581.0-0.0","0","0","41581","","630","","","75","64","","","2","64","training","adjacent","EF","5","6","Q.jpg","R.jpg","1","1","1","",""
"","feedback","","html-keyboard-response","427","490479","0.0-1.0-582.0-0.0","0","0","41581","","null","","","null","64","","","","","","","","","","","","","","","",""
"","ITI","","html-keyboard-response","428","491481","0.0-1.0-585.0","0","0","41581","","null","","","null","64","","","","","","","","","","","","","","","NaN",""
"","S1","","html-keyboard-response","429","491734","0.0-1.0-587.0","0","0","41581","","null","","","null","65","","","","","","","","","","","","","","","",""
"","ISI","","html-keyboard-response","430","492737","0.0-1.0-588.0","0","0","41581","","null","","","null","65","NaN","","","","","","","","","","","","","","",""
"","S2","","html-keyboard-response","431","492991","0.0-1.0-589.0","0","0","41581","","null","","","null","65","","NaN","","","","","","","","","","","","","",""
"","response","","html-keyboard-response","432","493516","0.0-1.0-590.0-0.0","0","0","41581","","523","","","75","65","","","2","65","training","adjacent","BC","2","3","L.jpg","O.jpg","1","1","1","",""
"","feedback","","html-keyboard-response","433","494520","0.0-1.0-591.0-0.0","0","0","41581","","null","","","null","65","","","","","","","","","","","","","","","",""
"","ITI","","html-keyboard-response","434","495523","0.0-1.0-594.0","0","0","41581","","null","","","null","65","","","","","","","","","","","","","","","NaN",""
"","S1","","html-keyboard-response","435","495776","0.0-1.0-596.0","0","0","41581","","null","","","null","66","","","","","","","","","","","","","","","",""
"","ISI","","html-keyboard-response","436","496780","0.0-1.0-597.0","0","0","41581","","null","","","null","66","NaN","","","","","","","","","","","","","","",""
"","S2","","html-keyboard-response","437","497033","0.0-1.0-598.0","0","0","41581","","null","","","null","66","","NaN","","","","","","","","","","","","","",""
"","response","","html-keyboard-response","438","497776","0.0-1.0-599.0-0.0","0","0","41581","","740","","","75","66","","","2","66","training","adjacent","DC","4","3","P.jpg","O.jpg","1","0","0","",""
"","feedback","","html-keyboard-response","439","498780","0.0-1.0-600.0-0.0","0","0","41581","","null","","","null","66","","","","","","","","","","","","","","","",""
"","time_out","","html-keyboard-response","440","500783","0.0-1.0-602.0-0.0","0","0","41581","","null","","","null","66","","","","","","","","","","","","","","","",""
"","ITI","","html-keyboard-response","441","501785","0.0-1.0-603.0","0","0","41581","","null","","","null","66","","","","","","","","","","","","","","","NaN",""
"","S1","","html-keyboard-response","442","502041","0.0-1.0-605.0","0","0","41581","","null","","","null","67","","","","","","","","","","","","","","","",""
"","ISI","","html-keyboard-response","443","503044","0.0-1.0-606.0","0","0","41581","","null","","","null","67","NaN","","","","","","","","","","","","","","",""
"","S2","","html-keyboard-response","444","503297","0.0-1.0-607.0","0","0","41581","","null","","","null","67","","NaN","","","","","","","","","","","","","",""
"","response","","html-keyboard-response","445","503907","0.0-1.0-608.0-0.0","0","0","41581","","608","","","75","67","","","2","67","training","adjacent","BC","2","3","L.jpg","O.jpg","1","1","1","",""
"","feedback","","html-keyboard-response","446","504911","0.0-1.0-609.0-0.0","0","0","41581","","null","","","null","67","","","","","","","","","","","","","","","",""
"","ITI","","html-keyboard-response","447","505913","0.0-1.0-612.0","0","0","41581","","null","","","null","67","","","","","","","","","","","","","","","NaN",""
"","S1","","html-keyboard-response","448","506167","0.0-1.0-614.0","0","0","41581","","null","","","null","68","","","","","","","","","","","","","","","",""
"","ISI","","html-keyboard-response","449","507170","0.0-1.0-615.0","0","0","41581","","null","","","null","68","NaN","","","","","","","","","","","","","","",""
"","S2","","html-keyboard-response","450","507423","0.0-1.0-616.0","0","0","41581","","null","","","null","68","","NaN","","","","","","","","","","","","","",""
"","response","","html-keyboard-response","451","507945","0.0-1.0-617.0-0.0","0","0","41581","","520","","","68","68","","","2","68","training","adjacent","DE","4","5","P.jpg","Q.jpg","0","1","0","",""
"","feedback","","html-keyboard-response","452","508948","0.0-1.0-618.0-0.0","0","0","41581","","null","","","null","68","","","","","","","","","","","","","","","",""
"","time_out","","html-keyboard-response","453","510951","0.0-1.0-620.0-0.0","0","0","41581","","null","","","null","68","","","","","","","","","","","","","","","",""
"","ITI","","html-keyboard-response","454","511955","0.0-1.0-621.0","0","0","41581","","null","","","null","68","","","","","","","","","","","","","","","NaN",""
"","S1","","html-keyboard-response","455","512207","0.0-1.0-623.0","0","0","41581","","null","","","null","69","","","","","","","","","","","","","","","",""
"","ISI","","html-keyboard-response","456","513220","0.0-1.0-624.0","0","0","41581","","null","","","null","69","NaN","","","","","","","","","","","","","","",""
"","S2","","html-keyboard-response","457","513473","0.0-1.0-625.0","0","0","41581","","null","","","null","69","","NaN","","","","","","","","","","","","","",""
"","response","","html-keyboard-response","458","513923","0.0-1.0-626.0-0.0","0","0","41581","","448","","","75","69","","","2","69","training","adjacent","BC","2","3","L.jpg","O.jpg","1","1","1","",""
"","feedback","","html-keyboard-response","459","514926","0.0-1.0-627.0-0.0","0","0","41581","","null","","","null","69","","","","","","","","","","","","","","","",""
"","ITI","","html-keyboard-response","460","515930","0.0-1.0-630.0","0","0","41581","","null","","","null","69","","","","","","","","","","","","","","","NaN",""
"","S1","","html-keyboard-response","461","516182","0.0-1.0-632.0","0","0","41581","","null","","","null","70","","","","","","","","","","","","","","","",""
"","ISI","","html-keyboard-response","462","517185","0.0-1.0-633.0","0","0","41581","","null","","","null","70","NaN","","","","","","","","","","","","","","",""
"","S2","","html-keyboard-response","463","517437","0.0-1.0-634.0","0","0","41581","","null","","","null","70","","NaN","","","","","","","","","","","","","",""
"","response","","html-keyboard-response","464","518353","0.0-1.0-635.0-0.0","0","0","41581","","913","","","75","70","","","2","70","training","adjacent","FE","6","5","R.jpg","Q.jpg","1","0","0","",""
"","feedback","","html-keyboard-response","465","519356","0.0-1.0-636.0-0.0","0","0","41581","","null","","","null","70","","","","","","","","","","","","","","","",""
"","time_out","","html-keyboard-response","466","521359","0.0-1.0-638.0-0.0","0","0","41581","","null","","","null","70","","","","","","","","","","","","","","","",""
"","ITI","","html-keyboard-response","467","522362","0.0-1.0-639.0","0","0","41581","","null","","","null","70","","","","","","","","","","","","","","","NaN",""
"","S1","","html-keyboard-response","468","522614","0.0-1.0-641.0","0","0","41581","","null","","","null","71","","","","","","","","","","","","","","","",""
"","ISI","","html-keyboard-response","469","523617","0.0-1.0-642.0","0","0","41581","","null","","","null","71","NaN","","","","","","","","","","","","","","",""
"","S2","","html-keyboard-response","470","523872","0.0-1.0-643.0","0","0","41581","","null","","","null","71","","NaN","","","","","","","","","","","","","",""
"","response","","html-keyboard-response","471","524499","0.0-1.0-644.0-0.0","0","0","41581","","625","","","75","71","","","2","71","training","adjacent","ED","5","4","Q.jpg","P.jpg","1","0","0","",""
"","feedback","","html-keyboard-response","472","525503","0.0-1.0-645.0-0.0","0","0","41581","","null","","","null","71","","","","","","","","","","","","","","","",""
"","time_out","","html-keyboard-response","473","527506","0.0-1.0-647.0-0.0","0","0","41581","","null","","","null","71","","","","","","","","","","","","","","","",""
"","ITI","","html-keyboard-response","474","528510","0.0-1.0-648.0","0","0","41581","","null","","","null","71","","","","","","","","","","","","","","","NaN",""
"","S1","","html-keyboard-response","475","528763","0.0-1.0-650.0","0","0","41581","","null","","","null","72","","","","","","","","","","","","","","","",""
"","ISI","","html-keyboard-response","476","529766","0.0-1.0-651.0","0","0","41581","","null","","","null","72","NaN","","","","","","","","","","","","","","",""
"","S2","","html-keyboard-response","477","530025","0.0-1.0-652.0","0","0","41581","","null","","","null","72","","NaN","","","","","","","","","","","","","",""
"","response","","html-keyboard-response","478","530711","0.0-1.0-653.0-0.0","0","0","41581","","684","","","75","72","","","2","72","training","adjacent","FG","6","7","R.jpg","N.jpg","1","1","1","",""
"","feedback","","html-keyboard-response","479","531715","0.0-1.0-654.0-0.0","0","0","41581","","null","","","null","72","","","","","","","","","","","","","","","",""
"","ITI","","html-keyboard-response","480","532718","0.0-1.0-657.0","0","0","41581","","null","","","null","72","","","","","","","","","","","","","","","NaN",""
"","S1","","html-keyboard-response","481","532972","0.0-1.0-659.0","0","0","41581","","null","","","null","73","","","","","","","","","","","","","","","",""
"","ISI","","html-keyboard-response","482","533980","0.0-1.0-660.0","0","0","41581","","null","","","null","73","NaN","","","","","","","","","","","","","","",""
"","S2","","html-keyboard-response","483","534233","0.0-1.0-661.0","0","0","41581","","null","","","null","73","","NaN","","","","","","","","","","","","","",""
"","response","","html-keyboard-response","484","534907","0.0-1.0-662.0-0.0","0","0","41581","","672","","","75","73","","","2","73","training","adjacent","BC","2","3","L.jpg","O.jpg","1","1","1","",""
"","feedback","","html-keyboard-response","485","535910","0.0-1.0-663.0-0.0","0","0","41581","","null","","","null","73","","","","","","","","","","","","","","","",""
"","ITI","","html-keyboard-response","486","536913","0.0-1.0-666.0","0","0","41581","","null","","","null","73","","","","","","","","","","","","","","","NaN",""
"","S1","","html-keyboard-response","487","537166","0.0-1.0-668.0","0","0","41581","","null","","","null","74","","","","","","","","","","","","","","","",""
"","ISI","","html-keyboard-response","488","538168","0.0-1.0-669.0","0","0","41581","","null","","","null","74","NaN","","","","","","","","","","","","","","",""
"","S2","","html-keyboard-response","489","538422","0.0-1.0-670.0","0","0","41581","","null","","","null","74","","NaN","","","","","","","","","","","","","",""
"","response","","html-keyboard-response","490","539227","0.0-1.0-671.0-0.0","0","0","41581","","803","","","75","74","","","2","74","training","adjacent","EF","5","6","Q.jpg","R.jpg","1","1","1","",""
"","feedback","","html-keyboard-response","491","540230","0.0-1.0-672.0-0.0","0","0","41581","","null","","","null","74","","","","","","","","","","","","","","","",""
"","ITI","","html-keyboard-response","492","541233","0.0-1.0-675.0","0","0","41581","","null","","","null","74","","","","","","","","","","","","","","","NaN",""
"","S1","","html-keyboard-response","493","541486","0.0-1.0-677.0","0","0","41581","","null","","","null","75","","","","","","","","","","","","","","","",""
"","ISI","","html-keyboard-response","494","542489","0.0-1.0-678.0","0","0","41581","","null","","","null","75","NaN","","","","","","","","","","","","","","",""
"","S2","","html-keyboard-response","495","542742","0.0-1.0-679.0","0","0","41581","","null","","","null","75","","NaN","","","","","","","","","","","","","",""
"","response","","html-keyboard-response","496","543487","0.0-1.0-680.0-0.0","0","0","41581","","742","","","75","75","","","2","75","training","adjacent","DC","4","3","P.jpg","O.jpg","1","0","0","",""
"","feedback","","html-keyboard-response","497","544491","0.0-1.0-681.0-0.0","0","0","41581","","null","","","null","75","","","","","","","","","","","","","","","",""
"","time_out","","html-keyboard-response","498","546494","0.0-1.0-683.0-0.0","0","0","41581","","null","","","null","75","","","","","","","","","","","","","","","",""
"","ITI","","html-keyboard-response","499","547496","0.0-1.0-684.0","0","0","41581","","null","","","null","75","","","","","","","","","","","","","","","NaN",""
"","S1","","html-keyboard-response","500","547750","0.0-1.0-686.0","0","0","41581","","null","","","null","76","","","","","","","","","","","","","","","",""
"","ISI","","html-keyboard-response","501","548753","0.0-1.0-687.0","0","0","41581","","null","","","null","76","NaN","","","","","","","","","","","","","","",""
"","S2","","html-keyboard-response","502","549006","0.0-1.0-688.0","0","0","41581","","null","","","null","76","","NaN","","","","","","","","","","","","","",""
"","response","","html-keyboard-response","503","549635","0.0-1.0-689.0-0.0","0","0","41581","","626","","","68","76","","","2","76","training","adjacent","CD","3","4","O.jpg","P.jpg","0","1","0","",""
"","feedback","","html-keyboard-response","504","550638","0.0-1.0-690.0-0.0","0","0","41581","","null","","","null","76","","","","","","","","","","","","","","","",""
"","time_out","","html-keyboard-response","505","552641","0.0-1.0-692.0-0.0","0","0","41581","","null","","","null","76","","","","","","","","","","","","","","","",""
"","ITI","","html-keyboard-response","506","553645","0.0-1.0-693.0","0","0","41581","","null","","","null","76","","","","","","","","","","","","","","","NaN",""
"","S1","","html-keyboard-response","507","553898","0.0-1.0-695.0","0","0","41581","","null","","","null","77","","","","","","","","","","","","","","","",""
"","ISI","","html-keyboard-response","508","554901","0.0-1.0-696.0","0","0","41581","","null","","","null","77","NaN","","","","","","","","","","","","","","",""
"","S2","","html-keyboard-response","509","555154","0.0-1.0-697.0","0","0","41581","","null","","","null","77","","NaN","","","","","","","","","","","","","",""
"","response","","html-keyboard-response","510","555703","0.0-1.0-698.0-0.0","0","0","41581","","546","","","75","77","","","2","77","training","adjacent","CB","3","2","O.jpg","L.jpg","1","0","0","",""
"","feedback","","html-keyboard-response","511","556706","0.0-1.0-699.0-0.0","0","0","41581","","null","","","null","77","","","","","","","","","","","","","","","",""
"","time_out","","html-keyboard-response","512","558710","0.0-1.0-701.0-0.0","0","0","41581","","null","","","null","77","","","","","","","","","","","","","","","",""
"","ITI","","html-keyboard-response","513","559713","0.0-1.0-702.0","0","0","41581","","null","","","null","77","","","","","","","","","","","","","","","NaN",""
"","S1","","html-keyboard-response","514","559967","0.0-1.0-704.0","0","0","41581","","null","","","null","78","","","","","","","","","","","","","","","",""
"","ISI","","html-keyboard-response","515","560970","0.0-1.0-705.0","0","0","41581","","null","","","null","78","NaN","","","","","","","","","","","","","","",""
"","S2","","html-keyboard-response","516","561223","0.0-1.0-706.0","0","0","41581","","null","","","null","78","","NaN","","","","","","","","","","","","","",""
"","response","","html-keyboard-response","517","561963","0.0-1.0-707.0-0.0","0","0","41581","","738","","","75","78","","","2","78","training","adjacent","FG","6","7","R.jpg","N.jpg","1","1","1","",""
"","feedback","","html-keyboard-response","518","562966","0.0-1.0-708.0-0.0","0","0","41581","","null","","","null","78","","","","","","","","","","","","","","","",""
"","ITI","","html-keyboard-response","519","563970","0.0-1.0-711.0","0","0","41581","","null","","","null","78","","","","","","","","","","","","","","","NaN",""
"","S1","","html-keyboard-response","520","564223","0.0-1.0-713.0","0","0","41581","","null","","","null","79","","","","","","","","","","","","","","","",""
"","ISI","","html-keyboard-response","521","565225","0.0-1.0-714.0","0","0","41581","","null","","","null","79","NaN","","","","","","","","","","","","","","",""
"","S2","","html-keyboard-response","522","565481","0.0-1.0-715.0","0","0","41581","","null","","","null","79","","NaN","","","","","","","","","","","","","",""
"","response","","html-keyboard-response","523","566239","0.0-1.0-716.0-0.0","0","0","41581","","755","","","68","79","","","2","79","training","adjacent","DE","4","5","P.jpg","Q.jpg","0","1","0","",""
"","feedback","","html-keyboard-response","524","567242","0.0-1.0-717.0-0.0","0","0","41581","","null","","","null","79","","","","","","","","","","","","","","","",""
"","time_out","","html-keyboard-response","525","569244","0.0-1.0-719.0-0.0","0","0","41581","","null","","","null","79","","","","","","","","","","","","","","","",""
"","ITI","","html-keyboard-response","526","570247","0.0-1.0-720.0","0","0","41581","","null","","","null","79","","","","","","","","","","","","","","","NaN",""
"","S1","","html-keyboard-response","527","570501","0.0-1.0-722.0","0","0","41581","","null","","","null","80","","","","","","","","","","","","","","","",""
"","ISI","","html-keyboard-response","528","571504","0.0-1.0-723.0","0","0","41581","","null","","","null","80","NaN","","","","","","","","","","","","","","",""
"","S2","","html-keyboard-response","529","571757","0.0-1.0-724.0","0","0","41581","","null","","","null","80","","NaN","","","","","","","","","","","","","",""
"","response","","html-keyboard-response","530","572483","0.0-1.0-725.0-0.0","0","0","41581","","723","","","75","80","","","2","80","training","adjacent","DC","4","3","P.jpg","O.jpg","1","0","0","",""
"","feedback","","html-keyboard-response","531","573486","0.0-1.0-726.0-0.0","0","0","41581","","null","","","null","80","","","","","","","","","","","","","","","",""
"","time_out","","html-keyboard-response","532","575488","0.0-1.0-728.0-0.0","0","0","41581","","null","","","null","80","","","","","","","","","","","","","","","",""
"","ITI","","html-keyboard-response","533","576491","0.0-1.0-729.0","0","0","41581","","null","","","null","80","","","","","","","","","","","","","","","NaN",""
"","S1","","html-keyboard-response","534","576745","0.0-1.0-731.0","0","0","41581","","null","","","null","81","","","","","","","","","","","","","","","",""
"","ISI","","html-keyboard-response","535","577747","0.0-1.0-732.0","0","0","41581","","null","","","null","81","NaN","","","","","","","","","","","","","","",""
"","S2","","html-keyboard-response","536","578000","0.0-1.0-733.0","0","0","41581","","null","","","null","81","","NaN","","","","","","","","","","","","","",""
"","response","","html-keyboard-response","537","578767","0.0-1.0-734.0-0.0","0","0","41581","","764","","","68","81","","","2","81","training","adjacent","AB","1","2","M.jpg","L.jpg","0","1","0","",""
"","feedback","","html-keyboard-response","538","579771","0.0-1.0-735.0-0.0","0","0","41581","","null","","","null","81","","","","","","","","","","","","","","","",""
"","time_out","","html-keyboard-response","539","581774","0.0-1.0-737.0-0.0","0","0","41581","","null","","","null","81","","","","","","","","","","","","","","","",""
"","ITI","","html-keyboard-response","540","582776","0.0-1.0-738.0","0","0","41581","","null","","","null","81","","","","","","","","","","","","","","","NaN",""
"","S1","","html-keyboard-response","541","583038","0.0-1.0-740.0","0","0","41581","","null","","","null","82","","","","","","","","","","","","","","","",""
"","ISI","","html-keyboard-response","542","584041","0.0-1.0-741.0","0","0","41581","","null","","","null","82","NaN","","","","","","","","","","","","","","",""
"","S2","","html-keyboard-response","543","584294","0.0-1.0-742.0","0","0","41581","","null","","","null","82","","NaN","","","","","","","","","","","","","",""
"","response","","html-keyboard-response","544","585003","0.0-1.0-743.0-0.0","0","0","41581","","706","","","75","82","","","2","82","training","adjacent","CD","3","4","O.jpg","P.jpg","1","1","1","",""
"","feedback","","html-keyboard-response","545","586006","0.0-1.0-744.0-0.0","0","0","41581","","null","","","null","82","","","","","","","","","","","","","","","",""
"","ITI","","html-keyboard-response","546","587010","0.0-1.0-747.0","0","0","41581","","null","","","null","82","","","","","","","","","","","","","","","NaN",""
"","S1","","html-keyboard-response","547","587264","0.0-1.0-749.0","0","0","41581","","null","","","null","83","","","","","","","","","","","","","","","",""
"","ISI","","html-keyboard-response","548","588266","0.0-1.0-750.0","0","0","41581","","null","","","null","83","NaN","","","","","","","","","","","","","","",""
"","S2","","html-keyboard-response","549","588531","0.0-1.0-751.0","0","0","41581","","null","","","null","83","","NaN","","","","","","","","","","","","","",""
"","response","","html-keyboard-response","550","589119","0.0-1.0-752.0-0.0","0","0","41581","","585","","","75","83","","","2","83","training","adjacent","FE","6","5","R.jpg","Q.jpg","1","0","0","",""
"","feedback","","html-keyboard-response","551","590122","0.0-1.0-753.0-0.0","0","0","41581","","null","","","null","83","","","","","","","","","","","","","","","",""
"","time_out","","html-keyboard-response","552","592125","0.0-1.0-755.0-0.0","0","0","41581","","null","","","null","83","","","","","","","","","","","","","","","",""
"","ITI","","html-keyboard-response","553","593129","0.0-1.0-756.0","0","0","41581","","null","","","null","83","","","","","","","","","","","","","","","NaN",""
"","S1","","html-keyboard-response","554","593382","0.0-1.0-758.0","0","0","41581","","null","","","null","84","","","","","","","","","","","","","","","",""
"","ISI","","html-keyboard-response","555","594384","0.0-1.0-759.0","0","0","41581","","null","","","null","84","NaN","","","","","","","","","","","","","","",""
"","S2","","html-keyboard-response","556","594637","0.0-1.0-760.0","0","0","41581","","null","","","null","84","","NaN","","","","","","","","","","","","","",""
"","response","","html-keyboard-response","557","595362","0.0-1.0-761.0-0.0","0","0","41581","","723","","","75","84","","","2","84","training","adjacent","ED","5","4","Q.jpg","P.jpg","1","0","0","",""
"","feedback","","html-keyboard-response","558","596366","0.0-1.0-762.0-0.0","0","0","41581","","null","","","null","84","","","","","","","","","","","","","","","",""
"","time_out","","html-keyboard-response","559","598368","0.0-1.0-764.0-0.0","0","0","41581","","null","","","null","84","","","","","","","","","","","","","","","",""
"","ITI","","html-keyboard-response","560","599371","0.0-1.0-765.0","0","0","41581","","null","","","null","84","","","","","","","","","","","","","","","NaN",""
"","S1","","html-keyboard-response","561","599625","0.0-1.0-767.0","0","0","41581","","null","","","null","85","","","","","","","","","","","","","","","",""
"","ISI","","html-keyboard-response","562","600627","0.0-1.0-768.0","0","0","41581","","null","","","null","85","NaN","","","","","","","","","","","","","","",""
"","S2","","html-keyboard-response","563","600880","0.0-1.0-769.0","0","0","41581","","null","","","null","85","","NaN","","","","","","","","","","","","","",""
"","response","","html-keyboard-response","564","601630","0.0-1.0-770.0-0.0","0","0","41581","","748","","","68","85","","","2","85","training","adjacent","ED","5","4","Q.jpg","P.jpg","0","0","1","",""
"","feedback","","html-keyboard-response","565","602634","0.0-1.0-771.0-0.0","0","0","41581","","null","","","null","85","","","","","","","","","","","","","","","",""
"","ITI","","html-keyboard-response","566","603637","0.0-1.0-774.0","0","0","41581","","null","","","null","85","","","","","","","","","","","","","","","NaN",""
"","S1","","html-keyboard-response","567","603890","0.0-1.0-776.0","0","0","41581","","null","","","null","86","","","","","","","","","","","","","","","",""
"","ISI","","html-keyboard-response","568","604893","0.0-1.0-777.0","0","0","41581","","null","","","null","86","NaN","","","","","","","","","","","","","","",""
"","S2","","html-keyboard-response","569","605146","0.0-1.0-778.0","0","0","41581","","null","","","null","86","","NaN","","","","","","","","","","","","","",""
"","response","","html-keyboard-response","570","605690","0.0-1.0-779.0-0.0","0","0","41581","","542","","","68","86","","","2","86","training","adjacent","CB","3","2","O.jpg","L.jpg","0","0","1","",""
"","feedback","","html-keyboard-response","571","606693","0.0-1.0-780.0-0.0","0","0","41581","","null","","","null","86","","","","","","","","","","","","","","","",""
"","ITI","","html-keyboard-response","572","607697","0.0-1.0-783.0","0","0","41581","","null","","","null","86","","","","","","","","","","","","","","","NaN",""
"","S1","","html-keyboard-response","573","607950","0.0-1.0-785.0","0","0","41581","","null","","","null","87","","","","","","","","","","","","","","","",""
"","ISI","","html-keyboard-response","574","608953","0.0-1.0-786.0","0","0","41581","","null","","","null","87","NaN","","","","","","","","","","","","","","",""
"","S2","","html-keyboard-response","575","609207","0.0-1.0-787.0","0","0","41581","","null","","","null","87","","NaN","","","","","","","","","","","","","",""
"","response","","html-keyboard-response","576","609746","0.0-1.0-788.0-0.0","0","0","41581","","537","","","75","87","","","2","87","training","adjacent","AB","1","2","M.jpg","L.jpg","1","1","1","",""
"","feedback","","html-keyboard-response","577","610749","0.0-1.0-789.0-0.0","0","0","41581","","null","","","null","87","","","","","","","","","","","","","","","",""
"","ITI","","html-keyboard-response","578","611753","0.0-1.0-792.0","0","0","41581","","null","","","null","87","","","","","","","","","","","","","","","NaN",""
"","S1","","html-keyboard-response","579","612005","0.0-1.0-794.0","0","0","41581","","null","","","null","88","","","","","","","","","","","","","","","",""
"","ISI","","html-keyboard-response","580","613009","0.0-1.0-795.0","0","0","41581","","null","","","null","88","NaN","","","","","","","","","","","","","","",""
