"success","ttype","start_time","trial_type","trial_index","time_elapsed","internal_node_id","warning","missed_checkup","PID","view_history","rt","responses","repeat_instructions","key_press","index","keypress_isi","keypress_S2","block","trial_num","phase","group_type","pair_type","S1_stim","S2_stim","S1_img","S2_img","S1_chosen","S1_higher","accuracy","keypress_iti","total_bonus_tally"
"true","full_screen","d04132023hr1712","fullscreen","0","13572","0.0-0.0","0","0","65136","","","","","","","","","","","","","","","","","","","","","",""
"","instructions","","instructions","1","95329","0.0-1.0-0.0-0.0","0","0","65136","[{""page_index"":0,""viewing_time"":12802},{""page_index"":1,""viewing_time"":37465},{""page_index"":2,""viewing_time"":3639},{""page_index"":1,""viewing_time"":12792},{""page_index"":2,""viewing_time"":5936},{""page_index"":3,""viewing_time"":9121}]","81756","","","","","","","","","","","","","","","","","","","",""
"","comprehension_check","","survey-multi-choice","2","140711","0.0-1.0-0.0-1.0","0","0","65136","","45379","{""Q0"":""True"",""Q1"":""D"",""Q2"":""Only when the screen 'MAKE A CHOICE' is shown"",""Q3"":""Green mark"",""Q4"":""either D or K""}","1","","","","","","","","","","","","","","","","","",""
"","missed_instruction_checkup","","html-keyboard-response","3","144196","0.0-1.0-0.0-2.0-0.0","0","1","65136","","3481","","","32","","","","","","","","","","","","","","","","",""
"","instructions","","instructions","4","178687","0.0-1.0-0.1-0.1","0","0","65136","[{""page_index"":0,""viewing_time"":7994},{""page_index"":1,""viewing_time"":15264},{""page_index"":2,""viewing_time"":9903},{""page_index"":3,""viewing_time"":1328}]","34489","","","","","","","","","","","","","","","","","","","",""
"","comprehension_check","","survey-multi-choice","5","189335","0.0-1.0-0.1-1.1","0","0","65136","","10646","{""Q0"":""True"",""Q1"":""D"",""Q2"":""Once the second image appears and while the screen 'MAKE A CHOICE' is shown"",""Q3"":""Green mark"",""Q4"":""either D or K""}","0","","","","","","","","","","","","","","","","","",""
"","start_exp","","html-keyboard-response","6","191907","0.0-1.0-1.0","0","0","65136","","2569","","","32","","","","","","","","","","","","","","","","",""
"","S1","","html-keyboard-response","7","192160","0.0-1.0-2.0","0","0","65136","","null","","","null","0","","","","","","","","","","","","","","","",""
"","ISI","","html-keyboard-response","8","193162","0.0-1.0-3.0","0","0","65136","","null","","","null","0","NaN","","","","","","","","","","","","","","",""
"","S2","","html-keyboard-response","9","193416","0.0-1.0-4.0","0","0","65136","","null","","","null","0","","NaN","","","","","","","","","","","","","",""
"","response","","html-keyboard-response","10","195067","0.0-1.0-5.0-0.0","0","0","65136","","1649","","","75","0","","","1","0","training","adjacent","GF","7","6","Q.jpg","N.jpg","0","0","1","",""
"","feedback","","html-keyboard-response","11","196070","0.0-1.0-6.0-0.0","0","0","65136","","null","","","null","0","","","","","","","","","","","","","","","",""
"","ITI","","html-keyboard-response","12","197073","0.0-1.0-9.0","0","0","65136","","null","","","null","0","","","","","","","","","","","","","","","NaN",""
"","S1","","html-keyboard-response","13","197325","0.0-1.0-11.0","0","0","65136","","null","","","null","1","","","","","","","","","","","","","","","",""
"","ISI","","html-keyboard-response","14","198327","0.0-1.0-12.0","0","0","65136","","null","","","null","1","NaN","","","","","","","","","","","","","","",""
"","S2","","html-keyboard-response","15","198580","0.0-1.0-13.0","0","0","65136","","null","","","null","1","","NaN","","","","","","","","","","","","","",""
"","response","","html-keyboard-response","16","199267","0.0-1.0-14.0-0.0","0","0","65136","","685","","","75","1","","","1","1","training","adjacent","GF","7","6","Q.jpg","N.jpg","0","0","1","",""
"","feedback","","html-keyboard-response","17","200283","0.0-1.0-15.0-0.0","0","0","65136","","null","","","null","1","","","","","","","","","","","","","","","",""
"","ITI","","html-keyboard-response","18","201287","0.0-1.0-18.0","0","0","65136","","null","","","null","1","","","","","","","","","","","","","","","NaN",""
"","S1","","html-keyboard-response","19","201540","0.0-1.0-20.0","0","0","65136","","null","","","null","2","","","","","","","","","","","","","","","",""
"","ISI","","html-keyboard-response","20","202543","0.0-1.0-21.0","0","0","65136","","null","","","null","2","NaN","","","","","","","","","","","","","","",""
"","S2","","html-keyboard-response","21","202795","0.0-1.0-22.0","0","0","65136","","null","","","null","2","","NaN","","","","","","","","","","","","","",""
"","response","","html-keyboard-response","22","203743","0.0-1.0-23.0-0.0","0","0","65136","","946","","","75","2","","","1","2","training","adjacent","EF","5","6","P.jpg","N.jpg","0","1","0","",""
"","feedback","","html-keyboard-response","23","204745","0.0-1.0-24.0-0.0","0","0","65136","","null","","","null","2","","","","","","","","","","","","","","","",""
"","time_out","","html-keyboard-response","24","206747","0.0-1.0-26.0-0.0","0","0","65136","","null","","","null","2","","","","","","","","","","","","","","","",""
"","ITI","","html-keyboard-response","25","207749","0.0-1.0-27.0","0","0","65136","","null","","","null","2","","","","","","","","","","","","","","","NaN",""
"","S1","","html-keyboard-response","26","208001","0.0-1.0-29.0","0","0","65136","","null","","","null","3","","","","","","","","","","","","","","","",""
"","ISI","","html-keyboard-response","27","209003","0.0-1.0-30.0","0","0","65136","","null","","","null","3","NaN","","","","","","","","","","","","","","",""
"","S2","","html-keyboard-response","28","209255","0.0-1.0-31.0","0","0","65136","","null","","","null","3","","NaN","","","","","","","","","","","","","",""
"","response","","html-keyboard-response","29","210156","0.0-1.0-32.0-0.0","0","0","65136","","900","","","68","3","","","1","3","training","adjacent","EF","5","6","P.jpg","N.jpg","1","1","1","",""
"","feedback","","html-keyboard-response","30","211161","0.0-1.0-33.0-0.0","0","0","65136","","null","","","null","3","","","","","","","","","","","","","","","",""
"","ITI","","html-keyboard-response","31","212165","0.0-1.0-36.0","0","0","65136","","null","","","null","3","","","","","","","","","","","","","","","NaN",""
"","S1","","html-keyboard-response","32","212417","0.0-1.0-38.0","0","0","65136","","null","","","null","4","","","","","","","","","","","","","","","",""
"","ISI","","html-keyboard-response","33","213420","0.0-1.0-39.0","0","0","65136","","null","","","null","4","NaN","","","","","","","","","","","","","","",""
"","S2","","html-keyboard-response","34","213672","0.0-1.0-40.0","0","0","65136","","null","","","null","4","","NaN","","","","","","","","","","","","","",""
"","response","","html-keyboard-response","35","214469","0.0-1.0-41.0-0.0","0","0","65136","","796","","","68","4","","","1","4","training","adjacent","DC","4","3","M.jpg","R.jpg","1","0","0","",""
"","feedback","","html-keyboard-response","36","215472","0.0-1.0-42.0-0.0","0","0","65136","","null","","","null","4","","","","","","","","","","","","","","","",""
"","time_out","","html-keyboard-response","37","217475","0.0-1.0-44.0-0.0","0","0","65136","","null","","","null","4","","","","","","","","","","","","","","","",""
"","ITI","","html-keyboard-response","38","218477","0.0-1.0-45.0","0","0","65136","","null","","","null","4","","","","","","","","","","","","","","","NaN",""
"","S1","","html-keyboard-response","39","218731","0.0-1.0-47.0","0","0","65136","","null","","","null","5","","","","","","","","","","","","","","","",""
"","ISI","","html-keyboard-response","40","219735","0.0-1.0-48.0","0","0","65136","","null","","","null","5","NaN","","","","","","","","","","","","","","",""
"","S2","","html-keyboard-response","41","219987","0.0-1.0-49.0","0","0","65136","","null","","","null","5","","NaN","","","","","","","","","","","","","",""
"","response","","html-keyboard-response","42","220467","0.0-1.0-50.0-0.0","0","0","65136","","478","","","75","5","","","1","5","training","adjacent","CD","3","4","R.jpg","M.jpg","0","1","0","",""
"","feedback","","html-keyboard-response","43","221470","0.0-1.0-51.0-0.0","0","0","65136","","null","","","null","5","","","","","","","","","","","","","","","",""
"","time_out","","html-keyboard-response","44","223472","0.0-1.0-53.0-0.0","0","0","65136","","null","","","null","5","","","","","","","","","","","","","","","",""
"","ITI","","html-keyboard-response","45","224474","0.0-1.0-54.0","0","0","65136","","null","","","null","5","","","","","","","","","","","","","","","NaN",""
"","S1","","html-keyboard-response","46","224726","0.0-1.0-56.0","0","0","65136","","null","","","null","6","","","","","","","","","","","","","","","",""
"","ISI","","html-keyboard-response","47","225728","0.0-1.0-57.0","0","0","65136","","null","","","null","6","NaN","","","","","","","","","","","","","","",""
"","S2","","html-keyboard-response","48","225981","0.0-1.0-58.0","0","0","65136","","null","","","null","6","","NaN","","","","","","","","","","","","","",""
"","response","","html-keyboard-response","49","226733","0.0-1.0-59.0-0.0","0","0","65136","","751","","","68","6","","","1","6","training","adjacent","ED","5","4","P.jpg","M.jpg","1","0","0","",""
"","feedback","","html-keyboard-response","50","227735","0.0-1.0-60.0-0.0","0","0","65136","","null","","","null","6","","","","","","","","","","","","","","","",""
"","time_out","","html-keyboard-response","51","229738","0.0-1.0-62.0-0.0","0","0","65136","","null","","","null","6","","","","","","","","","","","","","","","",""
"","ITI","","html-keyboard-response","52","230740","0.0-1.0-63.0","0","0","65136","","null","","","null","6","","","","","","","","","","","","","","","NaN",""
"","S1","","html-keyboard-response","53","230993","0.0-1.0-65.0","0","0","65136","","null","","","null","7","","","","","","","","","","","","","","","",""
"","ISI","","html-keyboard-response","54","231994","0.0-1.0-66.0","0","0","65136","","null","","","null","7","NaN","","","","","","","","","","","","","","",""
"","S2","","html-keyboard-response","55","232247","0.0-1.0-67.0","0","0","65136","","null","","","null","7","","NaN","","","","","","","","","","","","","",""
"","response","","html-keyboard-response","56","233139","0.0-1.0-68.0-0.0","0","0","65136","","891","","","75","7","","","1","7","training","adjacent","AB","1","2","O.jpg","L.jpg","0","1","0","",""
"","feedback","","html-keyboard-response","57","234142","0.0-1.0-69.0-0.0","0","0","65136","","null","","","null","7","","","","","","","","","","","","","","","",""
"","time_out","","html-keyboard-response","58","236144","0.0-1.0-71.0-0.0","0","0","65136","","null","","","null","7","","","","","","","","","","","","","","","",""
"","ITI","","html-keyboard-response","59","237146","0.0-1.0-72.0","0","0","65136","","null","","","null","7","","","","","","","","","","","","","","","NaN",""
"","S1","","html-keyboard-response","60","237398","0.0-1.0-74.0","0","0","65136","","null","","","null","8","","","","","","","","","","","","","","","",""
"","ISI","","html-keyboard-response","61","238400","0.0-1.0-75.0","0","0","65136","","null","","","null","8","NaN","","","","","","","","","","","","","","",""
"","S2","","html-keyboard-response","62","238653","0.0-1.0-76.0","0","0","65136","","null","","","null","8","","NaN","","","","","","","","","","","","","",""
"","response","","html-keyboard-response","63","239383","0.0-1.0-77.0-0.0","0","0","65136","","729","","","75","8","","","1","8","training","adjacent","DE","4","5","M.jpg","P.jpg","0","1","0","",""
"","feedback","","html-keyboard-response","64","240385","0.0-1.0-78.0-0.0","0","0","65136","","null","","","null","8","","","","","","","","","","","","","","","",""
"","time_out","","html-keyboard-response","65","242388","0.0-1.0-80.0-0.0","0","0","65136","","null","","","null","8","","","","","","","","","","","","","","","",""
"","ITI","","html-keyboard-response","66","243390","0.0-1.0-81.0","0","0","65136","","null","","","null","8","","","","","","","","","","","","","","","NaN",""
"","S1","","html-keyboard-response","67","243643","0.0-1.0-83.0","0","0","65136","","null","","","null","9","","","","","","","","","","","","","","","",""
"","ISI","","html-keyboard-response","68","244644","0.0-1.0-84.0","0","0","65136","","null","","","null","9","NaN","","","","","","","","","","","","","","",""
"","S2","","html-keyboard-response","69","244897","0.0-1.0-85.0","0","0","65136","","null","","","null","9","","NaN","","","","","","","","","","","","","",""
"","response","","html-keyboard-response","70","245931","0.0-1.0-86.0-0.0","0","0","65136","","1033","","","68","9","","","1","9","training","adjacent","GF","7","6","Q.jpg","N.jpg","1","0","0","",""
"","feedback","","html-keyboard-response","71","246933","0.0-1.0-87.0-0.0","0","0","65136","","null","","","null","9","","","","","","","","","","","","","","","",""
"","time_out","","html-keyboard-response","72","248935","0.0-1.0-89.0-0.0","0","0","65136","","null","","","null","9","","","","","","","","","","","","","","","",""
"","ITI","","html-keyboard-response","73","249937","0.0-1.0-90.0","0","0","65136","","null","","","null","9","","","","","","","","","","","","","","","NaN",""
"","S1","","html-keyboard-response","74","250189","0.0-1.0-92.0","0","0","65136","","null","","","null","10","","","","","","","","","","","","","","","",""
"","ISI","","html-keyboard-response","75","251191","0.0-1.0-93.0","0","0","65136","","null","","","null","10","NaN","","","","","","","","","","","","","","",""
"","S2","","html-keyboard-response","76","251446","0.0-1.0-94.0","0","0","65136","","null","","","null","10","","NaN","","","","","","","","","","","","","",""
"","response","","html-keyboard-response","77","252158","0.0-1.0-95.0-0.0","0","0","65136","","710","","","68","10","","","1","10","training","adjacent","FE","6","5","N.jpg","P.jpg","1","0","0","",""
"","feedback","","html-keyboard-response","78","253162","0.0-1.0-96.0-0.0","0","0","65136","","null","","","null","10","","","","","","","","","","","","","","","",""
"","time_out","","html-keyboard-response","79","255165","0.0-1.0-98.0-0.0","0","0","65136","","null","","","null","10","","","","","","","","","","","","","","","",""
"","ITI","","html-keyboard-response","80","256167","0.0-1.0-99.0","0","0","65136","","null","","","null","10","","","","","","","","","","","","","","","NaN",""
"","S1","","html-keyboard-response","81","256431","0.0-1.0-101.0","0","0","65136","","null","","","null","11","","","","","","","","","","","","","","","",""
"","ISI","","html-keyboard-response","82","257433","0.0-1.0-102.0","0","0","65136","","null","","","null","11","NaN","","","","","","","","","","","","","","",""
"","S2","","html-keyboard-response","83","257687","0.0-1.0-103.0","0","0","65136","","null","","","null","11","","NaN","","","","","","","","","","","","","",""
"","response","","html-keyboard-response","84","258149","0.0-1.0-104.0-0.0","0","0","65136","","461","","","75","11","","","1","11","training","adjacent","FE","6","5","N.jpg","P.jpg","0","0","1","",""
"","feedback","","html-keyboard-response","85","259151","0.0-1.0-105.0-0.0","0","0","65136","","null","","","null","11","","","","","","","","","","","","","","","",""
"","ITI","","html-keyboard-response","86","260153","0.0-1.0-108.0","0","0","65136","","null","","","null","11","","","","","","","","","","","","","","","NaN",""
"","S1","","html-keyboard-response","87","260404","0.0-1.0-110.0","0","0","65136","","null","","","null","12","","","","","","","","","","","","","","","",""
"","ISI","","html-keyboard-response","88","261407","0.0-1.0-111.0","0","0","65136","","null","","","null","12","NaN","","","","","","","","","","","","","","",""
"","S2","","html-keyboard-response","89","261660","0.0-1.0-112.0","0","0","65136","","null","","","null","12","","NaN","","","","","","","","","","","","","",""
"","response","","html-keyboard-response","90","262360","0.0-1.0-113.0-0.0","0","0","65136","","699","","","75","12","","","1","12","training","adjacent","DE","4","5","M.jpg","P.jpg","0","1","0","",""
"","feedback","","html-keyboard-response","91","263362","0.0-1.0-114.0-0.0","0","0","65136","","null","","","null","12","","","","","","","","","","","","","","","",""
"","time_out","","html-keyboard-response","92","265364","0.0-1.0-116.0-0.0","0","0","65136","","null","","","null","12","","","","","","","","","","","","","","","",""
"","ITI","","html-keyboard-response","93","266366","0.0-1.0-117.0","0","0","65136","","null","","","null","12","","","","","","","","","","","","","","","NaN",""
"","S1","","html-keyboard-response","94","266618","0.0-1.0-119.0","0","0","65136","","null","","","null","13","","","","","","","","","","","","","","","",""
"","ISI","","html-keyboard-response","95","267621","0.0-1.0-120.0","0","0","65136","","null","","","null","13","NaN","","","","","","","","","","","","","","",""
"","S2","","html-keyboard-response","96","267875","0.0-1.0-121.0","0","0","65136","","null","","","null","13","","NaN","","","","","","","","","","","","","",""
"","response","","html-keyboard-response","97","268668","0.0-1.0-122.0-0.0","0","0","65136","","791","","","75","13","","","1","13","training","adjacent","BC","2","3","L.jpg","R.jpg","0","1","0","",""
"","feedback","","html-keyboard-response","98","269671","0.0-1.0-123.0-0.0","0","0","65136","","null","","","null","13","","","","","","","","","","","","","","","",""
"","time_out","","html-keyboard-response","99","271673","0.0-1.0-125.0-0.0","0","0","65136","","null","","","null","13","","","","","","","","","","","","","","","",""
"","ITI","","html-keyboard-response","100","272677","0.0-1.0-126.0","0","0","65136","","null","","","null","13","","","","","","","","","","","","","","","NaN",""
"","S1","","html-keyboard-response","101","272930","0.0-1.0-128.0","0","0","65136","","null","","","null","14","","","","","","","","","","","","","","","",""
"","ISI","","html-keyboard-response","102","273933","0.0-1.0-129.0","0","0","65136","","null","","","null","14","NaN","","","","","","","","","","","","","","",""
"","S2","","html-keyboard-response","103","274186","0.0-1.0-130.0","0","0","65136","","null","","","null","14","","NaN","","","","","","","","","","","","","",""
"","response","","html-keyboard-response","104","274694","0.0-1.0-131.0-0.0","0","0","65136","","507","","","75","14","","","1","14","training","adjacent","CD","3","4","R.jpg","M.jpg","0","1","0","",""
"","feedback","","html-keyboard-response","105","275697","0.0-1.0-132.0-0.0","0","0","65136","","null","","","null","14","","","","","","","","","","","","","","","",""
"","time_out","","html-keyboard-response","106","277699","0.0-1.0-134.0-0.0","0","0","65136","","null","","","null","14","","","","","","","","","","","","","","","",""
"","ITI","","html-keyboard-response","107","278702","0.0-1.0-135.0","0","0","65136","","null","","","null","14","","","","","","","","","","","","","","","NaN",""
"","S1","","html-keyboard-response","108","278954","0.0-1.0-137.0","0","0","65136","","null","","","null","15","","","","","","","","","","","","","","","",""
"","ISI","","html-keyboard-response","109","279956","0.0-1.0-138.0","0","0","65136","","null","","","null","15","NaN","","","","","","","","","","","","","","",""
"","S2","","html-keyboard-response","110","280217","0.0-1.0-139.0","0","0","65136","","null","","","null","15","","NaN","","","","","","","","","","","","","",""
"","response","","html-keyboard-response","111","281015","0.0-1.0-140.0-0.0","0","0","65136","","796","","","75","15","","","1","15","training","adjacent","CB","3","2","R.jpg","L.jpg","0","0","1","",""
"","feedback","","html-keyboard-response","112","282017","0.0-1.0-141.0-0.0","0","0","65136","","null","","","null","15","","","","","","","","","","","","","","","",""
"","ITI","","html-keyboard-response","113","283018","0.0-1.0-144.0","0","0","65136","","null","","","null","15","","","","","","","","","","","","","","","NaN",""
"","S1","","html-keyboard-response","114","283270","0.0-1.0-146.0","0","0","65136","","null","","","null","16","","","","","","","","","","","","","","","",""
"","ISI","","html-keyboard-response","115","284273","0.0-1.0-147.0","0","0","65136","","null","","","null","16","NaN","","","","","","","","","","","","","","",""
"","S2","","html-keyboard-response","116","284525","0.0-1.0-148.0","0","0","65136","","null","","","null","16","","NaN","","","","","","","","","","","","","",""
"","response","","html-keyboard-response","117","284894","0.0-1.0-149.0-0.0","0","0","65136","","368","","","68","16","","","1","16","training","adjacent","ED","5","4","P.jpg","M.jpg","1","0","0","",""
"","feedback","","html-keyboard-response","118","285897","0.0-1.0-150.0-0.0","0","0","65136","","null","","","null","16","","","","","","","","","","","","","","","",""
"","time_out","","html-keyboard-response","119","287899","0.0-1.0-152.0-0.0","0","0","65136","","null","","","null","16","","","","","","","","","","","","","","","",""
"","ITI","","html-keyboard-response","120","288901","0.0-1.0-153.0","0","0","65136","","null","","","null","16","","","","","","","","","","","","","","","NaN",""
"","S1","","html-keyboard-response","121","289155","0.0-1.0-155.0","0","0","65136","","null","","","null","17","","","","","","","","","","","","","","","",""
"","ISI","","html-keyboard-response","122","290160","0.0-1.0-156.0","0","0","65136","","null","","","null","17","NaN","","","","","","","","","","","","","","",""
"","S2","","html-keyboard-response","123","290413","0.0-1.0-157.0","0","0","65136","","null","","","null","17","","NaN","","","","","","","","","","","","","",""
"","response","","html-keyboard-response","124","291364","0.0-1.0-158.0-0.0","0","0","65136","","949","","","68","17","","","1","17","training","adjacent","FG","6","7","N.jpg","Q.jpg","1","1","1","",""
"","feedback","","html-keyboard-response","125","292367","0.0-1.0-159.0-0.0","0","0","65136","","null","","","null","17","","","","","","","","","","","","","","","",""
"","ITI","","html-keyboard-response","126","293368","0.0-1.0-162.0","0","0","65136","","null","","","null","17","","","","","","","","","","","","","","","NaN",""
"","S1","","html-keyboard-response","127","293620","0.0-1.0-164.0","0","0","65136","","null","","","null","18","","","","","","","","","","","","","","","",""
"","ISI","","html-keyboard-response","128","294623","0.0-1.0-165.0","0","0","65136","","null","","","null","18","NaN","","","","","","","","","","","","","","",""
"","S2","","html-keyboard-response","129","294874","0.0-1.0-166.0","0","0","65136","","null","","","null","18","","NaN","","","","","","","","","","","","","",""
"","response","","html-keyboard-response","130","295543","0.0-1.0-167.0-0.0","0","0","65136","","667","","","75","18","","","1","18","training","adjacent","BC","2","3","L.jpg","R.jpg","0","1","0","",""
"","feedback","","html-keyboard-response","131","296546","0.0-1.0-168.0-0.0","0","0","65136","","null","","","null","18","","","","","","","","","","","","","","","",""
"","time_out","","html-keyboard-response","132","298561","0.0-1.0-170.0-0.0","0","0","65136","","null","","","null","18","","","","","","","","","","","","","","","",""
"","ITI","","html-keyboard-response","133","299563","0.0-1.0-171.0","0","0","65136","","null","","","null","18","","","","","","","","","","","","","","","NaN",""
"","S1","","html-keyboard-response","134","299815","0.0-1.0-173.0","0","0","65136","","null","","","null","19","","","","","","","","","","","","","","","",""
"","ISI","","html-keyboard-response","135","300818","0.0-1.0-174.0","0","0","65136","","null","","","null","19","NaN","","","","","","","","","","","","","","",""
"","S2","","html-keyboard-response","136","301070","0.0-1.0-175.0","0","0","65136","","null","","","null","19","","NaN","","","","","","","","","","","","","",""
"","response","","html-keyboard-response","137","302085","0.0-1.0-176.0-0.0","0","0","65136","","1012","","","68","19","","","1","19","training","adjacent","FE","6","5","N.jpg","P.jpg","1","0","0","",""
"","feedback","","html-keyboard-response","138","303088","0.0-1.0-177.0-0.0","0","0","65136","","null","","","null","19","","","","","","","","","","","","","","","",""
"","time_out","","html-keyboard-response","139","305090","0.0-1.0-179.0-0.0","0","0","65136","","null","","","null","19","","","","","","","","","","","","","","","",""
"","ITI","","html-keyboard-response","140","306093","0.0-1.0-180.0","0","0","65136","","null","","","null","19","","","","","","","","","","","","","","","NaN",""
"","S1","","html-keyboard-response","141","306346","0.0-1.0-182.0","0","0","65136","","null","","","null","20","","","","","","","","","","","","","","","",""
"","ISI","","html-keyboard-response","142","307349","0.0-1.0-183.0","0","0","65136","","null","","","null","20","NaN","","","","","","","","","","","","","","",""
"","S2","","html-keyboard-response","143","307602","0.0-1.0-184.0","0","0","65136","","null","","","null","20","","NaN","","","","","","","","","","","","","",""
"","response","","html-keyboard-response","144","308278","0.0-1.0-185.0-0.0","0","0","65136","","674","","","68","20","","","1","20","training","adjacent","ED","5","4","P.jpg","M.jpg","1","0","0","",""
"","feedback","","html-keyboard-response","145","309280","0.0-1.0-186.0-0.0","0","0","65136","","null","","","null","20","","","","","","","","","","","","","","","",""
"","time_out","","html-keyboard-response","146","311282","0.0-1.0-188.0-0.0","0","0","65136","","null","","","null","20","","","","","","","","","","","","","","","",""
"","ITI","","html-keyboard-response","147","312286","0.0-1.0-189.0","0","0","65136","","null","","","null","20","","","","","","","","","","","","","","","NaN",""
"","S1","","html-keyboard-response","148","312552","0.0-1.0-191.0","0","0","65136","","null","","","null","21","","","","","","","","","","","","","","","",""
"","ISI","","html-keyboard-response","149","313554","0.0-1.0-192.0","0","0","65136","","null","","","null","21","NaN","","","","","","","","","","","","","","",""
"","S2","","html-keyboard-response","150","313807","0.0-1.0-193.0","0","0","65136","","null","","","null","21","","NaN","","","","","","","","","","","","","",""
"","response","","html-keyboard-response","151","314731","0.0-1.0-194.0-0.0","0","0","65136","","923","","","68","21","","","1","21","training","adjacent","CB","3","2","R.jpg","L.jpg","1","0","0","",""
"","feedback","","html-keyboard-response","152","315733","0.0-1.0-195.0-0.0","0","0","65136","","null","","","null","21","","","","","","","","","","","","","","","",""
"","time_out","","html-keyboard-response","153","317736","0.0-1.0-197.0-0.0","0","0","65136","","null","","","null","21","","","","","","","","","","","","","","","",""
"","ITI","","html-keyboard-response","154","318739","0.0-1.0-198.0","0","0","65136","","null","","","null","21","","","","","","","","","","","","","","","NaN",""
"","S1","","html-keyboard-response","155","318993","0.0-1.0-200.0","0","0","65136","","null","","","null","22","","","","","","","","","","","","","","","",""
"","ISI","","html-keyboard-response","156","319995","0.0-1.0-201.0","0","0","65136","","null","","","null","22","NaN","","","","","","","","","","","","","","",""
"","S2","","html-keyboard-response","157","320247","0.0-1.0-202.0","0","0","65136","","null","","","null","22","","NaN","","","","","","","","","","","","","",""
"","response","","html-keyboard-response","158","321407","0.0-1.0-203.0-0.0","0","0","65136","","1158","","","68","22","","","1","22","training","adjacent","AB","1","2","O.jpg","L.jpg","1","1","1","",""
"","feedback","","html-keyboard-response","159","322409","0.0-1.0-204.0-0.0","0","0","65136","","null","","","null","22","","","","","","","","","","","","","","","",""
"","ITI","","html-keyboard-response","160","323413","0.0-1.0-207.0","0","0","65136","","null","","","null","22","","","","","","","","","","","","","","","NaN",""
"","S1","","html-keyboard-response","161","323664","0.0-1.0-209.0","0","0","65136","","null","","","null","23","","","","","","","","","","","","","","","",""
"","ISI","","html-keyboard-response","162","324666","0.0-1.0-210.0","0","0","65136","","null","","","null","23","NaN","","","","","","","","","","","","","","",""
"","S2","","html-keyboard-response","163","324918","0.0-1.0-211.0","0","0","65136","","null","","","null","23","","NaN","","","","","","","","","","","","","",""
"","response","","html-keyboard-response","164","325411","0.0-1.0-212.0-0.0","0","0","65136","","492","","","75","23","","","1","23","training","adjacent","BA","2","1","L.jpg","O.jpg","0","0","1","",""
"","feedback","","html-keyboard-response","165","326413","0.0-1.0-213.0-0.0","0","0","65136","","null","","","null","23","","","","","","","","","","","","","","","",""
"","ITI","","html-keyboard-response","166","327416","0.0-1.0-216.0","0","0","65136","","null","","","null","23","","","","","","","","","","","","","","","NaN",""
"","S1","","html-keyboard-response","167","327680","0.0-1.0-218.0","0","0","65136","","null","","","null","24","","","","","","","","","","","","","","","",""
"","ISI","","html-keyboard-response","168","328683","0.0-1.0-219.0","0","0","65136","","null","","","null","24","NaN","","","","","","","","","","","","","","",""
"","S2","","html-keyboard-response","169","328937","0.0-1.0-220.0","0","0","65136","","null","","","null","24","","NaN","","","","","","","","","","","","","",""
"","response","","html-keyboard-response","170","329459","0.0-1.0-221.0-0.0","0","0","65136","","520","","","68","24","","","1","24","training","adjacent","AB","1","2","O.jpg","L.jpg","1","1","1","",""
"","feedback","","html-keyboard-response","171","330463","0.0-1.0-222.0-0.0","0","0","65136","","null","","","null","24","","","","","","","","","","","","","","","",""
"","ITI","","html-keyboard-response","172","331466","0.0-1.0-225.0","0","0","65136","","null","","","null","24","","","","","","","","","","","","","","","NaN",""
"","S1","","html-keyboard-response","173","331730","0.0-1.0-227.0","0","0","65136","","null","","","null","25","","","","","","","","","","","","","","","",""
"","ISI","","html-keyboard-response","174","332732","0.0-1.0-228.0","0","0","65136","","null","","","null","25","NaN","","","","","","","","","","","","","","",""
"","S2","","html-keyboard-response","175","332985","0.0-1.0-229.0","0","0","65136","","null","","","null","25","","NaN","","","","","","","","","","","","","",""
"","response","","html-keyboard-response","176","333704","0.0-1.0-230.0-0.0","0","0","65136","","718","","","68","25","","","1","25","training","adjacent","CB","3","2","R.jpg","L.jpg","1","0","0","",""
"","feedback","","html-keyboard-response","177","334706","0.0-1.0-231.0-0.0","0","0","65136","","null","","","null","25","","","","","","","","","","","","","","","",""
"","time_out","","html-keyboard-response","178","336709","0.0-1.0-233.0-0.0","0","0","65136","","null","","","null","25","","","","","","","","","","","","","","","",""
"","ITI","","html-keyboard-response","179","337713","0.0-1.0-234.0","0","0","65136","","null","","","null","25","","","","","","","","","","","","","","","NaN",""
"","S1","","html-keyboard-response","180","337966","0.0-1.0-236.0","0","0","65136","","null","","","null","26","","","","","","","","","","","","","","","",""
"","ISI","","html-keyboard-response","181","338969","0.0-1.0-237.0","0","0","65136","","null","","","null","26","NaN","","","","","","","","","","","","","","",""
"","S2","","html-keyboard-response","182","339222","0.0-1.0-238.0","0","0","65136","","null","","","null","26","","NaN","","","","","","","","","","","","","",""
"","response","","html-keyboard-response","183","339932","0.0-1.0-239.0-0.0","0","0","65136","","708","","","68","26","","","1","26","training","adjacent","ED","5","4","P.jpg","M.jpg","1","0","0","",""
"","feedback","","html-keyboard-response","184","340934","0.0-1.0-240.0-0.0","0","0","65136","","null","","","null","26","","","","","","","","","","","","","","","",""
"","time_out","","html-keyboard-response","185","342936","0.0-1.0-242.0-0.0","0","0","65136","","null","","","null","26","","","","","","","","","","","","","","","",""
"","ITI","","html-keyboard-response","186","343938","0.0-1.0-243.0","0","0","65136","","null","","","null","26","","","","","","","","","","","","","","","NaN",""
"","S1","","html-keyboard-response","187","344198","0.0-1.0-245.0","0","0","65136","","null","","","null","27","","","","","","","","","","","","","","","",""
"","ISI","","html-keyboard-response","188","345203","0.0-1.0-246.0","0","0","65136","","null","","","null","27","NaN","","","","","","","","","","","","","","",""
"","S2","","html-keyboard-response","189","345456","0.0-1.0-247.0","0","0","65136","","null","","","null","27","","NaN","","","","","","","","","","","","","",""
"","response","","html-keyboard-response","190","346248","0.0-1.0-248.0-0.0","0","0","65136","","790","","","75","27","","","1","27","training","adjacent","CB","3","2","R.jpg","L.jpg","0","0","1","",""
"","feedback","","html-keyboard-response","191","347250","0.0-1.0-249.0-0.0","0","0","65136","","null","","","null","27","","","","","","","","","","","","","","","",""
"","ITI","","html-keyboard-response","192","348252","0.0-1.0-252.0","0","0","65136","","null","","","null","27","","","","","","","","","","","","","","","NaN",""
"","S1","","html-keyboard-response","193","348504","0.0-1.0-254.0","0","0","65136","","null","","","null","28","","","","","","","","","","","","","","","",""
"","ISI","","html-keyboard-response","194","349506","0.0-1.0-255.0","0","0","65136","","null","","","null","28","NaN","","","","","","","","","","","","","","",""
"","S2","","html-keyboard-response","195","349758","0.0-1.0-256.0","0","0","65136","","null","","","null","28","","NaN","","","","","","","","","","","","","",""
"","response","","html-keyboard-response","196","350260","0.0-1.0-257.0-0.0","0","0","65136","","501","","","75","28","","","1","28","training","adjacent","DE","4","5","M.jpg","P.jpg","0","1","0","",""
"","feedback","","html-keyboard-response","197","351263","0.0-1.0-258.0-0.0","0","0","65136","","null","","","null","28","","","","","","","","","","","","","","","",""
"","time_out","","html-keyboard-response","198","353266","0.0-1.0-260.0-0.0","0","0","65136","","null","","","null","28","","","","","","","","","","","","","","","",""
"","ITI","","html-keyboard-response","199","354270","0.0-1.0-261.0","0","0","65136","","null","","","null","28","","","","","","","","","","","","","","","NaN",""
"","S1","","html-keyboard-response","200","354522","0.0-1.0-263.0","0","0","65136","","null","","","null","29","","","","","","","","","","","","","","","",""
"","ISI","","html-keyboard-response","201","355525","0.0-1.0-264.0","0","0","65136","","null","","","null","29","NaN","","","","","","","","","","","","","","",""
"","S2","","html-keyboard-response","202","355778","0.0-1.0-265.0","0","0","65136","","null","","","null","29","","NaN","","","","","","","","","","","","","",""
"","response","","html-keyboard-response","203","356317","0.0-1.0-266.0-0.0","0","0","65136","","538","","","75","29","","","1","29","training","adjacent","DC","4","3","M.jpg","R.jpg","0","0","1","",""
"","feedback","","html-keyboard-response","204","357319","0.0-1.0-267.0-0.0","0","0","65136","","null","","","null","29","","","","","","","","","","","","","","","",""
"","ITI","","html-keyboard-response","205","358321","0.0-1.0-270.0","0","0","65136","","null","","","null","29","","","","","","","","","","","","","","","NaN",""
"","S1","","html-keyboard-response","206","358573","0.0-1.0-272.0","0","0","65136","","null","","","null","30","","","","","","","","","","","","","","","",""
"","ISI","","html-keyboard-response","207","359575","0.0-1.0-273.0","0","0","65136","","null","","","null","30","NaN","","","","","","","","","","","","","","",""
"","S2","","html-keyboard-response","208","359827","0.0-1.0-274.0","0","0","65136","","null","","","null","30","","NaN","","","","","","","","","","","","","",""
"","response","","html-keyboard-response","209","360541","0.0-1.0-275.0-0.0","0","0","65136","","712","","","75","30","","","1","30","training","adjacent","FG","6","7","N.jpg","Q.jpg","0","1","0","",""
"","feedback","","html-keyboard-response","210","361545","0.0-1.0-276.0-0.0","0","0","65136","","null","","","null","30","","","","","","","","","","","","","","","",""
"","time_out","","html-keyboard-response","211","363547","0.0-1.0-278.0-0.0","0","0","65136","","null","","","null","30","","","","","","","","","","","","","","","",""
"","ITI","","html-keyboard-response","212","364550","0.0-1.0-279.0","0","0","65136","","null","","","null","30","","","","","","","","","","","","","","","NaN",""
"","S1","","html-keyboard-response","213","364802","0.0-1.0-281.0","0","0","65136","","null","","","null","31","","","","","","","","","","","","","","","",""
"","ISI","","html-keyboard-response","214","365804","0.0-1.0-282.0","0","0","65136","","null","","","null","31","NaN","","","","","","","","","","","","","","",""
"","S2","","html-keyboard-response","215","366056","0.0-1.0-283.0","0","0","65136","","null","","","null","31","","NaN","","","","","","","","","","","","","",""
"","response","","html-keyboard-response","216","366767","0.0-1.0-284.0-0.0","0","0","65136","","710","","","75","31","","","1","31","training","adjacent","CD","3","4","R.jpg","M.jpg","0","1","0","",""
"","feedback","","html-keyboard-response","217","367769","0.0-1.0-285.0-0.0","0","0","65136","","null","","","null","31","","","","","","","","","","","","","","","",""
"","time_out","","html-keyboard-response","218","369771","0.0-1.0-287.0-0.0","0","0","65136","","null","","","null","31","","","","","","","","","","","","","","","",""
"","ITI","","html-keyboard-response","219","370773","0.0-1.0-288.0","0","0","65136","","null","","","null","31","","","","","","","","","","","","","","","NaN",""
"","S1","","html-keyboard-response","220","371027","0.0-1.0-290.0","0","0","65136","","null","","","null","32","","","","","","","","","","","","","","","",""
"","ISI","","html-keyboard-response","221","372030","0.0-1.0-291.0","0","0","65136","","null","","","null","32","NaN","","","","","","","","","","","","","","",""
"","S2","","html-keyboard-response","222","372283","0.0-1.0-292.0","0","0","65136","","null","","","null","32","","NaN","","","","","","","","","","","","","",""
"","response","","html-keyboard-response","223","373048","0.0-1.0-293.0-0.0","0","0","65136","","763","","","68","32","","","1","32","training","adjacent","CD","3","4","R.jpg","M.jpg","1","1","1","",""
"","feedback","","html-keyboard-response","224","374052","0.0-1.0-294.0-0.0","0","0","65136","","null","","","null","32","","","","","","","","","","","","","","","",""
"","ITI","","html-keyboard-response","225","375054","0.0-1.0-297.0","0","0","65136","","null","","","null","32","","","","","","","","","","","","","","","NaN",""
"","S1","","html-keyboard-response","226","375308","0.0-1.0-299.0","0","0","65136","","null","","","null","33","","","","","","","","","","","","","","","",""
"","ISI","","html-keyboard-response","227","376314","0.0-1.0-300.0","0","0","65136","","null","","","null","33","NaN","","","","","","","","","","","","","","",""
"","S2","","html-keyboard-response","228","376566","0.0-1.0-301.0","0","0","65136","","null","","","null","33","","NaN","","","","","","","","","","","","","",""
"","response","","html-keyboard-response","229","377046","0.0-1.0-302.0-0.0","0","0","65136","","479","","","68","33","","","1","33","training","adjacent","FG","6","7","N.jpg","Q.jpg","1","1","1","",""
"","feedback","","html-keyboard-response","230","378049","0.0-1.0-303.0-0.0","0","0","65136","","null","","","null","33","","","","","","","","","","","","","","","",""
"","ITI","","html-keyboard-response","231","379052","0.0-1.0-306.0","0","0","65136","","null","","","null","33","","","","","","","","","","","","","","","NaN",""
"","S1","","html-keyboard-response","232","379304","0.0-1.0-308.0","0","0","65136","","null","","","null","34","","","","","","","","","","","","","","","",""
"","ISI","","html-keyboard-response","233","380305","0.0-1.0-309.0","0","0","65136","","null","","","null","34","NaN","","","","","","","","","","","","","","",""
"","S2","","html-keyboard-response","234","380558","0.0-1.0-310.0","0","0","65136","","null","","","null","34","","NaN","","","","","","","","","","","","","",""
"","response","","html-keyboard-response","235","381323","0.0-1.0-311.0-0.0","0","0","65136","","764","","","68","34","","","1","34","training","adjacent","EF","5","6","P.jpg","N.jpg","1","1","1","",""
"","feedback","","html-keyboard-response","236","382325","0.0-1.0-312.0-0.0","0","0","65136","","null","","","null","34","","","","","","","","","","","","","","","",""
"","ITI","","html-keyboard-response","237","383329","0.0-1.0-315.0","0","0","65136","","null","","","null","34","","","","","","","","","","","","","","","NaN",""
"","S1","","html-keyboard-response","238","383582","0.0-1.0-317.0","0","0","65136","","null","","","null","35","","","","","","","","","","","","","","","",""
"","ISI","","html-keyboard-response","239","384584","0.0-1.0-318.0","0","0","65136","","null","","","null","35","NaN","","","","","","","","","","","","","","",""
"","S2","","html-keyboard-response","240","384836","0.0-1.0-319.0","0","0","65136","","null","","","null","35","","NaN","","","","","","","","","","","","","",""
"","response","","html-keyboard-response","241","386588","0.0-1.0-320.0-0.0","0","0","65136","","null","","","null","35","","","1","35","training","adjacent","DC","4","3","M.jpg","R.jpg","NaN","0","0","",""
"","too_slow_prompt","","html-keyboard-response","242","387590","0.0-1.0-322.0-0.0","1","0","65136","","null","","","null","","","","","","","","","","","","","","","","",""
"","time_out","","html-keyboard-response","243","389592","0.0-1.0-323.0-0.0","0","0","65136","","null","","","null","35","","","","","","","","","","","","","","","",""
"","ITI","","html-keyboard-response","244","390593","0.0-1.0-324.0","0","0","65136","","null","","","null","35","","","","","","","","","","","","","","","NaN",""
"","S1","","html-keyboard-response","245","390845","0.0-1.0-326.0","0","0","65136","","null","","","null","36","","","","","","","","","","","","","","","",""
"","ISI","","html-keyboard-response","246","391848","0.0-1.0-327.0","0","0","65136","","null","","","null","36","NaN","","","","","","","","","","","","","","",""
"","S2","","html-keyboard-response","247","392109","0.0-1.0-328.0","0","0","65136","","null","","","null","36","","NaN","","","","","","","","","","","","","",""
"","response","","html-keyboard-response","248","392937","0.0-1.0-329.0-0.0","0","0","65136","","827","","","75","36","","","1","36","training","adjacent","BA","2","1","L.jpg","O.jpg","0","0","1","",""
"","feedback","","html-keyboard-response","249","393939","0.0-1.0-330.0-0.0","0","0","65136","","null","","","null","36","","","","","","","","","","","","","","","",""
"","ITI","","html-keyboard-response","250","394941","0.0-1.0-333.0","0","0","65136","","null","","","null","36","","","","","","","","","","","","","","","NaN",""
"","S1","","html-keyboard-response","251","395194","0.0-1.0-335.0","0","0","65136","","null","","","null","37","","","","","","","","","","","","","","","",""
"","ISI","","html-keyboard-response","252","396196","0.0-1.0-336.0","0","0","65136","","null","","","null","37","NaN","","","","","","","","","","","","","","",""
"","S2","","html-keyboard-response","253","396448","0.0-1.0-337.0","0","0","65136","","null","","","null","37","","NaN","","","","","","","","","","","","","",""
"","response","","html-keyboard-response","254","397435","0.0-1.0-338.0-0.0","0","0","65136","","986","","","75","37","","","1","37","training","adjacent","GF","7","6","Q.jpg","N.jpg","0","0","1","",""
"","feedback","","html-keyboard-response","255","398437","0.0-1.0-339.0-0.0","0","0","65136","","null","","","null","37","","","","","","","","","","","","","","","",""
"","ITI","","html-keyboard-response","256","399440","0.0-1.0-342.0","0","0","65136","","null","","","null","37","","","","","","","","","","","","","","","NaN",""
"","S1","","html-keyboard-response","257","399692","0.0-1.0-344.0","0","0","65136","","null","","","null","38","","","","","","","","","","","","","","","",""
"","ISI","","html-keyboard-response","258","400694","0.0-1.0-345.0","0","0","65136","","null","","","null","38","NaN","","","","","","","","","","","","","","",""
"","S2","","html-keyboard-response","259","400947","0.0-1.0-346.0","0","0","65136","","null","","","null","38","","NaN","","","","","","","","","","","","","",""
"","response","","html-keyboard-response","260","401517","0.0-1.0-347.0-0.0","0","0","65136","","569","","","68","38","","","1","38","training","adjacent","BA","2","1","L.jpg","O.jpg","1","0","0","",""
"","feedback","","html-keyboard-response","261","402519","0.0-1.0-348.0-0.0","0","0","65136","","null","","","null","38","","","","","","","","","","","","","","","",""
"","time_out","","html-keyboard-response","262","404521","0.0-1.0-350.0-0.0","0","0","65136","","null","","","null","38","","","","","","","","","","","","","","","",""
"","ITI","","html-keyboard-response","263","405525","0.0-1.0-351.0","0","0","65136","","null","","","null","38","","","","","","","","","","","","","","","NaN",""
"","S1","","html-keyboard-response","264","405779","0.0-1.0-353.0","0","0","65136","","null","","","null","39","","","","","","","","","","","","","","","",""
"","ISI","","html-keyboard-response","265","406780","0.0-1.0-354.0","0","0","65136","","null","","","null","39","NaN","","","","","","","","","","","","","","",""
"","S2","","html-keyboard-response","266","407033","0.0-1.0-355.0","0","0","65136","","null","","","null","39","","NaN","","","","","","","","","","","","","",""
"","response","","html-keyboard-response","267","407503","0.0-1.0-356.0-0.0","0","0","65136","","468","","","68","39","","","1","39","training","adjacent","EF","5","6","P.jpg","N.jpg","1","1","1","",""
"","feedback","","html-keyboard-response","268","408507","0.0-1.0-357.0-0.0","0","0","65136","","null","","","null","39","","","","","","","","","","","","","","","",""
"","ITI","","html-keyboard-response","269","409510","0.0-1.0-360.0","0","0","65136","","null","","","null","39","","","","","","","","","","","","","","","NaN",""
"","S1","","html-keyboard-response","270","409763","0.0-1.0-362.0","0","0","65136","","null","","","null","40","","","","","","","","","","","","","","","",""
"","ISI","","html-keyboard-response","271","410766","0.0-1.0-363.0","0","0","65136","","null","","","null","40","NaN","","","","","","","","","","","","","","",""
"","S2","","html-keyboard-response","272","411019","0.0-1.0-364.0","0","0","65136","","null","","","null","40","","NaN","","","","","","","","","","","","","",""
"","response","","html-keyboard-response","273","411899","0.0-1.0-365.0-0.0","0","0","65136","","879","","","75","40","","","1","40","training","adjacent","AB","1","2","O.jpg","L.jpg","0","1","0","",""
"","feedback","","html-keyboard-response","274","412901","0.0-1.0-366.0-0.0","0","0","65136","","null","","","null","40","","","","","","","","","","","","","","","",""
"","time_out","","html-keyboard-response","275","414904","0.0-1.0-368.0-0.0","0","0","65136","","null","","","null","40","","","","","","","","","","","","","","","",""
"","ITI","","html-keyboard-response","276","415906","0.0-1.0-369.0","0","0","65136","","null","","","null","40","","","","","","","","","","","","","","","NaN",""
"","S1","","html-keyboard-response","277","416159","0.0-1.0-371.0","0","0","65136","","null","","","null","41","","","","","","","","","","","","","","","",""
"","ISI","","html-keyboard-response","278","417161","0.0-1.0-372.0","0","0","65136","","null","","","null","41","NaN","","","","","","","","","","","","","","",""
"","S2","","html-keyboard-response","279","417413","0.0-1.0-373.0","0","0","65136","","null","","","null","41","","NaN","","","","","","","","","","","","","",""
"","response","","html-keyboard-response","280","418478","0.0-1.0-374.0-0.0","0","0","65136","","1064","","","75","41","","","1","41","training","adjacent","DE","4","5","M.jpg","P.jpg","0","1","0","",""
"","feedback","","html-keyboard-response","281","419481","0.0-1.0-375.0-0.0","0","0","65136","","null","","","null","41","","","","","","","","","","","","","","","",""
"","time_out","","html-keyboard-response","282","421483","0.0-1.0-377.0-0.0","0","0","65136","","null","","","null","41","","","","","","","","","","","","","","","",""
"","ITI","","html-keyboard-response","283","422487","0.0-1.0-378.0","0","0","65136","","null","","","null","41","","","","","","","","","","","","","","","NaN",""
"","S1","","html-keyboard-response","284","422740","0.0-1.0-380.0","0","0","65136","","null","","","null","42","","","","","","","","","","","","","","","",""
"","ISI","","html-keyboard-response","285","423743","0.0-1.0-381.0","0","0","65136","","null","","","null","42","NaN","","","","","","","","","","","","","","",""
"","S2","","html-keyboard-response","286","423994","0.0-1.0-382.0","0","0","65136","","null","","","null","42","","NaN","","","","","","","","","","","","","",""
"","response","","html-keyboard-response","287","425083","0.0-1.0-383.0-0.0","0","0","65136","","1088","","","68","42","","","1","42","training","adjacent","BC","2","3","L.jpg","R.jpg","1","1","1","",""
"","feedback","","html-keyboard-response","288","426086","0.0-1.0-384.0-0.0","0","0","65136","","null","","","null","42","","","","","","","","","","","","","","","",""
"","ITI","","html-keyboard-response","289","427089","0.0-1.0-387.0","0","0","65136","","null","","","null","42","","","","","","","","","","","","","","","NaN",""
"","S1","","html-keyboard-response","290","427344","0.0-1.0-389.0","0","0","65136","","null","","","null","43","","","","","","","","","","","","","","","",""
"","ISI","","html-keyboard-response","291","428347","0.0-1.0-390.0","0","0","65136","","null","","","null","43","NaN","","","","","","","","","","","","","","",""
"","S2","","html-keyboard-response","292","428599","0.0-1.0-391.0","0","0","65136","","null","","","null","43","","NaN","","","","","","","","","","","","","",""
"","response","","html-keyboard-response","293","429238","0.0-1.0-392.0-0.0","0","0","65136","","638","","","68","43","","","1","43","training","adjacent","BC","2","3","L.jpg","R.jpg","1","1","1","",""
"","feedback","","html-keyboard-response","294","430242","0.0-1.0-393.0-0.0","0","0","65136","","null","","","null","43","","","","","","","","","","","","","","","",""
"","ITI","","html-keyboard-response","295","431245","0.0-1.0-396.0","0","0","65136","","null","","","null","43","","","","","","","","","","","","","","","NaN",""
"","S1","","html-keyboard-response","296","431497","0.0-1.0-398.0","0","0","65136","","null","","","null","44","","","","","","","","","","","","","","","",""
"","ISI","","html-keyboard-response","297","432501","0.0-1.0-399.0","0","0","65136","","null","","","null","44","NaN","","","","","","","","","","","","","","",""
"","S2","","html-keyboard-response","298","432753","0.0-1.0-400.0","0","0","65136","","null","","","null","44","","NaN","","","","","","","","","","","","","",""
"","response","","html-keyboard-response","299","433480","0.0-1.0-401.0-0.0","0","0","65136","","725","","","68","44","","","1","44","training","adjacent","FG","6","7","N.jpg","Q.jpg","1","1","1","",""
"","feedback","","html-keyboard-response","300","434484","0.0-1.0-402.0-0.0","0","0","65136","","null","","","null","44","","","","","","","","","","","","","","","",""
"","ITI","","html-keyboard-response","301","435487","0.0-1.0-405.0","0","0","65136","","null","","","null","44","","","","","","","","","","","","","","","NaN",""
"","S1","","html-keyboard-response","302","435741","0.0-1.0-407.0","0","0","65136","","null","","","null","45","","","","","","","","","","","","","","","",""
"","ISI","","html-keyboard-response","303","436744","0.0-1.0-408.0","0","0","65136","","null","","","null","45","NaN","","","","","","","","","","","","","","",""
"","S2","","html-keyboard-response","304","436996","0.0-1.0-409.0","0","0","65136","","null","","","null","45","","NaN","","","","","","","","","","","","","",""
"","response","","html-keyboard-response","305","437477","0.0-1.0-410.0-0.0","0","0","65136","","480","","","68","45","","","1","45","training","adjacent","FE","6","5","N.jpg","P.jpg","1","0","0","",""
"","feedback","","html-keyboard-response","306","438479","0.0-1.0-411.0-0.0","0","0","65136","","null","","","null","45","","","","","","","","","","","","","","","",""
"","time_out","","html-keyboard-response","307","440481","0.0-1.0-413.0-0.0","0","0","65136","","null","","","null","45","","","","","","","","","","","","","","","",""
"","ITI","","html-keyboard-response","308","441483","0.0-1.0-414.0","0","0","65136","","null","","","null","45","","","","","","","","","","","","","","","NaN",""
"","S1","","html-keyboard-response","309","441735","0.0-1.0-416.0","0","0","65136","","null","","","null","46","","","","","","","","","","","","","","","",""
"","ISI","","html-keyboard-response","310","442737","0.0-1.0-417.0","0","0","65136","","null","","","null","46","NaN","","","","","","","","","","","","","","",""
"","S2","","html-keyboard-response","311","442990","0.0-1.0-418.0","0","0","65136","","null","","","null","46","","NaN","","","","","","","","","","","","","",""
"","response","","html-keyboard-response","312","443606","0.0-1.0-419.0-0.0","0","0","65136","","615","","","68","46","","","1","46","training","adjacent","DC","4","3","M.jpg","R.jpg","1","0","0","",""
"","feedback","","html-keyboard-response","313","444608","0.0-1.0-420.0-0.0","0","0","65136","","null","","","null","46","","","","","","","","","","","","","","","",""
"","time_out","","html-keyboard-response","314","446611","0.0-1.0-422.0-0.0","0","0","65136","","null","","","null","46","","","","","","","","","","","","","","","",""
"","ITI","","html-keyboard-response","315","447612","0.0-1.0-423.0","0","0","65136","","null","","","null","46","","","","","","","","","","","","","","","NaN",""
"","S1","","html-keyboard-response","316","447865","0.0-1.0-425.0","0","0","65136","","null","","","null","47","","","","","","","","","","","","","","","",""
"","ISI","","html-keyboard-response","317","448867","0.0-1.0-426.0","0","0","65136","","null","","","null","47","NaN","","","","","","","","","","","","","","",""
"","S2","","html-keyboard-response","318","449119","0.0-1.0-427.0","0","0","65136","","null","","","null","47","","NaN","","","","","","","","","","","","","",""
"","response","","html-keyboard-response","319","449526","0.0-1.0-428.0-0.0","0","0","65136","","406","","","68","47","","","1","47","training","adjacent","BA","2","1","L.jpg","O.jpg","1","0","0","",""
"","feedback","","html-keyboard-response","320","450529","0.0-1.0-429.0-0.0","0","0","65136","","null","","","null","47","","","","","","","","","","","","","","","",""
"","time_out","","html-keyboard-response","321","452532","0.0-1.0-431.0-0.0","0","0","65136","","null","","","null","47","","","","","","","","","","","","","","","",""
"","ITI","","html-keyboard-response","322","453534","0.0-1.0-432.0","0","0","65136","","null","","","null","47","","","","","","","","","","","","","","","NaN",""
"","block_over","","html-keyboard-response","323","464718","0.0-1.0-433.0-0.0","0","0","65136","","11183","","","32","47","","","","","","","","","","","","","","","",""
"","S1","","html-keyboard-response","324","464977","0.0-1.0-434.0","0","0","65136","","null","","","null","48","","","","","","","","","","","","","","","",""
"","ISI","","html-keyboard-response","325","465980","0.0-1.0-435.0","0","0","65136","","null","","","null","48","NaN","","","","","","","","","","","","","","",""
"","S2","","html-keyboard-response","326","466232","0.0-1.0-436.0","0","0","65136","","null","","","null","48","","NaN","","","","","","","","","","","","","",""
"","response","","html-keyboard-response","327","466979","0.0-1.0-437.0-0.0","0","0","65136","","745","","","75","48","","","2","48","training","adjacent","DE","4","5","M.jpg","P.jpg","0","1","0","",""
"","feedback","","html-keyboard-response","328","467981","0.0-1.0-438.0-0.0","0","0","65136","","null","","","null","48","","","","","","","","","","","","","","","",""
"","time_out","","html-keyboard-response","329","469983","0.0-1.0-440.0-0.0","0","0","65136","","null","","","null","48","","","","","","","","","","","","","","","",""
"","ITI","","html-keyboard-response","330","470986","0.0-1.0-441.0","0","0","65136","","null","","","null","48","","","","","","","","","","","","","","","NaN",""
"","S1","","html-keyboard-response","331","471238","0.0-1.0-443.0","0","0","65136","","null","","","null","49","","","","","","","","","","","","","","","",""
"","ISI","","html-keyboard-response","332","472247","0.0-1.0-444.0","0","0","65136","","null","","","null","49","NaN","","","","","","","","","","","","","","",""
"","S2","","html-keyboard-response","333","472508","0.0-1.0-445.0","0","0","65136","","null","","","null","49","","NaN","","","","","","","","","","","","","",""
"","response","","html-keyboard-response","334","472964","0.0-1.0-446.0-0.0","0","0","65136","","455","","","75","49","","","2","49","training","adjacent","CB","3","2","R.jpg","L.jpg","0","0","1","",""
"","feedback","","html-keyboard-response","335","473966","0.0-1.0-447.0-0.0","0","0","65136","","null","","","null","49","","","","","","","","","","","","","","","",""
"","ITI","","html-keyboard-response","336","474969","0.0-1.0-450.0","0","0","65136","","null","","","null","49","","","","","","","","","","","","","","","NaN",""
"","S1","","html-keyboard-response","337","475223","0.0-1.0-452.0","0","0","65136","","null","","","null","50","","","","","","","","","","","","","","","",""
"","ISI","","html-keyboard-response","338","476225","0.0-1.0-453.0","0","0","65136","","null","","","null","50","NaN","","","","","","","","","","","","","","",""
"","S2","","html-keyboard-response","339","476477","0.0-1.0-454.0","0","0","65136","","null","","","null","50","","NaN","","","","","","","","","","","","","",""
"","response","","html-keyboard-response","340","476997","0.0-1.0-455.0-0.0","0","0","65136","","518","","","75","50","","","2","50","training","adjacent","GF","7","6","Q.jpg","N.jpg","0","0","1","",""
"","feedback","","html-keyboard-response","341","477999","0.0-1.0-456.0-0.0","0","0","65136","","null","","","null","50","","","","","","","","","","","","","","","",""
"","ITI","","html-keyboard-response","342","479001","0.0-1.0-459.0","0","0","65136","","null","","","null","50","","","","","","","","","","","","","","","NaN",""
"","S1","","html-keyboard-response","343","479253","0.0-1.0-461.0","0","0","65136","","null","","","null","51","","","","","","","","","","","","","","","",""
"","ISI","","html-keyboard-response","344","480256","0.0-1.0-462.0","0","0","65136","","null","","","null","51","NaN","","","","","","","","","","","","","","",""
"","S2","","html-keyboard-response","345","480515","0.0-1.0-463.0","0","0","65136","","null","","","null","51","","NaN","","","","","","","","","","","","","",""
"","response","","html-keyboard-response","346","481051","0.0-1.0-464.0-0.0","0","0","65136","","535","","","68","51","","","2","51","training","adjacent","FG","6","7","N.jpg","Q.jpg","1","1","1","",""
"","feedback","","html-keyboard-response","347","482054","0.0-1.0-465.0-0.0","0","0","65136","","null","","","null","51","","","","","","","","","","","","","","","",""
"","ITI","","html-keyboard-response","348","483057","0.0-1.0-468.0","0","0","65136","","null","","","null","51","","","","","","","","","","","","","","","NaN",""
"","S1","","html-keyboard-response","349","483321","0.0-1.0-470.0","0","0","65136","","null","","","null","52","","","","","","","","","","","","","","","",""
"","ISI","","html-keyboard-response","350","484324","0.0-1.0-471.0","0","0","65136","","null","","","null","52","NaN","","","","","","","","","","","","","","",""
"","S2","","html-keyboard-response","351","484576","0.0-1.0-472.0","0","0","65136","","null","","","null","52","","NaN","","","","","","","","","","","","","",""
"","response","","html-keyboard-response","352","485132","0.0-1.0-473.0-0.0","0","0","65136","","553","","","75","52","","","2","52","training","adjacent","BC","2","3","L.jpg","R.jpg","0","1","0","",""
"","feedback","","html-keyboard-response","353","486134","0.0-1.0-474.0-0.0","0","0","65136","","null","","","null","52","","","","","","","","","","","","","","","",""
"","time_out","","html-keyboard-response","354","488136","0.0-1.0-476.0-0.0","0","0","65136","","null","","","null","52","","","","","","","","","","","","","","","",""
"","ITI","","html-keyboard-response","355","489152","0.0-1.0-477.0","0","0","65136","","null","","","null","52","","","","","","","","","","","","","","","NaN",""
"","S1","","html-keyboard-response","356","489404","0.0-1.0-479.0","0","0","65136","","null","","","null","53","","","","","","","","","","","","","","","",""
"","ISI","","html-keyboard-response","357","490407","0.0-1.0-480.0","0","0","65136","","null","","","null","53","NaN","","","","","","","","","","","","","","",""
"","S2","","html-keyboard-response","358","490666","0.0-1.0-481.0","0","0","65136","","null","","","null","53","","NaN","","","","","","","","","","","","","",""
"","response","","html-keyboard-response","359","491126","0.0-1.0-482.0-0.0","0","0","65136","","459","","","75","53","","","2","53","training","adjacent","CD","3","4","R.jpg","M.jpg","0","1","0","",""
"","feedback","","html-keyboard-response","360","492128","0.0-1.0-483.0-0.0","0","0","65136","","null","","","null","53","","","","","","","","","","","","","","","",""
"","time_out","","html-keyboard-response","361","494131","0.0-1.0-485.0-0.0","0","0","65136","","null","","","null","53","","","","","","","","","","","","","","","",""
"","ITI","","html-keyboard-response","362","495134","0.0-1.0-486.0","0","0","65136","","null","","","null","53","","","","","","","","","","","","","","","NaN",""
"","S1","","html-keyboard-response","363","495388","0.0-1.0-488.0","0","0","65136","","null","","","null","54","","","","","","","","","","","","","","","",""
"","ISI","","html-keyboard-response","364","496390","0.0-1.0-489.0","0","0","65136","","null","","","null","54","NaN","","","","","","","","","","","","","","",""
"","S2","","html-keyboard-response","365","496642","0.0-1.0-490.0","0","0","65136","","null","","","null","54","","NaN","","","","","","","","","","","","","",""
"","response","","html-keyboard-response","366","497020","0.0-1.0-491.0-0.0","0","0","65136","","376","","","68","54","","","2","54","training","adjacent","BC","2","3","L.jpg","R.jpg","1","1","1","",""
"","feedback","","html-keyboard-response","367","498021","0.0-1.0-492.0-0.0","0","0","65136","","null","","","null","54","","","","","","","","","","","","","","","",""
"","ITI","","html-keyboard-response","368","499023","0.0-1.0-495.0","0","0","65136","","null","","","null","54","","","","","","","","","","","","","","","NaN",""
"","S1","","html-keyboard-response","369","499276","0.0-1.0-497.0","0","0","65136","","null","","","null","55","","","","","","","","","","","","","","","",""
"","ISI","","html-keyboard-response","370","500278","0.0-1.0-498.0","0","0","65136","","null","","","null","55","NaN","","","","","","","","","","","","","","",""
"","S2","","html-keyboard-response","371","500531","0.0-1.0-499.0","0","0","65136","","null","","","null","55","","NaN","","","","","","","","","","","","","",""
"","response","","html-keyboard-response","372","501019","0.0-1.0-500.0-0.0","0","0","65136","","487","","","68","55","","","2","55","training","adjacent","FG","6","7","N.jpg","Q.jpg","1","1","1","",""
"","feedback","","html-keyboard-response","373","502023","0.0-1.0-501.0-0.0","0","0","65136","","null","","","null","55","","","","","","","","","","","","","","","",""
"","ITI","","html-keyboard-response","374","503028","0.0-1.0-504.0","0","0","65136","","null","","","null","55","","","","","","","","","","","","","","","NaN",""
"","S1","","html-keyboard-response","375","503281","0.0-1.0-506.0","0","0","65136","","null","","","null","56","","","","","","","","","","","","","","","",""
"","ISI","","html-keyboard-response","376","504283","0.0-1.0-507.0","0","0","65136","","null","","","null","56","NaN","","","","","","","","","","","","","","",""
"","S2","","html-keyboard-response","377","504535","0.0-1.0-508.0","0","0","65136","","null","","","null","56","","NaN","","","","","","","","","","","","","",""
"","response","","html-keyboard-response","378","505095","0.0-1.0-509.0-0.0","0","0","65136","","559","","","68","56","","","2","56","training","adjacent","DC","4","3","M.jpg","R.jpg","1","0","0","",""
"","feedback","","html-keyboard-response","379","506098","0.0-1.0-510.0-0.0","0","0","65136","","null","","","null","56","","","","","","","","","","","","","","","",""
"","time_out","","html-keyboard-response","380","508100","0.0-1.0-512.0-0.0","0","0","65136","","null","","","null","56","","","","","","","","","","","","","","","",""
"","ITI","","html-keyboard-response","381","509102","0.0-1.0-513.0","0","0","65136","","null","","","null","56","","","","","","","","","","","","","","","NaN",""
"","S1","","html-keyboard-response","382","509354","0.0-1.0-515.0","0","0","65136","","null","","","null","57","","","","","","","","","","","","","","","",""
"","ISI","","html-keyboard-response","383","510357","0.0-1.0-516.0","0","0","65136","","null","","","null","57","NaN","","","","","","","","","","","","","","",""
"","S2","","html-keyboard-response","384","510610","0.0-1.0-517.0","0","0","65136","","null","","","null","57","","NaN","","","","","","","","","","","","","",""
"","response","","html-keyboard-response","385","511038","0.0-1.0-518.0-0.0","0","0","65136","","427","","","75","57","","","2","57","training","adjacent","GF","7","6","Q.jpg","N.jpg","0","0","1","",""
"","feedback","","html-keyboard-response","386","512041","0.0-1.0-519.0-0.0","0","0","65136","","null","","","null","57","","","","","","","","","","","","","","","",""
"","ITI","","html-keyboard-response","387","513043","0.0-1.0-522.0","0","0","65136","","null","","","null","57","","","","","","","","","","","","","","","NaN",""
"","S1","","html-keyboard-response","388","513295","0.0-1.0-524.0","0","0","65136","","null","","","null","58","","","","","","","","","","","","","","","",""
"","ISI","","html-keyboard-response","389","514297","0.0-1.0-525.0","0","0","65136","","null","","","null","58","NaN","","","","","","","","","","","","","","",""
"","S2","","html-keyboard-response","390","514550","0.0-1.0-526.0","0","0","65136","","null","","","null","58","","NaN","","","","","","","","","","","","","",""
"","response","","html-keyboard-response","391","515510","0.0-1.0-527.0-0.0","0","0","65136","","958","","","68","58","","","2","58","training","adjacent","DC","4","3","M.jpg","R.jpg","1","0","0","",""
"","feedback","","html-keyboard-response","392","516512","0.0-1.0-528.0-0.0","0","0","65136","","null","","","null","58","","","","","","","","","","","","","","","",""
"","time_out","","html-keyboard-response","393","518514","0.0-1.0-530.0-0.0","0","0","65136","","null","","","null","58","","","","","","","","","","","","","","","",""
"","ITI","","html-keyboard-response","394","519516","0.0-1.0-531.0","0","0","65136","","null","","","null","58","","","","","","","","","","","","","","","NaN",""
"","S1","","html-keyboard-response","395","519768","0.0-1.0-533.0","0","0","65136","","null","","","null","59","","","","","","","","","","","","","","","",""
"","ISI","","html-keyboard-response","396","520770","0.0-1.0-534.0","0","0","65136","","null","","","null","59","NaN","","","","","","","","","","","","","","",""
"","S2","","html-keyboard-response","397","521023","0.0-1.0-535.0","0","0","65136","","null","","","null","59","","NaN","","","","","","","","","","","","","",""
"","response","","html-keyboard-response","398","521622","0.0-1.0-536.0-0.0","0","0","65136","","597","","","75","59","","","2","59","training","adjacent","EF","5","6","P.jpg","N.jpg","0","1","0","",""
"","feedback","","html-keyboard-response","399","522624","0.0-1.0-537.0-0.0","0","0","65136","","null","","","null","59","","","","","","","","","","","","","","","",""
"","time_out","","html-keyboard-response","400","524626","0.0-1.0-539.0-0.0","0","0","65136","","null","","","null","59","","","","","","","","","","","","","","","",""
"","ITI","","html-keyboard-response","401","525629","0.0-1.0-540.0","0","0","65136","","null","","","null","59","","","","","","","","","","","","","","","NaN",""
"","S1","","html-keyboard-response","402","525881","0.0-1.0-542.0","0","0","65136","","null","","","null","60","","","","","","","","","","","","","","","",""
"","ISI","","html-keyboard-response","403","526883","0.0-1.0-543.0","0","0","65136","","null","","","null","60","NaN","","","","","","","","","","","","","","",""
"","S2","","html-keyboard-response","404","527136","0.0-1.0-544.0","0","0","65136","","null","","","null","60","","NaN","","","","","","","","","","","","","",""
"","response","","html-keyboard-response","405","527754","0.0-1.0-545.0-0.0","0","0","65136","","616","","","68","60","","","2","60","training","adjacent","CD","3","4","R.jpg","M.jpg","1","1","1","",""
"","feedback","","html-keyboard-response","406","528756","0.0-1.0-546.0-0.0","0","0","65136","","null","","","null","60","","","","","","","","","","","","","","","",""
"","ITI","","html-keyboard-response","407","529759","0.0-1.0-549.0","0","0","65136","","null","","","null","60","","","","","","","","","","","","","","","NaN",""
"","S1","","html-keyboard-response","408","530012","0.0-1.0-551.0","0","0","65136","","null","","","null","61","","","","","","","","","","","","","","","",""
"","ISI","","html-keyboard-response","409","531015","0.0-1.0-552.0","0","0","65136","","null","","","null","61","NaN","","","","","","","","","","","","","","",""
"","S2","","html-keyboard-response","410","531267","0.0-1.0-553.0","0","0","65136","","null","","","null","61","","NaN","","","","","","","","","","","","","",""
"","response","","html-keyboard-response","411","532107","0.0-1.0-554.0-0.0","0","0","65136","","838","","","68","61","","","2","61","training","adjacent","ED","5","4","P.jpg","M.jpg","1","0","0","",""
"","feedback","","html-keyboard-response","412","533110","0.0-1.0-555.0-0.0","0","0","65136","","null","","","null","61","","","","","","","","","","","","","","","",""
"","time_out","","html-keyboard-response","413","535112","0.0-1.0-557.0-0.0","0","0","65136","","null","","","null","61","","","","","","","","","","","","","","","",""
"","ITI","","html-keyboard-response","414","536115","0.0-1.0-558.0","0","0","65136","","null","","","null","61","","","","","","","","","","","","","","","NaN",""
"","S1","","html-keyboard-response","415","536367","0.0-1.0-560.0","0","0","65136","","null","","","null","62","","","","","","","","","","","","","","","",""
"","ISI","","html-keyboard-response","416","537370","0.0-1.0-561.0","0","0","65136","","null","","","null","62","NaN","","","","","","","","","","","","","","",""
"","S2","","html-keyboard-response","417","537622","0.0-1.0-562.0","0","0","65136","","null","","","null","62","","NaN","","","","","","","","","","","","","",""
"","response","","html-keyboard-response","418","538181","0.0-1.0-563.0-0.0","0","0","65136","","558","","","75","62","","","2","62","training","adjacent","CB","3","2","R.jpg","L.jpg","0","0","1","",""
"","feedback","","html-keyboard-response","419","539184","0.0-1.0-564.0-0.0","0","0","65136","","null","","","null","62","","","","","","","","","","","","","","","",""
"","ITI","","html-keyboard-response","420","540187","0.0-1.0-567.0","0","0","65136","","null","","","null","62","","","","","","","","","","","","","","","NaN",""
"","S1","","html-keyboard-response","421","540441","0.0-1.0-569.0","0","0","65136","","null","","","null","63","","","","","","","","","","","","","","","",""
"","ISI","","html-keyboard-response","422","541444","0.0-1.0-570.0","0","0","65136","","null","","","null","63","NaN","","","","","","","","","","","","","","",""
"","S2","","html-keyboard-response","423","541697","0.0-1.0-571.0","0","0","65136","","null","","","null","63","","NaN","","","","","","","","","","","","","",""
"","response","","html-keyboard-response","424","542187","0.0-1.0-572.0-0.0","0","0","65136","","489","","","68","63","","","2","63","training","adjacent","BA","2","1","L.jpg","O.jpg","1","0","0","",""
"","feedback","","html-keyboard-response","425","543190","0.0-1.0-573.0-0.0","0","0","65136","","null","","","null","63","","","","","","","","","","","","","","","",""
"","time_out","","html-keyboard-response","426","545193","0.0-1.0-575.0-0.0","0","0","65136","","null","","","null","63","","","","","","","","","","","","","","","",""
"","ITI","","html-keyboard-response","427","546196","0.0-1.0-576.0","0","0","65136","","null","","","null","63","","","","","","","","","","","","","","","NaN",""
"","S1","","html-keyboard-response","428","546450","0.0-1.0-578.0","0","0","65136","","null","","","null","64","","","","","","","","","","","","","","","",""
"","ISI","","html-keyboard-response","429","547453","0.0-1.0-579.0","0","0","65136","","null","","","null","64","NaN","","","","","","","","","","","","","","",""
"","S2","","html-keyboard-response","430","547705","0.0-1.0-580.0","0","0","65136","","null","","","null","64","","NaN","","","","","","","","","","","","","",""
"","response","","html-keyboard-response","431","548107","0.0-1.0-581.0-0.0","0","0","65136","","401","","","75","64","","","2","64","training","adjacent","AB","1","2","O.jpg","L.jpg","0","1","0","",""
"","feedback","","html-keyboard-response","432","549122","0.0-1.0-582.0-0.0","0","0","65136","","null","","","null","64","","","","","","","","","","","","","","","",""
"","time_out","","html-keyboard-response","433","551123","0.0-1.0-584.0-0.0","0","0","65136","","null","","","null","64","","","","","","","","","","","","","","","",""
"","ITI","","html-keyboard-response","434","552125","0.0-1.0-585.0","0","0","65136","","null","","","null","64","","","","","","","","","","","","","","","NaN",""
"","S1","","html-keyboard-response","435","552379","0.0-1.0-587.0","0","0","65136","","null","","","null","65","","","","","","","","","","","","","","","",""
"","ISI","","html-keyboard-response","436","553382","0.0-1.0-588.0","0","0","65136","","null","","","null","65","NaN","","","","","","","","","","","","","","",""
"","S2","","html-keyboard-response","437","553634","0.0-1.0-589.0","0","0","65136","","null","","","null","65","","NaN","","","","","","","","","","","","","",""
"","response","","html-keyboard-response","438","554062","0.0-1.0-590.0-0.0","0","0","65136","","426","","","75","65","","","2","65","training","adjacent","BA","2","1","L.jpg","O.jpg","0","0","1","",""
"","feedback","","html-keyboard-response","439","555064","0.0-1.0-591.0-0.0","0","0","65136","","null","","","null","65","","","","","","","","","","","","","","","",""
"","ITI","","html-keyboard-response","440","556067","0.0-1.0-594.0","0","0","65136","","null","","","null","65","","","","","","","","","","","","","","","NaN",""
"","S1","","html-keyboard-response","441","556320","0.0-1.0-596.0","0","0","65136","","null","","","null","66","","","","","","","","","","","","","","","",""
"","ISI","","html-keyboard-response","442","557327","0.0-1.0-597.0","0","0","65136","","null","","","null","66","NaN","","","","","","","","","","","","","","",""
"","S2","","html-keyboard-response","443","557579","0.0-1.0-598.0","0","0","65136","","null","","","null","66","","NaN","","","","","","","","","","","","","",""
"","response","","html-keyboard-response","444","558308","0.0-1.0-599.0-0.0","0","0","65136","","728","","","75","66","","","2","66","training","adjacent","DC","4","3","M.jpg","R.jpg","0","0","1","",""
"","feedback","","html-keyboard-response","445","559311","0.0-1.0-600.0-0.0","0","0","65136","","null","","","null","66","","","","","","","","","","","","","","","",""
"","ITI","","html-keyboard-response","446","560313","0.0-1.0-603.0","0","0","65136","","null","","","null","66","","","","","","","","","","","","","","","NaN",""
"","S1","","html-keyboard-response","447","560565","0.0-1.0-605.0","0","0","65136","","null","","","null","67","","","","","","","","","","","","","","","",""
"","ISI","","html-keyboard-response","448","561569","0.0-1.0-606.0","0","0","65136","","null","","","null","67","NaN","","","","","","","","","","","","","","",""
"","S2","","html-keyboard-response","449","561823","0.0-1.0-607.0","0","0","65136","","null","","","null","67","","NaN","","","","","","","","","","","","","",""
"","response","","html-keyboard-response","450","563235","0.0-1.0-608.0-0.0","0","0","65136","","1411","","","75","67","","","2","67","training","adjacent","FE","6","5","N.jpg","P.jpg","0","0","1","",""
"","feedback","","html-keyboard-response","451","564238","0.0-1.0-609.0-0.0","0","0","65136","","null","","","null","67","","","","","","","","","","","","","","","",""
"","ITI","","html-keyboard-response","452","565240","0.0-1.0-612.0","0","0","65136","","null","","","null","67","","","","","","","","","","","","","","","NaN",""
"","S1","","html-keyboard-response","453","565492","0.0-1.0-614.0","0","0","65136","","null","","","null","68","","","","","","","","","","","","","","","",""
"","ISI","","html-keyboard-response","454","566495","0.0-1.0-615.0","0","0","65136","","null","","","null","68","NaN","","","","","","","","","","","","","","",""
"","S2","","html-keyboard-response","455","566748","0.0-1.0-616.0","0","0","65136","","null","","","null","68","","NaN","","","","","","","","","","","","","",""
"","response","","html-keyboard-response","456","567207","0.0-1.0-617.0-0.0","0","0","65136","","457","","","68","68","","","2","68","training","adjacent","BC","2","3","L.jpg","R.jpg","1","1","1","",""
"","feedback","","html-keyboard-response","457","568208","0.0-1.0-618.0-0.0","0","0","65136","","null","","","null","68","","","","","","","","","","","","","","","",""
"","ITI","","html-keyboard-response","458","569211","0.0-1.0-621.0","0","0","65136","","null","","","null","68","","","","","","","","","","","","","","","NaN",""
"","S1","","html-keyboard-response","459","569463","0.0-1.0-623.0","0","0","65136","","null","","","null","69","","","","","","","","","","","","","","","",""
"","ISI","","html-keyboard-response","460","570466","0.0-1.0-624.0","0","0","65136","","null","","","null","69","NaN","","","","","","","","","","","","","","",""
"","S2","","html-keyboard-response","461","570718","0.0-1.0-625.0","0","0","65136","","null","","","null","69","","NaN","","","","","","","","","","","","","",""
"","response","","html-keyboard-response","462","571317","0.0-1.0-626.0-0.0","0","0","65136","","598","","","68","69","","","2","69","training","adjacent","FG","6","7","N.jpg","Q.jpg","1","1","1","",""
"","feedback","","html-keyboard-response","463","572319","0.0-1.0-627.0-0.0","0","0","65136","","null","","","null","69","","","","","","","","","","","","","","","",""
"","ITI","","html-keyboard-response","464","573321","0.0-1.0-630.0","0","0","65136","","null","","","null","69","","","","","","","","","","","","","","","NaN",""
"","S1","","html-keyboard-response","465","573573","0.0-1.0-632.0","0","0","65136","","null","","","null","70","","","","","","","","","","","","","","","",""
"","ISI","","html-keyboard-response","466","574576","0.0-1.0-633.0","0","0","65136","","null","","","null","70","NaN","","","","","","","","","","","","","","",""
"","S2","","html-keyboard-response","467","574829","0.0-1.0-634.0","0","0","65136","","null","","","null","70","","NaN","","","","","","","","","","","","","",""
"","response","","html-keyboard-response","468","575827","0.0-1.0-635.0-0.0","0","0","65136","","996","","","75","70","","","2","70","training","adjacent","CD","3","4","R.jpg","M.jpg","0","1","0","",""
"","feedback","","html-keyboard-response","469","576830","0.0-1.0-636.0-0.0","0","0","65136","","null","","","null","70","","","","","","","","","","","","","","","",""
"","time_out","","html-keyboard-response","470","578836","0.0-1.0-638.0-0.0","0","0","65136","","null","","","null","70","","","","","","","","","","","","","","","",""
"","ITI","","html-keyboard-response","471","579840","0.0-1.0-639.0","0","0","65136","","null","","","null","70","","","","","","","","","","","","","","","NaN",""
"","S1","","html-keyboard-response","472","580106","0.0-1.0-641.0","0","0","65136","","null","","","null","71","","","","","","","","","","","","","","","",""
"","ISI","","html-keyboard-response","473","581108","0.0-1.0-642.0","0","0","65136","","null","","","null","71","NaN","","","","","","","","","","","","","","",""
"","S2","","html-keyboard-response","474","581361","0.0-1.0-643.0","0","0","65136","","null","","","null","71","","NaN","","","","","","","","","","","","","",""
"","response","","html-keyboard-response","475","582182","0.0-1.0-644.0-0.0","0","0","65136","","820","","","68","71","","","2","71","training","adjacent","EF","5","6","P.jpg","N.jpg","1","1","1","",""
"","feedback","","html-keyboard-response","476","583185","0.0-1.0-645.0-0.0","0","0","65136","","null","","","null","71","","","","","","","","","","","","","","","",""
"","ITI","","html-keyboard-response","477","584196","0.0-1.0-648.0","0","0","65136","","null","","","null","71","","","","","","","","","","","","","","","NaN",""
"","S1","","html-keyboard-response","478","584461","0.0-1.0-650.0","0","0","65136","","null","","","null","72","","","","","","","","","","","","","","","",""
"","ISI","","html-keyboard-response","479","585464","0.0-1.0-651.0","0","0","65136","","null","","","null","72","NaN","","","","","","","","","","","","","","",""
"","S2","","html-keyboard-response","480","585716","0.0-1.0-652.0","0","0","65136","","null","","","null","72","","NaN","","","","","","","","","","","","","",""
"","response","","html-keyboard-response","481","586158","0.0-1.0-653.0-0.0","0","0","65136","","441","","","68","72","","","2","72","training","adjacent","FE","6","5","N.jpg","P.jpg","1","0","0","",""
"","feedback","","html-keyboard-response","482","587163","0.0-1.0-654.0-0.0","0","0","65136","","null","","","null","72","","","","","","","","","","","","","","","",""
"","time_out","","html-keyboard-response","483","589166","0.0-1.0-656.0-0.0","0","0","65136","","null","","","null","72","","","","","","","","","","","","","","","",""
"","ITI","","html-keyboard-response","484","590169","0.0-1.0-657.0","0","0","65136","","null","","","null","72","","","","","","","","","","","","","","","NaN",""
"","S1","","html-keyboard-response","485","590421","0.0-1.0-659.0","0","0","65136","","null","","","null","73","","","","","","","","","","","","","","","",""
"","ISI","","html-keyboard-response","486","591423","0.0-1.0-660.0","0","0","65136","","null","","","null","73","NaN","","","","","","","","","","","","","","",""
"","S2","","html-keyboard-response","487","591675","0.0-1.0-661.0","0","0","65136","","null","","","null","73","","NaN","","","","","","","","","","","","","",""
"","response","","html-keyboard-response","488","592116","0.0-1.0-662.0-0.0","0","0","65136","","439","","","68","73","","","2","73","training","adjacent","AB","1","2","O.jpg","L.jpg","1","1","1","",""
"","feedback","","html-keyboard-response","489","593119","0.0-1.0-663.0-0.0","0","0","65136","","null","","","null","73","","","","","","","","","","","","","","","",""
"","ITI","","html-keyboard-response","490","594122","0.0-1.0-666.0","0","0","65136","","null","","","null","73","","","","","","","","","","","","","","","NaN",""
"","S1","","html-keyboard-response","491","594374","0.0-1.0-668.0","0","0","65136","","null","","","null","74","","","","","","","","","","","","","","","",""
"","ISI","","html-keyboard-response","492","595376","0.0-1.0-669.0","0","0","65136","","null","","","null","74","NaN","","","","","","","","","","","","","","",""
"","S2","","html-keyboard-response","493","595628","0.0-1.0-670.0","0","0","65136","","null","","","null","74","","NaN","","","","","","","","","","","","","",""
"","response","","html-keyboard-response","494","596135","0.0-1.0-671.0-0.0","0","0","65136","","505","","","68","74","","","2","74","training","adjacent","AB","1","2","O.jpg","L.jpg","1","1","1","",""
"","feedback","","html-keyboard-response","495","597138","0.0-1.0-672.0-0.0","0","0","65136","","null","","","null","74","","","","","","","","","","","","","","","",""
"","ITI","","html-keyboard-response","496","598141","0.0-1.0-675.0","0","0","65136","","null","","","null","74","","","","","","","","","","","","","","","NaN",""
"","S1","","html-keyboard-response","497","598393","0.0-1.0-677.0","0","0","65136","","null","","","null","75","","","","","","","","","","","","","","","",""
"","ISI","","html-keyboard-response","498","599395","0.0-1.0-678.0","0","0","65136","","null","","","null","75","NaN","","","","","","","","","","","","","","",""
"","S2","","html-keyboard-response","499","599648","0.0-1.0-679.0","0","0","65136","","null","","","null","75","","NaN","","","","","","","","","","","","","",""
"","response","","html-keyboard-response","500","600491","0.0-1.0-680.0-0.0","0","0","65136","","841","","","68","75","","","2","75","training","adjacent","AB","1","2","O.jpg","L.jpg","1","1","1","",""
"","feedback","","html-keyboard-response","501","601493","0.0-1.0-681.0-0.0","0","0","65136","","null","","","null","75","","","","","","","","","","","","","","","",""
"","ITI","","html-keyboard-response","502","602496","0.0-1.0-684.0","0","0","65136","","null","","","null","75","","","","","","","","","","","","","","","NaN",""
"","S1","","html-keyboard-response","503","602748","0.0-1.0-686.0","0","0","65136","","null","","","null","76","","","","","","","","","","","","","","","",""
"","ISI","","html-keyboard-response","504","603750","0.0-1.0-687.0","0","0","65136","","null","","","null","76","NaN","","","","","","","","","","","","","","",""
"","S2","","html-keyboard-response","505","604003","0.0-1.0-688.0","0","0","65136","","null","","","null","76","","NaN","","","","","","","","","","","","","",""
"","response","","html-keyboard-response","506","604523","0.0-1.0-689.0-0.0","0","0","65136","","519","","","68","76","","","2","76","training","adjacent","ED","5","4","P.jpg","M.jpg","1","0","0","",""
"","feedback","","html-keyboard-response","507","605526","0.0-1.0-690.0-0.0","0","0","65136","","null","","","null","76","","","","","","","","","","","","","","","",""
"","time_out","","html-keyboard-response","508","607528","0.0-1.0-692.0-0.0","0","0","65136","","null","","","null","76","","","","","","","","","","","","","","","",""
"","ITI","","html-keyboard-response","509","608530","0.0-1.0-693.0","0","0","65136","","null","","","null","76","","","","","","","","","","","","","","","NaN",""
"","S1","","html-keyboard-response","510","608782","0.0-1.0-695.0","0","0","65136","","null","","","null","77","","","","","","","","","","","","","","","",""
"","ISI","","html-keyboard-response","511","609784","0.0-1.0-696.0","0","0","65136","","null","","","null","77","NaN","","","","","","","","","","","","","","",""
"","S2","","html-keyboard-response","512","610037","0.0-1.0-697.0","0","0","65136","","null","","","null","77","","NaN","","","","","","","","","","","","","",""
"","response","","html-keyboard-response","513","610693","0.0-1.0-698.0-0.0","0","0","65136","","655","","","75","77","","","2","77","training","adjacent","EF","5","6","P.jpg","N.jpg","0","1","0","",""
"","feedback","","html-keyboard-response","514","611696","0.0-1.0-699.0-0.0","0","0","65136","","null","","","null","77","","","","","","","","","","","","","","","",""
"","time_out","","html-keyboard-response","515","613699","0.0-1.0-701.0-0.0","0","0","65136","","null","","","null","77","","","","","","","","","","","","","","","",""
"","ITI","","html-keyboard-response","516","614701","0.0-1.0-702.0","0","0","65136","","null","","","null","77","","","","","","","","","","","","","","","NaN",""
"","S1","","html-keyboard-response","517","614953","0.0-1.0-704.0","0","0","65136","","null","","","null","78","","","","","","","","","","","","","","","",""
"","ISI","","html-keyboard-response","518","615955","0.0-1.0-705.0","0","0","65136","","null","","","null","78","NaN","","","","","","","","","","","","","","",""
"","S2","","html-keyboard-response","519","616209","0.0-1.0-706.0","0","0","65136","","null","","","null","78","","NaN","","","","","","","","","","","","","",""
"","response","","html-keyboard-response","520","616779","0.0-1.0-707.0-0.0","0","0","65136","","568","","","68","78","","","2","78","training","adjacent","BA","2","1","L.jpg","O.jpg","1","0","0","",""
"","feedback","","html-keyboard-response","521","617783","0.0-1.0-708.0-0.0","0","0","65136","","null","","","null","78","","","","","","","","","","","","","","","",""
"","time_out","","html-keyboard-response","522","619786","0.0-1.0-710.0-0.0","0","0","65136","","null","","","null","78","","","","","","","","","","","","","","","",""
"","ITI","","html-keyboard-response","523","620787","0.0-1.0-711.0","0","0","65136","","null","","","null","78","","","","","","","","","","","","","","","NaN",""
"","S1","","html-keyboard-response","524","621040","0.0-1.0-713.0","0","0","65136","","null","","","null","79","","","","","","","","","","","","","","","",""
"","ISI","","html-keyboard-response","525","622042","0.0-1.0-714.0","0","0","65136","","null","","","null","79","NaN","","","","","","","","","","","","","","",""
"","S2","","html-keyboard-response","526","622294","0.0-1.0-715.0","0","0","65136","","null","","","null","79","","NaN","","","","","","","","","","","","","",""
"","response","","html-keyboard-response","527","623177","0.0-1.0-716.0-0.0","0","0","65136","","881","","","75","79","","","2","79","training","adjacent","CB","3","2","R.jpg","L.jpg","0","0","1","",""
"","feedback","","html-keyboard-response","528","624180","0.0-1.0-717.0-0.0","0","0","65136","","null","","","null","79","","","","","","","","","","","","","","","",""
"","ITI","","html-keyboard-response","529","625182","0.0-1.0-720.0","0","0","65136","","null","","","null","79","","","","","","","","","","","","","","","NaN",""
"","S1","","html-keyboard-response","530","625434","0.0-1.0-722.0","0","0","65136","","null","","","null","80","","","","","","","","","","","","","","","",""
"","ISI","","html-keyboard-response","531","626436","0.0-1.0-723.0","0","0","65136","","null","","","null","80","NaN","","","","","","","","","","","","","","",""
"","S2","","html-keyboard-response","532","626701","0.0-1.0-724.0","0","0","65136","","null","","","null","80","","NaN","","","","","","","","","","","","","",""
"","response","","html-keyboard-response","533","627515","0.0-1.0-725.0-0.0","0","0","65136","","813","","","75","80","","","2","80","training","adjacent","GF","7","6","Q.jpg","N.jpg","0","0","1","",""
"","feedback","","html-keyboard-response","534","628518","0.0-1.0-726.0-0.0","0","0","65136","","null","","","null","80","","","","","","","","","","","","","","","",""
"","ITI","","html-keyboard-response","535","629520","0.0-1.0-729.0","0","0","65136","","null","","","null","80","","","","","","","","","","","","","","","NaN",""
"","S1","","html-keyboard-response","536","629773","0.0-1.0-731.0","0","0","65136","","null","","","null","81","","","","","","","","","","","","","","","",""
"","ISI","","html-keyboard-response","537","630775","0.0-1.0-732.0","0","0","65136","","null","","","null","81","NaN","","","","","","","","","","","","","","",""
"","S2","","html-keyboard-response","538","631026","0.0-1.0-733.0","0","0","65136","","null","","","null","81","","NaN","","","","","","","","","","","","","",""
"","response","","html-keyboard-response","539","631923","0.0-1.0-734.0-0.0","0","0","65136","","895","","","68","81","","","2","81","training","adjacent","CB","3","2","R.jpg","L.jpg","1","0","0","",""
"","feedback","","html-keyboard-response","540","632925","0.0-1.0-735.0-0.0","0","0","65136","","null","","","null","81","","","","","","","","","","","","","","","",""
"","time_out","","html-keyboard-response","541","634928","0.0-1.0-737.0-0.0","0","0","65136","","null","","","null","81","","","","","","","","","","","","","","","",""
"","ITI","","html-keyboard-response","542","635930","0.0-1.0-738.0","0","0","65136","","null","","","null","81","","","","","","","","","","","","","","","NaN",""
"","S1","","html-keyboard-response","543","636182","0.0-1.0-740.0","0","0","65136","","null","","","null","82","","","","","","","","","","","","","","","",""
"","ISI","","html-keyboard-response","544","637184","0.0-1.0-741.0","0","0","65136","","null","","","null","82","NaN","","","","","","","","","","","","","","",""
"","S2","","html-keyboard-response","545","637439","0.0-1.0-742.0","0","0","65136","","null","","","null","82","","NaN","","","","","","","","","","","","","",""
"","response","","html-keyboard-response","546","637670","0.0-1.0-743.0-0.0","0","0","65136","","230","","","68","82","","","2","82","training","adjacent","FE","6","5","N.jpg","P.jpg","1","0","0","",""
"","feedback","","html-keyboard-response","547","638673","0.0-1.0-744.0-0.0","0","0","65136","","null","","","null","82","","","","","","","","","","","","","","","",""
"","time_out","","html-keyboard-response","548","640675","0.0-1.0-746.0-0.0","0","0","65136","","null","","","null","82","","","","","","","","","","","","","","","",""
"","ITI","","html-keyboard-response","549","641677","0.0-1.0-747.0","0","0","65136","","null","","","null","82","","","","","","","","","","","","","","","NaN",""
"","S1","","html-keyboard-response","550","641929","0.0-1.0-749.0","0","0","65136","","null","","","null","83","","","","","","","","","","","","","","","",""
"","ISI","","html-keyboard-response","551","642931","0.0-1.0-750.0","0","0","65136","","null","","","null","83","NaN","","","","","","","","","","","","","","",""
"","S2","","html-keyboard-response","552","643185","0.0-1.0-751.0","0","0","65136","","null","","","null","83","","NaN","","","","","","","","","","","","","",""
"","response","","html-keyboard-response","553","643475","0.0-1.0-752.0-0.0","0","0","65136","","289","","","68","83","","","2","83","training","adjacent","BA","2","1","L.jpg","O.jpg","1","0","0","",""
"","feedback","","html-keyboard-response","554","644478","0.0-1.0-753.0-0.0","0","0","65136","","null","","","null","83","","","","","","","","","","","","","","","",""
"","time_out","","html-keyboard-response","555","646481","0.0-1.0-755.0-0.0","0","0","65136","","null","","","null","83","","","","","","","","","","","","","","","",""
"","ITI","","html-keyboard-response","556","647485","0.0-1.0-756.0","0","0","65136","","null","","","null","83","","","","","","","","","","","","","","","NaN",""
"","S1","","html-keyboard-response","557","647739","0.0-1.0-758.0","0","0","65136","","null","","","null","84","","","","","","","","","","","","","","","",""
"","ISI","","html-keyboard-response","558","648742","0.0-1.0-759.0","0","0","65136","","null","","","null","84","NaN","","","","","","","","","","","","","","",""
"","S2","","html-keyboard-response","559","648995","0.0-1.0-760.0","0","0","65136","","null","","","null","84","","NaN","","","","","","","","","","","","","",""
"","response","","html-keyboard-response","560","649847","0.0-1.0-761.0-0.0","0","0","65136","","851","","","75","84","","","2","84","training","adjacent","ED","5","4","P.jpg","M.jpg","0","0","1","",""
"","feedback","","html-keyboard-response","561","650850","0.0-1.0-762.0-0.0","0","0","65136","","null","","","null","84","","","","","","","","","","","","","","","",""
"","ITI","","html-keyboard-response","562","651852","0.0-1.0-765.0","0","0","65136","","null","","","null","84","","","","","","","","","","","","","","","NaN",""
"","S1","","html-keyboard-response","563","652105","0.0-1.0-767.0","0","0","65136","","null","","","null","85","","","","","","","","","","","","","","","",""
"","ISI","","html-keyboard-response","564","653117","0.0-1.0-768.0","0","0","65136","","null","","","null","85","NaN","","","","","","","","","","","","","","",""
"","S2","","html-keyboard-response","565","653370","0.0-1.0-769.0","0","0","65136","","null","","","null","85","","NaN","","","","","","","","","","","","","",""
"","response","","html-keyboard-response","566","653820","0.0-1.0-770.0-0.0","0","0","65136","","449","","","68","85","","","2","85","training","adjacent","DE","4","5","M.jpg","P.jpg","1","1","1","",""
"","feedback","","html-keyboard-response","567","654825","0.0-1.0-771.0-0.0","0","0","65136","","null","","","null","85","","","","","","","","","","","","","","","",""
"","ITI","","html-keyboard-response","568","655827","0.0-1.0-774.0","0","0","65136","","null","","","null","85","","","","","","","","","","","","","","","NaN",""
"","S1","","html-keyboard-response","569","656080","0.0-1.0-776.0","0","0","65136","","null","","","null","86","","","","","","","","","","","","","","","",""
"","ISI","","html-keyboard-response","570","657083","0.0-1.0-777.0","0","0","65136","","null","","","null","86","NaN","","","","","","","","","","","","","","",""
"","S2","","html-keyboard-response","571","657335","0.0-1.0-778.0","0","0","65136","","null","","","null","86","","NaN","","","","","","","","","","","","","",""
"","response","","html-keyboard-response","572","658299","0.0-1.0-779.0-0.0","0","0","65136","","963","","","75","86","","","2","86","training","adjacent","FG","6","7","N.jpg","Q.jpg","0","1","0","",""
"","feedback","","html-keyboard-response","573","659302","0.0-1.0-780.0-0.0","0","0","65136","","null","","","null","86","","","","","","","","","","","","","","","",""
"","time_out","","html-keyboard-response","574","661305","0.0-1.0-782.0-0.0","0","0","65136","","null","","","null","86","","","","","","","","","","","","","","","",""
"","ITI","","html-keyboard-response","575","662307","0.0-1.0-783.0","0","0","65136","","null","","","null","86","","","","","","","","","","","","","","","NaN",""
"","S1","","html-keyboard-response","576","662561","0.0-1.0-785.0","0","0","65136","","null","","","null","87","","","","","","","","","","","","","","","",""
"","ISI","","html-keyboard-response","577","663563","0.0-1.0-786.0","0","0","65136","","null","","","null","87","NaN","","","","","","","","","","","","","","",""
"","S2","","html-keyboard-response","578","663816","0.0-1.0-787.0","0","0","65136","","null","","","null","87","","NaN","","","","","","","","","","","","","",""
"","response","","html-keyboard-response","579","664429","0.0-1.0-788.0-0.0","0","0","65136","","612","","","68","87","","","2","87","training","adjacent","CD","3","4","R.jpg","M.jpg","1","1","1","",""
"","feedback","","html-keyboard-response","580","665432","0.0-1.0-789.0-0.0","0","0","65136","","null","","","null","87","","","","","","","","","","","","","","","",""
