"success","ttype","start_time","trial_type","trial_index","time_elapsed","internal_node_id","warning","missed_checkup","PID","view_history","rt","responses","repeat_instructions","key_press","index","keypress_isi","keypress_S2","block","trial_num","phase","group_type","pair_type","S1_stim","S2_stim","S1_img","S2_img","S1_chosen","S1_higher","accuracy","keypress_iti","total_bonus_tally"
"true","full_screen","d04132023hr1713","fullscreen","0","17094","0.0-0.0","0","0","10681","","","","","","","","","","","","","","","","","","","","","",""
"","instructions","","instructions","1","120424","0.0-1.0-0.0-0.0","0","0","10681","[{""page_index"":0,""viewing_time"":8882},{""page_index"":1,""viewing_time"":36925},{""page_index"":2,""viewing_time"":54615},{""page_index"":3,""viewing_time"":2889}]","103319","","","","","","","","","","","","","","","","","","","",""
"","comprehension_check","","survey-multi-choice","2","151103","0.0-1.0-0.0-1.0","0","0","10681","","30654","{""Q0"":""True"",""Q1"":""K"",""Q2"":""Only when the screen 'MAKE A CHOICE' is shown"",""Q3"":""Green mark"",""Q4"":""either D or K""}","1","","","","","","","","","","","","","","","","","",""
"","missed_instruction_checkup","","html-keyboard-response","3","153544","0.0-1.0-0.0-2.0-0.0","0","1","10681","","2426","","","32","","","","","","","","","","","","","","","","",""
"","instructions","","instructions","4","169831","0.0-1.0-0.1-0.1","0","0","10681","[{""page_index"":0,""viewing_time"":2807},{""page_index"":1,""viewing_time"":11653},{""page_index"":2,""viewing_time"":893},{""page_index"":3,""viewing_time"":926}]","16280","","","","","","","","","","","","","","","","","","","",""
"","comprehension_check","","survey-multi-choice","5","181343","0.0-1.0-0.1-1.1","0","0","10681","","11486","{""Q0"":""True"",""Q1"":""K"",""Q2"":""Once the second image appears and while the screen 'MAKE A CHOICE' is shown"",""Q3"":""Green mark"",""Q4"":""either D or K""}","0","","","","","","","","","","","","","","","","","",""
"","start_exp","","html-keyboard-response","6","184102","0.0-1.0-1.0","0","0","10681","","2747","","","32","","","","","","","","","","","","","","","","",""
"","S1","","html-keyboard-response","7","184364","0.0-1.0-2.0","0","0","10681","","null","","","null","0","","","","","","","","","","","","","","","",""
"","ISI","","html-keyboard-response","8","185377","0.0-1.0-3.0","0","0","10681","","null","","","null","0","NaN","","","","","","","","","","","","","","",""
"","S2","","html-keyboard-response","9","185640","0.0-1.0-4.0","0","0","10681","","null","","","null","0","","NaN","","","","","","","","","","","","","",""
"","response","","html-keyboard-response","10","186323","0.0-1.0-5.0-0.0","0","0","10681","","670","","","68","0","","","1","0","training","adjacent","BA","2","1","O.jpg","L.jpg","0","0","1","",""
"","feedback","","html-keyboard-response","11","187338","0.0-1.0-6.0-0.0","0","0","10681","","null","","","null","0","","","","","","","","","","","","","","","",""
"","ITI","","html-keyboard-response","12","188348","0.0-1.0-9.0","0","0","10681","","null","","","null","0","","","","","","","","","","","","","","","NaN",""
"","S1","","html-keyboard-response","13","188606","0.0-1.0-11.0","0","0","10681","","null","","","null","1","","","","","","","","","","","","","","","",""
"","ISI","","html-keyboard-response","14","189616","0.0-1.0-12.0","0","0","10681","","null","","","null","1","NaN","","","","","","","","","","","","","","",""
"","S2","","html-keyboard-response","15","189875","0.0-1.0-13.0","0","0","10681","","null","","","null","1","","NaN","","","","","","","","","","","","","",""
"","response","","html-keyboard-response","16","190505","0.0-1.0-14.0-0.0","0","0","10681","","620","","","75","1","","","1","1","training","adjacent","CD","3","4","P.jpg","Q.jpg","1","1","1","",""
"","feedback","","html-keyboard-response","17","191518","0.0-1.0-15.0-0.0","0","0","10681","","null","","","null","1","","","","","","","","","","","","","","","",""
"","ITI","","html-keyboard-response","18","192533","0.0-1.0-18.0","0","0","10681","","null","","","null","1","","","","","","","","","","","","","","","NaN",""
"","S1","","html-keyboard-response","19","192798","0.0-1.0-20.0","0","0","10681","","null","","","null","2","","","","","","","","","","","","","","","",""
"","ISI","","html-keyboard-response","20","193811","0.0-1.0-21.0","0","0","10681","","null","","","null","2","NaN","","","","","","","","","","","","","","",""
"","S2","","html-keyboard-response","21","194072","0.0-1.0-22.0","0","0","10681","","null","","","null","2","","NaN","","","","","","","","","","","","","",""
"","response","","html-keyboard-response","22","194599","0.0-1.0-23.0-0.0","0","0","10681","","516","","","68","2","","","1","2","training","adjacent","CB","3","2","P.jpg","O.jpg","0","0","1","",""
"","feedback","","html-keyboard-response","23","195610","0.0-1.0-24.0-0.0","0","0","10681","","null","","","null","2","","","","","","","","","","","","","","","",""
"","ITI","","html-keyboard-response","24","196622","0.0-1.0-27.0","0","0","10681","","null","","","null","2","","","","","","","","","","","","","","","NaN",""
"","S1","","html-keyboard-response","25","196884","0.0-1.0-29.0","0","0","10681","","null","","","null","3","","","","","","","","","","","","","","","",""
"","ISI","","html-keyboard-response","26","197894","0.0-1.0-30.0","0","0","10681","","null","","","null","3","NaN","","","","","","","","","","","","","","",""
"","S2","","html-keyboard-response","27","198158","0.0-1.0-31.0","0","0","10681","","null","","","null","3","","NaN","","","","","","","","","","","","","",""
"","response","","html-keyboard-response","28","198664","0.0-1.0-32.0-0.0","0","0","10681","","495","","","68","3","","","1","3","training","adjacent","DC","4","3","Q.jpg","P.jpg","0","0","1","",""
"","feedback","","html-keyboard-response","29","199679","0.0-1.0-33.0-0.0","0","0","10681","","null","","","null","3","","","","","","","","","","","","","","","",""
"","ITI","","html-keyboard-response","30","200693","0.0-1.0-36.0","0","0","10681","","null","","","null","3","","","","","","","","","","","","","","","NaN",""
"","S1","","html-keyboard-response","31","200958","0.0-1.0-38.0","0","0","10681","","null","","","null","4","","","","","","","","","","","","","","","",""
"","ISI","","html-keyboard-response","32","201972","0.0-1.0-39.0","0","0","10681","","null","","","null","4","NaN","","","","","","","","","","","","","","",""
"","S2","","html-keyboard-response","33","202237","0.0-1.0-40.0","0","0","10681","","null","","","null","4","","NaN","","","","","","","","","","","","","",""
"","response","","html-keyboard-response","34","202682","0.0-1.0-41.0-0.0","0","0","10681","","433","","","75","4","","","1","4","training","adjacent","ED","5","4","R.jpg","Q.jpg","1","0","0","",""
"","feedback","","html-keyboard-response","35","203693","0.0-1.0-42.0-0.0","0","0","10681","","null","","","null","4","","","","","","","","","","","","","","","",""
"","time_out","","html-keyboard-response","36","205703","0.0-1.0-44.0-0.0","0","0","10681","","null","","","null","4","","","","","","","","","","","","","","","",""
"","ITI","","html-keyboard-response","37","206716","0.0-1.0-45.0","0","0","10681","","null","","","null","4","","","","","","","","","","","","","","","NaN",""
"","S1","","html-keyboard-response","38","206979","0.0-1.0-47.0","0","0","10681","","null","","","null","5","","","","","","","","","","","","","","","",""
"","ISI","","html-keyboard-response","39","207989","0.0-1.0-48.0","0","0","10681","","null","","","null","5","NaN","","","","","","","","","","","","","","",""
"","S2","","html-keyboard-response","40","208253","0.0-1.0-49.0","0","0","10681","","null","","","null","5","","NaN","","","","","","","","","","","","","",""
"","response","","html-keyboard-response","41","208996","0.0-1.0-50.0-0.0","0","0","10681","","733","","","75","5","","","1","5","training","adjacent","BA","2","1","O.jpg","L.jpg","1","0","0","",""
"","feedback","","html-keyboard-response","42","210008","0.0-1.0-51.0-0.0","0","0","10681","","null","","","null","5","","","","","","","","","","","","","","","",""
"","time_out","","html-keyboard-response","43","212023","0.0-1.0-53.0-0.0","0","0","10681","","null","","","null","5","","","","","","","","","","","","","","","",""
"","ITI","","html-keyboard-response","44","213035","0.0-1.0-54.0","0","0","10681","","null","","","null","5","","","","","","","","","","","","","","","NaN",""
"","S1","","html-keyboard-response","45","213300","0.0-1.0-56.0","0","0","10681","","null","","","null","6","","","","","","","","","","","","","","","",""
"","ISI","","html-keyboard-response","46","214311","0.0-1.0-57.0","0","0","10681","","null","","","null","6","NaN","","","","","","","","","","","","","","",""
"","S2","","html-keyboard-response","47","214577","0.0-1.0-58.0","0","0","10681","","null","","","null","6","","NaN","","","","","","","","","","","","","",""
"","response","","html-keyboard-response","48","215402","0.0-1.0-59.0-0.0","0","0","10681","","812","","","68","6","","","1","6","training","adjacent","AB","1","2","L.jpg","O.jpg","0","1","0","",""
"","feedback","","html-keyboard-response","49","216415","0.0-1.0-60.0-0.0","0","0","10681","","null","","","null","6","","","","","","","","","","","","","","","",""
"","time_out","","html-keyboard-response","50","218425","0.0-1.0-62.0-0.0","0","0","10681","","null","","","null","6","","","","","","","","","","","","","","","",""
"","ITI","","html-keyboard-response","51","219436","0.0-1.0-63.0","0","0","10681","","null","","","null","6","","","","","","","","","","","","","","","NaN",""
"","S1","","html-keyboard-response","52","219702","0.0-1.0-65.0","0","0","10681","","null","","","null","7","","","","","","","","","","","","","","","",""
"","ISI","","html-keyboard-response","53","220716","0.0-1.0-66.0","0","0","10681","","null","","","null","7","NaN","","","","","","","","","","","","","","",""
"","S2","","html-keyboard-response","54","220976","0.0-1.0-67.0","0","0","10681","","null","","","null","7","","NaN","","","","","","","","","","","","","",""
"","response","","html-keyboard-response","55","221916","0.0-1.0-68.0-0.0","0","0","10681","","930","","","68","7","","","1","7","training","adjacent","EF","5","6","R.jpg","M.jpg","0","1","0","",""
"","feedback","","html-keyboard-response","56","222927","0.0-1.0-69.0-0.0","0","0","10681","","null","","","null","7","","","","","","","","","","","","","","","",""
"","time_out","","html-keyboard-response","57","224941","0.0-1.0-71.0-0.0","0","0","10681","","null","","","null","7","","","","","","","","","","","","","","","",""
"","ITI","","html-keyboard-response","58","225953","0.0-1.0-72.0","0","0","10681","","null","","","null","7","","","","","","","","","","","","","","","NaN",""
"","S1","","html-keyboard-response","59","226216","0.0-1.0-74.0","0","0","10681","","null","","","null","8","","","","","","","","","","","","","","","",""
"","ISI","","html-keyboard-response","60","227229","0.0-1.0-75.0","0","0","10681","","null","","","null","8","NaN","","","","","","","","","","","","","","",""
"","S2","","html-keyboard-response","61","227494","0.0-1.0-76.0","0","0","10681","","null","","","null","8","","NaN","","","","","","","","","","","","","",""
"","response","","html-keyboard-response","62","228032","0.0-1.0-77.0-0.0","0","0","10681","","526","","","75","8","","","1","8","training","adjacent","FG","6","7","M.jpg","N.jpg","1","1","1","",""
"","feedback","","html-keyboard-response","63","229045","0.0-1.0-78.0-0.0","0","0","10681","","null","","","null","8","","","","","","","","","","","","","","","",""
"","ITI","","html-keyboard-response","64","230057","0.0-1.0-81.0","0","0","10681","","null","","","null","8","","","","","","","","","","","","","","","NaN",""
"","S1","","html-keyboard-response","65","230319","0.0-1.0-83.0","0","0","10681","","null","","","null","9","","","","","","","","","","","","","","","",""
"","ISI","","html-keyboard-response","66","231331","0.0-1.0-84.0","0","0","10681","","null","","","null","9","NaN","","","","","","","","","","","","","","",""
"","S2","","html-keyboard-response","67","231594","0.0-1.0-85.0","0","0","10681","","null","","","null","9","","NaN","","","","","","","","","","","","","",""
"","response","","html-keyboard-response","68","231938","0.0-1.0-86.0-0.0","0","0","10681","","331","","","75","9","","","1","9","training","adjacent","DC","4","3","Q.jpg","P.jpg","1","0","0","",""
"","feedback","","html-keyboard-response","69","232950","0.0-1.0-87.0-0.0","0","0","10681","","null","","","null","9","","","","","","","","","","","","","","","",""
"","time_out","","html-keyboard-response","70","234962","0.0-1.0-89.0-0.0","0","0","10681","","null","","","null","9","","","","","","","","","","","","","","","",""
"","ITI","","html-keyboard-response","71","235975","0.0-1.0-90.0","0","0","10681","","null","","","null","9","","","","","","","","","","","","","","","NaN",""
"","S1","","html-keyboard-response","72","236237","0.0-1.0-92.0","0","0","10681","","null","","","null","10","","","","","","","","","","","","","","","",""
"","ISI","","html-keyboard-response","73","237249","0.0-1.0-93.0","0","0","10681","","null","","","null","10","NaN","","","","","","","","","","","","","","",""
"","S2","","html-keyboard-response","74","237511","0.0-1.0-94.0","0","0","10681","","null","","","null","10","","NaN","","","","","","","","","","","","","",""
"","response","","html-keyboard-response","75","237744","0.0-1.0-95.0-0.0","0","0","10681","","222","","","68","10","","","1","10","training","adjacent","DE","4","5","Q.jpg","R.jpg","0","1","0","",""
"","feedback","","html-keyboard-response","76","238756","0.0-1.0-96.0-0.0","0","0","10681","","null","","","null","10","","","","","","","","","","","","","","","",""
"","time_out","","html-keyboard-response","77","240769","0.0-1.0-98.0-0.0","0","0","10681","","null","","","null","10","","","","","","","","","","","","","","","",""
"","ITI","","html-keyboard-response","78","241782","0.0-1.0-99.0","0","0","10681","","null","","","null","10","","","","","","","","","","","","","","","NaN",""
"","S1","","html-keyboard-response","79","242045","0.0-1.0-101.0","0","0","10681","","null","","","null","11","","","","","","","","","","","","","","","",""
"","ISI","","html-keyboard-response","80","243060","0.0-1.0-102.0","0","0","10681","","null","","","null","11","NaN","","","","","","","","","","","","","","",""
"","S2","","html-keyboard-response","81","243321","0.0-1.0-103.0","0","0","10681","","null","","","null","11","","NaN","","","","","","","","","","","","","",""
"","response","","html-keyboard-response","82","243829","0.0-1.0-104.0-0.0","0","0","10681","","496","","","75","11","","","1","11","training","adjacent","BA","2","1","O.jpg","L.jpg","1","0","0","",""
"","feedback","","html-keyboard-response","83","244842","0.0-1.0-105.0-0.0","0","0","10681","","null","","","null","11","","","","","","","","","","","","","","","",""
"","time_out","","html-keyboard-response","84","246856","0.0-1.0-107.0-0.0","0","0","10681","","null","","","null","11","","","","","","","","","","","","","","","",""
"","ITI","","html-keyboard-response","85","247865","0.0-1.0-108.0","0","0","10681","","null","","","null","11","","","","","","","","","","","","","","","NaN",""
"","S1","","html-keyboard-response","86","248127","0.0-1.0-110.0","0","0","10681","","null","","","null","12","","","","","","","","","","","","","","","",""
"","ISI","","html-keyboard-response","87","249138","0.0-1.0-111.0","0","0","10681","","null","","","null","12","NaN","","","","","","","","","","","","","","",""
"","S2","","html-keyboard-response","88","249400","0.0-1.0-112.0","0","0","10681","","null","","","null","12","","NaN","","","","","","","","","","","","","",""
"","response","","html-keyboard-response","89","249856","0.0-1.0-113.0-0.0","0","0","10681","","444","","","68","12","","","1","12","training","adjacent","CB","3","2","P.jpg","O.jpg","0","0","1","",""
"","feedback","","html-keyboard-response","90","250870","0.0-1.0-114.0-0.0","0","0","10681","","null","","","null","12","","","","","","","","","","","","","","","",""
"","ITI","","html-keyboard-response","91","251884","0.0-1.0-117.0","0","0","10681","","null","","","null","12","","","","","","","","","","","","","","","NaN",""
"","S1","","html-keyboard-response","92","252145","0.0-1.0-119.0","0","0","10681","","null","","","null","13","","","","","","","","","","","","","","","",""
"","ISI","","html-keyboard-response","93","253161","0.0-1.0-120.0","0","0","10681","","null","","","null","13","NaN","","","","","","","","","","","","","","",""
"","S2","","html-keyboard-response","94","253422","0.0-1.0-121.0","0","0","10681","","null","","","null","13","","NaN","","","","","","","","","","","","","",""
"","response","","html-keyboard-response","95","253699","0.0-1.0-122.0-0.0","0","0","10681","","265","","","68","13","","","1","13","training","adjacent","CB","3","2","P.jpg","O.jpg","0","0","1","",""
"","feedback","","html-keyboard-response","96","254710","0.0-1.0-123.0-0.0","0","0","10681","","null","","","null","13","","","","","","","","","","","","","","","",""
"","ITI","","html-keyboard-response","97","255723","0.0-1.0-126.0","0","0","10681","","null","","","null","13","","","","","","","","","","","","","","","NaN",""
"","S1","","html-keyboard-response","98","255987","0.0-1.0-128.0","0","0","10681","","null","","","null","14","","","","","","","","","","","","","","","",""
"","ISI","","html-keyboard-response","99","256996","0.0-1.0-129.0","0","0","10681","","null","","","null","14","NaN","","","","","","","","","","","","","","",""
"","S2","","html-keyboard-response","100","257260","0.0-1.0-130.0","0","0","10681","","null","","","null","14","","NaN","","","","","","","","","","","","","",""
"","response","","html-keyboard-response","101","257568","0.0-1.0-131.0-0.0","0","0","10681","","295","","","75","14","","","1","14","training","adjacent","AB","1","2","L.jpg","O.jpg","1","1","1","",""
"","feedback","","html-keyboard-response","102","258582","0.0-1.0-132.0-0.0","0","0","10681","","null","","","null","14","","","","","","","","","","","","","","","",""
"","ITI","","html-keyboard-response","103","259595","0.0-1.0-135.0","0","0","10681","","null","","","null","14","","","","","","","","","","","","","","","NaN",""
"","S1","","html-keyboard-response","104","259855","0.0-1.0-137.0","0","0","10681","","null","","","null","15","","","","","","","","","","","","","","","",""
"","ISI","","html-keyboard-response","105","260866","0.0-1.0-138.0","0","0","10681","","null","","","null","15","NaN","","","","","","","","","","","","","","",""
"","S2","","html-keyboard-response","106","261130","0.0-1.0-139.0","0","0","10681","","null","","","null","15","","NaN","","","","","","","","","","","","","",""
"","response","","html-keyboard-response","107","261434","0.0-1.0-140.0-0.0","0","0","10681","","294","","","68","15","","","1","15","training","adjacent","BA","2","1","O.jpg","L.jpg","0","0","1","",""
"","feedback","","html-keyboard-response","108","262445","0.0-1.0-141.0-0.0","0","0","10681","","null","","","null","15","","","","","","","","","","","","","","","",""
"","ITI","","html-keyboard-response","109","263458","0.0-1.0-144.0","0","0","10681","","null","","","null","15","","","","","","","","","","","","","","","NaN",""
"","S1","","html-keyboard-response","110","263723","0.0-1.0-146.0","0","0","10681","","null","","","null","16","","","","","","","","","","","","","","","",""
"","ISI","","html-keyboard-response","111","264736","0.0-1.0-147.0","0","0","10681","","null","","","null","16","NaN","","","","","","","","","","","","","","",""
"","S2","","html-keyboard-response","112","264999","0.0-1.0-148.0","0","0","10681","","null","","","null","16","","NaN","","","","","","","","","","","","","",""
"","response","","html-keyboard-response","113","265847","0.0-1.0-149.0-0.0","0","0","10681","","839","","","68","16","","","1","16","training","adjacent","DC","4","3","Q.jpg","P.jpg","0","0","1","",""
"","feedback","","html-keyboard-response","114","266860","0.0-1.0-150.0-0.0","0","0","10681","","null","","","null","16","","","","","","","","","","","","","","","",""
"","ITI","","html-keyboard-response","115","267874","0.0-1.0-153.0","0","0","10681","","null","","","null","16","","","","","","","","","","","","","","","NaN",""
"","S1","","html-keyboard-response","116","268136","0.0-1.0-155.0","0","0","10681","","null","","","null","17","","","","","","","","","","","","","","","",""
"","ISI","","html-keyboard-response","117","269150","0.0-1.0-156.0","0","0","10681","","null","","","null","17","NaN","","","","","","","","","","","","","","",""
"","S2","","html-keyboard-response","118","269411","0.0-1.0-157.0","0","0","10681","","null","","","null","17","","NaN","","","","","","","","","","","","","",""
"","response","","html-keyboard-response","119","269727","0.0-1.0-158.0-0.0","0","0","10681","","307","","","68","17","","","1","17","training","adjacent","DC","4","3","Q.jpg","P.jpg","0","0","1","",""
"","feedback","","html-keyboard-response","120","270741","0.0-1.0-159.0-0.0","0","0","10681","","null","","","null","17","","","","","","","","","","","","","","","",""
"","ITI","","html-keyboard-response","121","271754","0.0-1.0-162.0","0","0","10681","","null","","","null","17","","","","","","","","","","","","","","","NaN",""
"","S1","","html-keyboard-response","122","272014","0.0-1.0-164.0","0","0","10681","","null","","","null","18","","","","","","","","","","","","","","","",""
"","ISI","","html-keyboard-response","123","273025","0.0-1.0-165.0","0","0","10681","","null","","","null","18","NaN","","","","","","","","","","","","","","",""
"","S2","","html-keyboard-response","124","273288","0.0-1.0-166.0","0","0","10681","","null","","","null","18","","NaN","","","","","","","","","","","","","",""
"","response","","html-keyboard-response","125","273826","0.0-1.0-167.0-0.0","0","0","10681","","527","","","75","18","","","1","18","training","adjacent","AB","1","2","L.jpg","O.jpg","1","1","1","",""
"","feedback","","html-keyboard-response","126","274838","0.0-1.0-168.0-0.0","0","0","10681","","null","","","null","18","","","","","","","","","","","","","","","",""
"","ITI","","html-keyboard-response","127","275851","0.0-1.0-171.0","0","0","10681","","null","","","null","18","","","","","","","","","","","","","","","NaN",""
"","S1","","html-keyboard-response","128","276115","0.0-1.0-173.0","0","0","10681","","null","","","null","19","","","","","","","","","","","","","","","",""
"","ISI","","html-keyboard-response","129","277127","0.0-1.0-174.0","0","0","10681","","null","","","null","19","NaN","","","","","","","","","","","","","","",""
"","S2","","html-keyboard-response","130","277394","0.0-1.0-175.0","0","0","10681","","null","","","null","19","","NaN","","","","","","","","","","","","","",""
"","response","","html-keyboard-response","131","278338","0.0-1.0-176.0-0.0","0","0","10681","","937","","","75","19","","","1","19","training","adjacent","CD","3","4","P.jpg","Q.jpg","1","1","1","",""
"","feedback","","html-keyboard-response","132","279348","0.0-1.0-177.0-0.0","0","0","10681","","null","","","null","19","","","","","","","","","","","","","","","",""
"","ITI","","html-keyboard-response","133","280361","0.0-1.0-180.0","0","0","10681","","null","","","null","19","","","","","","","","","","","","","","","NaN",""
"","S1","","html-keyboard-response","134","280622","0.0-1.0-182.0","0","0","10681","","null","","","null","20","","","","","","","","","","","","","","","",""
"","ISI","","html-keyboard-response","135","281633","0.0-1.0-183.0","0","0","10681","","null","","","null","20","NaN","","","","","","","","","","","","","","",""
"","S2","","html-keyboard-response","136","281895","0.0-1.0-184.0","0","0","10681","","null","","","null","20","","NaN","","","","","","","","","","","","","",""
"","response","","html-keyboard-response","137","282155","0.0-1.0-185.0-0.0","0","0","10681","","247","","","68","20","","","1","20","training","adjacent","DE","4","5","Q.jpg","R.jpg","0","1","0","",""
"","feedback","","html-keyboard-response","138","283169","0.0-1.0-186.0-0.0","0","0","10681","","null","","","null","20","","","","","","","","","","","","","","","",""
"","time_out","","html-keyboard-response","139","285180","0.0-1.0-188.0-0.0","0","0","10681","","null","","","null","20","","","","","","","","","","","","","","","",""
"","ITI","","html-keyboard-response","140","286193","0.0-1.0-189.0","0","0","10681","","null","","","null","20","","","","","","","","","","","","","","","NaN",""
"","S1","","html-keyboard-response","141","286457","0.0-1.0-191.0","0","0","10681","","null","","","null","21","","","","","","","","","","","","","","","",""
"","ISI","","html-keyboard-response","142","287468","0.0-1.0-192.0","0","0","10681","","null","","","null","21","NaN","","","","","","","","","","","","","","",""
"","S2","","html-keyboard-response","143","287732","0.0-1.0-193.0","0","0","10681","","null","","","null","21","","NaN","","","","","","","","","","","","","",""
"","response","","html-keyboard-response","144","288530","0.0-1.0-194.0-0.0","0","0","10681","","787","","","68","21","","","1","21","training","adjacent","FG","6","7","M.jpg","N.jpg","0","1","0","",""
"","feedback","","html-keyboard-response","145","289544","0.0-1.0-195.0-0.0","0","0","10681","","null","","","null","21","","","","","","","","","","","","","","","",""
"","time_out","","html-keyboard-response","146","291554","0.0-1.0-197.0-0.0","0","0","10681","","null","","","null","21","","","","","","","","","","","","","","","",""
"","ITI","","html-keyboard-response","147","292567","0.0-1.0-198.0","0","0","10681","","null","","","null","21","","","","","","","","","","","","","","","NaN",""
"","S1","","html-keyboard-response","148","292833","0.0-1.0-200.0","0","0","10681","","null","","","null","22","","","","","","","","","","","","","","","",""
"","ISI","","html-keyboard-response","149","293846","0.0-1.0-201.0","0","0","10681","","null","","","null","22","NaN","","","","","","","","","","","","","","",""
"","S2","","html-keyboard-response","150","294109","0.0-1.0-202.0","0","0","10681","","null","","","null","22","","NaN","","","","","","","","","","","","","",""
"","response","","html-keyboard-response","151","295181","0.0-1.0-203.0-0.0","0","0","10681","","1062","","","68","22","","","1","22","training","adjacent","ED","5","4","R.jpg","Q.jpg","0","0","1","",""
"","feedback","","html-keyboard-response","152","296195","0.0-1.0-204.0-0.0","0","0","10681","","null","","","null","22","","","","","","","","","","","","","","","",""
"","ITI","","html-keyboard-response","153","297207","0.0-1.0-207.0","0","0","10681","","null","","","null","22","","","","","","","","","","","","","","","NaN",""
"","S1","","html-keyboard-response","154","297469","0.0-1.0-209.0","0","0","10681","","null","","","null","23","","","","","","","","","","","","","","","",""
"","ISI","","html-keyboard-response","155","298481","0.0-1.0-210.0","0","0","10681","","null","","","null","23","NaN","","","","","","","","","","","","","","",""
"","S2","","html-keyboard-response","156","298744","0.0-1.0-211.0","0","0","10681","","null","","","null","23","","NaN","","","","","","","","","","","","","",""
"","response","","html-keyboard-response","157","299626","0.0-1.0-212.0-0.0","0","0","10681","","872","","","68","23","","","1","23","training","adjacent","CD","3","4","P.jpg","Q.jpg","0","1","0","",""
"","feedback","","html-keyboard-response","158","300640","0.0-1.0-213.0-0.0","0","0","10681","","null","","","null","23","","","","","","","","","","","","","","","",""
"","time_out","","html-keyboard-response","159","302653","0.0-1.0-215.0-0.0","0","0","10681","","null","","","null","23","","","","","","","","","","","","","","","",""
"","ITI","","html-keyboard-response","160","303669","0.0-1.0-216.0","0","0","10681","","null","","","null","23","","","","","","","","","","","","","","","NaN",""
"","S1","","html-keyboard-response","161","303930","0.0-1.0-218.0","0","0","10681","","null","","","null","24","","","","","","","","","","","","","","","",""
"","ISI","","html-keyboard-response","162","304942","0.0-1.0-219.0","0","0","10681","","null","","","null","24","NaN","","","","","","","","","","","","","","",""
"","S2","","html-keyboard-response","163","305206","0.0-1.0-220.0","0","0","10681","","null","","","null","24","","NaN","","","","","","","","","","","","","",""
"","response","","html-keyboard-response","164","305688","0.0-1.0-221.0-0.0","0","0","10681","","472","","","75","24","","","1","24","training","adjacent","EF","5","6","R.jpg","M.jpg","1","1","1","",""
"","feedback","","html-keyboard-response","165","306701","0.0-1.0-222.0-0.0","0","0","10681","","null","","","null","24","","","","","","","","","","","","","","","",""
"","ITI","","html-keyboard-response","166","307713","0.0-1.0-225.0","0","0","10681","","null","","","null","24","","","","","","","","","","","","","","","NaN",""
"","S1","","html-keyboard-response","167","307973","0.0-1.0-227.0","0","0","10681","","null","","","null","25","","","","","","","","","","","","","","","",""
"","ISI","","html-keyboard-response","168","308983","0.0-1.0-228.0","0","0","10681","","null","","","null","25","NaN","","","","","","","","","","","","","","",""
"","S2","","html-keyboard-response","169","309248","0.0-1.0-229.0","0","0","10681","","null","","","null","25","","NaN","","","","","","","","","","","","","",""
"","response","","html-keyboard-response","170","309850","0.0-1.0-230.0-0.0","0","0","10681","","593","","","68","25","","","1","25","training","adjacent","FE","6","5","M.jpg","R.jpg","0","0","1","",""
"","feedback","","html-keyboard-response","171","310862","0.0-1.0-231.0-0.0","0","0","10681","","null","","","null","25","","","","","","","","","","","","","","","",""
"","ITI","","html-keyboard-response","172","311874","0.0-1.0-234.0","0","0","10681","","null","","","null","25","","","","","","","","","","","","","","","NaN",""
"","S1","","html-keyboard-response","173","312139","0.0-1.0-236.0","0","0","10681","","null","","","null","26","","","","","","","","","","","","","","","",""
"","ISI","","html-keyboard-response","174","313151","0.0-1.0-237.0","0","0","10681","","null","","","null","26","NaN","","","","","","","","","","","","","","",""
"","S2","","html-keyboard-response","175","313413","0.0-1.0-238.0","0","0","10681","","null","","","null","26","","NaN","","","","","","","","","","","","","",""
"","response","","html-keyboard-response","176","313920","0.0-1.0-239.0-0.0","0","0","10681","","494","","","75","26","","","1","26","training","adjacent","DE","4","5","Q.jpg","R.jpg","1","1","1","",""
"","feedback","","html-keyboard-response","177","314932","0.0-1.0-240.0-0.0","0","0","10681","","null","","","null","26","","","","","","","","","","","","","","","",""
"","ITI","","html-keyboard-response","178","315943","0.0-1.0-243.0","0","0","10681","","null","","","null","26","","","","","","","","","","","","","","","NaN",""
"","S1","","html-keyboard-response","179","316206","0.0-1.0-245.0","0","0","10681","","null","","","null","27","","","","","","","","","","","","","","","",""
"","ISI","","html-keyboard-response","180","317212","0.0-1.0-246.0","0","0","10681","","null","","","null","27","NaN","","","","","","","","","","","","","","",""
"","S2","","html-keyboard-response","181","317475","0.0-1.0-247.0","0","0","10681","","null","","","null","27","","NaN","","","","","","","","","","","","","",""
"","response","","html-keyboard-response","182","318395","0.0-1.0-248.0-0.0","0","0","10681","","912","","","75","27","","","1","27","training","adjacent","GF","7","6","N.jpg","M.jpg","1","0","0","",""
"","feedback","","html-keyboard-response","183","319404","0.0-1.0-249.0-0.0","0","0","10681","","null","","","null","27","","","","","","","","","","","","","","","",""
"","time_out","","html-keyboard-response","184","321417","0.0-1.0-251.0-0.0","0","0","10681","","null","","","null","27","","","","","","","","","","","","","","","",""
"","ITI","","html-keyboard-response","185","322429","0.0-1.0-252.0","0","0","10681","","null","","","null","27","","","","","","","","","","","","","","","NaN",""
"","S1","","html-keyboard-response","186","322693","0.0-1.0-254.0","0","0","10681","","null","","","null","28","","","","","","","","","","","","","","","",""
"","ISI","","html-keyboard-response","187","323703","0.0-1.0-255.0","0","0","10681","","null","","","null","28","NaN","","","","","","","","","","","","","","",""
"","S2","","html-keyboard-response","188","323965","0.0-1.0-256.0","0","0","10681","","null","","","null","28","","NaN","","","","","","","","","","","","","",""
"","response","","html-keyboard-response","189","324409","0.0-1.0-257.0-0.0","0","0","10681","","432","","","75","28","","","1","28","training","adjacent","GF","7","6","N.jpg","M.jpg","1","0","0","",""
"","feedback","","html-keyboard-response","190","325418","0.0-1.0-258.0-0.0","0","0","10681","","null","","","null","28","","","","","","","","","","","","","","","",""
"","time_out","","html-keyboard-response","191","327429","0.0-1.0-260.0-0.0","0","0","10681","","null","","","null","28","","","","","","","","","","","","","","","",""
"","ITI","","html-keyboard-response","192","328440","0.0-1.0-261.0","0","0","10681","","null","","","null","28","","","","","","","","","","","","","","","NaN",""
"","S1","","html-keyboard-response","193","328702","0.0-1.0-263.0","0","0","10681","","null","","","null","29","","","","","","","","","","","","","","","",""
"","ISI","","html-keyboard-response","194","329715","0.0-1.0-264.0","0","0","10681","","null","","","null","29","NaN","","","","","","","","","","","","","","",""
"","S2","","html-keyboard-response","195","329978","0.0-1.0-265.0","0","0","10681","","null","","","null","29","","NaN","","","","","","","","","","","","","",""
"","response","","html-keyboard-response","196","330925","0.0-1.0-266.0-0.0","0","0","10681","","938","","","75","29","","","1","29","training","adjacent","AB","1","2","L.jpg","O.jpg","1","1","1","",""
"","feedback","","html-keyboard-response","197","331939","0.0-1.0-267.0-0.0","0","0","10681","","null","","","null","29","","","","","","","","","","","","","","","",""
"","ITI","","html-keyboard-response","198","332950","0.0-1.0-270.0","0","0","10681","","null","","","null","29","","","","","","","","","","","","","","","NaN",""
"","S1","","html-keyboard-response","199","333210","0.0-1.0-272.0","0","0","10681","","null","","","null","30","","","","","","","","","","","","","","","",""
"","ISI","","html-keyboard-response","200","334222","0.0-1.0-273.0","0","0","10681","","null","","","null","30","NaN","","","","","","","","","","","","","","",""
"","S2","","html-keyboard-response","201","334486","0.0-1.0-274.0","0","0","10681","","null","","","null","30","","NaN","","","","","","","","","","","","","",""
"","response","","html-keyboard-response","202","335021","0.0-1.0-275.0-0.0","0","0","10681","","526","","","68","30","","","1","30","training","adjacent","FG","6","7","M.jpg","N.jpg","0","1","0","",""
"","feedback","","html-keyboard-response","203","336034","0.0-1.0-276.0-0.0","0","0","10681","","null","","","null","30","","","","","","","","","","","","","","","",""
"","time_out","","html-keyboard-response","204","338040","0.0-1.0-278.0-0.0","0","0","10681","","null","","","null","30","","","","","","","","","","","","","","","",""
"","ITI","","html-keyboard-response","205","339052","0.0-1.0-279.0","0","0","10681","","null","","","null","30","","","","","","","","","","","","","","","NaN",""
"","S1","","html-keyboard-response","206","339311","0.0-1.0-281.0","0","0","10681","","null","","","null","31","","","","","","","","","","","","","","","",""
"","ISI","","html-keyboard-response","207","340322","0.0-1.0-282.0","0","0","10681","","null","","","null","31","NaN","","","","","","","","","","","","","","",""
"","S2","","html-keyboard-response","208","340586","0.0-1.0-283.0","0","0","10681","","null","","","null","31","","NaN","","","","","","","","","","","","","",""
"","response","","html-keyboard-response","209","341228","0.0-1.0-284.0-0.0","0","0","10681","","632","","","75","31","","","1","31","training","adjacent","FG","6","7","M.jpg","N.jpg","1","1","1","",""
"","feedback","","html-keyboard-response","210","342240","0.0-1.0-285.0-0.0","0","0","10681","","null","","","null","31","","","","","","","","","","","","","","","",""
"","ITI","","html-keyboard-response","211","343253","0.0-1.0-288.0","0","0","10681","","null","","","null","31","","","","","","","","","","","","","","","NaN",""
"","S1","","html-keyboard-response","212","343513","0.0-1.0-290.0","0","0","10681","","null","","","null","32","","","","","","","","","","","","","","","",""
"","ISI","","html-keyboard-response","213","344524","0.0-1.0-291.0","0","0","10681","","null","","","null","32","NaN","","","","","","","","","","","","","","",""
"","S2","","html-keyboard-response","214","344786","0.0-1.0-292.0","0","0","10681","","null","","","null","32","","NaN","","","","","","","","","","","","","",""
"","response","","html-keyboard-response","215","345682","0.0-1.0-293.0-0.0","0","0","10681","","885","","","75","32","","","1","32","training","adjacent","EF","5","6","R.jpg","M.jpg","1","1","1","",""
"","feedback","","html-keyboard-response","216","346697","0.0-1.0-294.0-0.0","0","0","10681","","null","","","null","32","","","","","","","","","","","","","","","",""
"","ITI","","html-keyboard-response","217","347711","0.0-1.0-297.0","0","0","10681","","null","","","null","32","","","","","","","","","","","","","","","NaN",""
"","S1","","html-keyboard-response","218","347971","0.0-1.0-299.0","0","0","10681","","null","","","null","33","","","","","","","","","","","","","","","",""
"","ISI","","html-keyboard-response","219","348982","0.0-1.0-300.0","0","0","10681","","null","","","null","33","NaN","","","","","","","","","","","","","","",""
"","S2","","html-keyboard-response","220","349239","0.0-1.0-301.0","0","0","10681","","null","","","null","33","","NaN","","","","","","","","","","","","","",""
"","response","","html-keyboard-response","221","349469","0.0-1.0-302.0-0.0","0","0","10681","","221","","","68","33","","","1","33","training","adjacent","FE","6","5","M.jpg","R.jpg","0","0","1","",""
"","feedback","","html-keyboard-response","222","350482","0.0-1.0-303.0-0.0","0","0","10681","","null","","","null","33","","","","","","","","","","","","","","","",""
"","ITI","","html-keyboard-response","223","351493","0.0-1.0-306.0","0","0","10681","","null","","","null","33","","","","","","","","","","","","","","","NaN",""
"","S1","","html-keyboard-response","224","351755","0.0-1.0-308.0","0","0","10681","","null","","","null","34","","","","","","","","","","","","","","","",""
"","ISI","","html-keyboard-response","225","352767","0.0-1.0-309.0","0","0","10681","","null","","","null","34","NaN","","","","","","","","","","","","","","",""
"","S2","","html-keyboard-response","226","353028","0.0-1.0-310.0","0","0","10681","","null","","","null","34","","NaN","","","","","","","","","","","","","",""
"","response","","html-keyboard-response","227","354403","0.0-1.0-311.0-0.0","0","0","10681","","1364","","","68","34","","","1","34","training","adjacent","GF","7","6","N.jpg","M.jpg","0","0","1","",""
"","feedback","","html-keyboard-response","228","355415","0.0-1.0-312.0-0.0","0","0","10681","","null","","","null","34","","","","","","","","","","","","","","","",""
"","ITI","","html-keyboard-response","229","356427","0.0-1.0-315.0","0","0","10681","","null","","","null","34","","","","","","","","","","","","","","","NaN",""
"","S1","","html-keyboard-response","230","356690","0.0-1.0-317.0","0","0","10681","","null","","","null","35","","","","","","","","","","","","","","","",""
"","ISI","","html-keyboard-response","231","357702","0.0-1.0-318.0","0","0","10681","","null","","","null","35","NaN","","","","","","","","","","","","","","",""
"","S2","","html-keyboard-response","232","357965","0.0-1.0-319.0","0","0","10681","","null","","","null","35","","NaN","","","","","","","","","","","","","",""
"","response","","html-keyboard-response","233","359293","0.0-1.0-320.0-0.0","0","0","10681","","1317","","","68","35","","","1","35","training","adjacent","BC","2","3","O.jpg","P.jpg","0","1","0","",""
"","feedback","","html-keyboard-response","234","360304","0.0-1.0-321.0-0.0","0","0","10681","","null","","","null","35","","","","","","","","","","","","","","","",""
"","time_out","","html-keyboard-response","235","362316","0.0-1.0-323.0-0.0","0","0","10681","","null","","","null","35","","","","","","","","","","","","","","","",""
"","ITI","","html-keyboard-response","236","363329","0.0-1.0-324.0","0","0","10681","","null","","","null","35","","","","","","","","","","","","","","","NaN",""
"","S1","","html-keyboard-response","237","363592","0.0-1.0-326.0","0","0","10681","","null","","","null","36","","","","","","","","","","","","","","","",""
"","ISI","","html-keyboard-response","238","364605","0.0-1.0-327.0","0","0","10681","","null","","","null","36","NaN","","","","","","","","","","","","","","",""
"","S2","","html-keyboard-response","239","364866","0.0-1.0-328.0","0","0","10681","","null","","","null","36","","NaN","","","","","","","","","","","","","",""
"","response","","html-keyboard-response","240","365582","0.0-1.0-329.0-0.0","0","0","10681","","708","","","68","36","","","1","36","training","adjacent","FE","6","5","M.jpg","R.jpg","0","0","1","",""
"","feedback","","html-keyboard-response","241","366594","0.0-1.0-330.0-0.0","0","0","10681","","null","","","null","36","","","","","","","","","","","","","","","",""
"","ITI","","html-keyboard-response","242","367606","0.0-1.0-333.0","0","0","10681","","null","","","null","36","","","","","","","","","","","","","","","NaN",""
"","S1","","html-keyboard-response","243","367865","0.0-1.0-335.0","0","0","10681","","null","","","null","37","","","","","","","","","","","","","","","",""
"","ISI","","html-keyboard-response","244","368876","0.0-1.0-336.0","0","0","10681","","null","","","null","37","NaN","","","","","","","","","","","","","","",""
"","S2","","html-keyboard-response","245","369135","0.0-1.0-337.0","0","0","10681","","null","","","null","37","","NaN","","","","","","","","","","","","","",""
"","response","","html-keyboard-response","246","369560","0.0-1.0-338.0-0.0","0","0","10681","","415","","","68","37","","","1","37","training","adjacent","GF","7","6","N.jpg","M.jpg","0","0","1","",""
"","feedback","","html-keyboard-response","247","370572","0.0-1.0-339.0-0.0","0","0","10681","","null","","","null","37","","","","","","","","","","","","","","","",""
"","ITI","","html-keyboard-response","248","371583","0.0-1.0-342.0","0","0","10681","","null","","","null","37","","","","","","","","","","","","","","","NaN",""
"","S1","","html-keyboard-response","249","371845","0.0-1.0-344.0","0","0","10681","","null","","","null","38","","","","","","","","","","","","","","","",""
"","ISI","","html-keyboard-response","250","372856","0.0-1.0-345.0","0","0","10681","","null","","","null","38","NaN","","","","","","","","","","","","","","",""
"","S2","","html-keyboard-response","251","373117","0.0-1.0-346.0","0","0","10681","","null","","","null","38","","NaN","","","","","","","","","","","","","",""
"","response","","html-keyboard-response","252","373700","0.0-1.0-347.0-0.0","0","0","10681","","572","","","75","38","","","1","38","training","adjacent","DE","4","5","Q.jpg","R.jpg","1","1","1","",""
"","feedback","","html-keyboard-response","253","374710","0.0-1.0-348.0-0.0","0","0","10681","","null","","","null","38","","","","","","","","","","","","","","","",""
"","ITI","","html-keyboard-response","254","375724","0.0-1.0-351.0","0","0","10681","","null","","","null","38","","","","","","","","","","","","","","","NaN",""
"","S1","","html-keyboard-response","255","375986","0.0-1.0-353.0","0","0","10681","","null","","","null","39","","","","","","","","","","","","","","","",""
"","ISI","","html-keyboard-response","256","376996","0.0-1.0-354.0","0","0","10681","","null","","","null","39","NaN","","","","","","","","","","","","","","",""
"","S2","","html-keyboard-response","257","377254","0.0-1.0-355.0","0","0","10681","","null","","","null","39","","NaN","","","","","","","","","","","","","",""
"","response","","html-keyboard-response","258","378417","0.0-1.0-356.0-0.0","0","0","10681","","1152","","","75","39","","","1","39","training","adjacent","CB","3","2","P.jpg","O.jpg","1","0","0","",""
"","feedback","","html-keyboard-response","259","379430","0.0-1.0-357.0-0.0","0","0","10681","","null","","","null","39","","","","","","","","","","","","","","","",""
"","time_out","","html-keyboard-response","260","381444","0.0-1.0-359.0-0.0","0","0","10681","","null","","","null","39","","","","","","","","","","","","","","","",""
"","ITI","","html-keyboard-response","261","382456","0.0-1.0-360.0","0","0","10681","","null","","","null","39","","","","","","","","","","","","","","","NaN",""
"","S1","","html-keyboard-response","262","382718","0.0-1.0-362.0","0","0","10681","","null","","","null","40","","","","","","","","","","","","","","","",""
"","ISI","","html-keyboard-response","263","383728","0.0-1.0-363.0","0","0","10681","","null","","","null","40","NaN","","","","","","","","","","","","","","",""
"","S2","","html-keyboard-response","264","383992","0.0-1.0-364.0","0","0","10681","","null","","","null","40","","NaN","","","","","","","","","","","","","",""
"","response","","html-keyboard-response","265","384790","0.0-1.0-365.0-0.0","0","0","10681","","787","","","75","40","","","1","40","training","adjacent","BC","2","3","O.jpg","P.jpg","1","1","1","",""
"","feedback","","html-keyboard-response","266","385803","0.0-1.0-366.0-0.0","0","0","10681","","null","","","null","40","","","","","","","","","","","","","","","",""
"","ITI","","html-keyboard-response","267","386816","0.0-1.0-369.0","0","0","10681","","null","","","null","40","","","","","","","","","","","","","","","NaN",""
"","S1","","html-keyboard-response","268","387077","0.0-1.0-371.0","0","0","10681","","null","","","null","41","","","","","","","","","","","","","","","",""
"","ISI","","html-keyboard-response","269","388088","0.0-1.0-372.0","0","0","10681","","null","","","null","41","NaN","","","","","","","","","","","","","","",""
"","S2","","html-keyboard-response","270","388350","0.0-1.0-373.0","0","0","10681","","null","","","null","41","","NaN","","","","","","","","","","","","","",""
"","response","","html-keyboard-response","271","388895","0.0-1.0-374.0-0.0","0","0","10681","","535","","","68","41","","","1","41","training","adjacent","ED","5","4","R.jpg","Q.jpg","0","0","1","",""
"","feedback","","html-keyboard-response","272","389911","0.0-1.0-375.0-0.0","0","0","10681","","null","","","null","41","","","","","","","","","","","","","","","",""
"","ITI","","html-keyboard-response","273","390923","0.0-1.0-378.0","0","0","10681","","null","","","null","41","","","","","","","","","","","","","","","NaN",""
"","S1","","html-keyboard-response","274","391184","0.0-1.0-380.0","0","0","10681","","null","","","null","42","","","","","","","","","","","","","","","",""
"","ISI","","html-keyboard-response","275","392194","0.0-1.0-381.0","0","0","10681","","null","","","null","42","NaN","","","","","","","","","","","","","","",""
"","S2","","html-keyboard-response","276","392459","0.0-1.0-382.0","0","0","10681","","null","","","null","42","","NaN","","","","","","","","","","","","","",""
"","response","","html-keyboard-response","277","392922","0.0-1.0-383.0-0.0","0","0","10681","","454","","","68","42","","","1","42","training","adjacent","FE","6","5","M.jpg","R.jpg","0","0","1","",""
"","feedback","","html-keyboard-response","278","393934","0.0-1.0-384.0-0.0","0","0","10681","","null","","","null","42","","","","","","","","","","","","","","","",""
"","ITI","","html-keyboard-response","279","394945","0.0-1.0-387.0","0","0","10681","","null","","","null","42","","","","","","","","","","","","","","","NaN",""
"","S1","","html-keyboard-response","280","395207","0.0-1.0-389.0","0","0","10681","","null","","","null","43","","","","","","","","","","","","","","","",""
"","ISI","","html-keyboard-response","281","396219","0.0-1.0-390.0","0","0","10681","","null","","","null","43","NaN","","","","","","","","","","","","","","",""
"","S2","","html-keyboard-response","282","396482","0.0-1.0-391.0","0","0","10681","","null","","","null","43","","NaN","","","","","","","","","","","","","",""
"","response","","html-keyboard-response","283","397303","0.0-1.0-392.0-0.0","0","0","10681","","810","","","68","43","","","1","43","training","adjacent","CD","3","4","P.jpg","Q.jpg","0","1","0","",""
"","feedback","","html-keyboard-response","284","398316","0.0-1.0-393.0-0.0","0","0","10681","","null","","","null","43","","","","","","","","","","","","","","","",""
"","time_out","","html-keyboard-response","285","400329","0.0-1.0-395.0-0.0","0","0","10681","","null","","","null","43","","","","","","","","","","","","","","","",""
"","ITI","","html-keyboard-response","286","401342","0.0-1.0-396.0","0","0","10681","","null","","","null","43","","","","","","","","","","","","","","","NaN",""
"","S1","","html-keyboard-response","287","401604","0.0-1.0-398.0","0","0","10681","","null","","","null","44","","","","","","","","","","","","","","","",""
"","ISI","","html-keyboard-response","288","402614","0.0-1.0-399.0","0","0","10681","","null","","","null","44","NaN","","","","","","","","","","","","","","",""
"","S2","","html-keyboard-response","289","402878","0.0-1.0-400.0","0","0","10681","","null","","","null","44","","NaN","","","","","","","","","","","","","",""
"","response","","html-keyboard-response","290","403575","0.0-1.0-401.0-0.0","0","0","10681","","687","","","75","44","","","1","44","training","adjacent","BC","2","3","O.jpg","P.jpg","1","1","1","",""
"","feedback","","html-keyboard-response","291","404588","0.0-1.0-402.0-0.0","0","0","10681","","null","","","null","44","","","","","","","","","","","","","","","",""
"","ITI","","html-keyboard-response","292","405597","0.0-1.0-405.0","0","0","10681","","null","","","null","44","","","","","","","","","","","","","","","NaN",""
"","S1","","html-keyboard-response","293","405856","0.0-1.0-407.0","0","0","10681","","null","","","null","45","","","","","","","","","","","","","","","",""
"","ISI","","html-keyboard-response","294","406868","0.0-1.0-408.0","0","0","10681","","null","","","null","45","NaN","","","","","","","","","","","","","","",""
"","S2","","html-keyboard-response","295","407128","0.0-1.0-409.0","0","0","10681","","null","","","null","45","","NaN","","","","","","","","","","","","","",""
"","response","","html-keyboard-response","296","408075","0.0-1.0-410.0-0.0","0","0","10681","","933","","","75","45","","","1","45","training","adjacent","EF","5","6","R.jpg","M.jpg","1","1","1","",""
"","feedback","","html-keyboard-response","297","409090","0.0-1.0-411.0-0.0","0","0","10681","","null","","","null","45","","","","","","","","","","","","","","","",""
"","ITI","","html-keyboard-response","298","410103","0.0-1.0-414.0","0","0","10681","","null","","","null","45","","","","","","","","","","","","","","","NaN",""
"","S1","","html-keyboard-response","299","410367","0.0-1.0-416.0","0","0","10681","","null","","","null","46","","","","","","","","","","","","","","","",""
"","ISI","","html-keyboard-response","300","411380","0.0-1.0-417.0","0","0","10681","","null","","","null","46","NaN","","","","","","","","","","","","","","",""
"","S2","","html-keyboard-response","301","411641","0.0-1.0-418.0","0","0","10681","","null","","","null","46","","NaN","","","","","","","","","","","","","",""
"","response","","html-keyboard-response","302","412346","0.0-1.0-419.0-0.0","0","0","10681","","696","","","68","46","","","1","46","training","adjacent","ED","5","4","R.jpg","Q.jpg","0","0","1","",""
"","feedback","","html-keyboard-response","303","413356","0.0-1.0-420.0-0.0","0","0","10681","","null","","","null","46","","","","","","","","","","","","","","","",""
"","ITI","","html-keyboard-response","304","414368","0.0-1.0-423.0","0","0","10681","","null","","","null","46","","","","","","","","","","","","","","","NaN",""
"","S1","","html-keyboard-response","305","414633","0.0-1.0-425.0","0","0","10681","","null","","","null","47","","","","","","","","","","","","","","","",""
"","ISI","","html-keyboard-response","306","415645","0.0-1.0-426.0","0","0","10681","","null","","","null","47","NaN","","","","","","","","","","","","","","",""
"","S2","","html-keyboard-response","307","415909","0.0-1.0-427.0","0","0","10681","","null","","","null","47","","NaN","","","","","","","","","","","","","",""
"","response","","html-keyboard-response","308","416701","0.0-1.0-428.0-0.0","0","0","10681","","780","","","75","47","","","1","47","training","adjacent","BC","2","3","O.jpg","P.jpg","1","1","1","",""
"","feedback","","html-keyboard-response","309","417714","0.0-1.0-429.0-0.0","0","0","10681","","null","","","null","47","","","","","","","","","","","","","","","",""
"","ITI","","html-keyboard-response","310","418729","0.0-1.0-432.0","0","0","10681","","null","","","null","47","","","","","","","","","","","","","","","NaN",""
"","block_over","","html-keyboard-response","311","426046","0.0-1.0-433.0-0.0","0","0","10681","","7307","","","32","47","","","","","","","","","","","","","","","",""
"","S1","","html-keyboard-response","312","426309","0.0-1.0-434.0","0","0","10681","","null","","","null","48","","","","","","","","","","","","","","","",""
"","ISI","","html-keyboard-response","313","427321","0.0-1.0-435.0","0","0","10681","","null","","","null","48","NaN","","","","","","","","","","","","","","",""
"","S2","","html-keyboard-response","314","427580","0.0-1.0-436.0","0","0","10681","","null","","","null","48","","NaN","","","","","","","","","","","","","",""
"","response","","html-keyboard-response","315","428203","0.0-1.0-437.0-0.0","0","0","10681","","613","","","75","48","","","2","48","training","adjacent","BC","2","3","O.jpg","P.jpg","1","1","1","",""
"","feedback","","html-keyboard-response","316","429215","0.0-1.0-438.0-0.0","0","0","10681","","null","","","null","48","","","","","","","","","","","","","","","",""
"","ITI","","html-keyboard-response","317","430230","0.0-1.0-441.0","0","0","10681","","null","","","null","48","","","","","","","","","","","","","","","NaN",""
"","S1","","html-keyboard-response","318","430490","0.0-1.0-443.0","0","0","10681","","null","","","null","49","","","","","","","","","","","","","","","",""
"","ISI","","html-keyboard-response","319","431501","0.0-1.0-444.0","0","0","10681","","null","","","null","49","NaN","","","","","","","","","","","","","","",""
"","S2","","html-keyboard-response","320","431764","0.0-1.0-445.0","0","0","10681","","null","","","null","49","","NaN","","","","","","","","","","","","","",""
"","response","","html-keyboard-response","321","432592","0.0-1.0-446.0-0.0","0","0","10681","","818","","","75","49","","","2","49","training","adjacent","BC","2","3","O.jpg","P.jpg","1","1","1","",""
"","feedback","","html-keyboard-response","322","433603","0.0-1.0-447.0-0.0","0","0","10681","","null","","","null","49","","","","","","","","","","","","","","","",""
"","ITI","","html-keyboard-response","323","434615","0.0-1.0-450.0","0","0","10681","","null","","","null","49","","","","","","","","","","","","","","","NaN",""
"","S1","","html-keyboard-response","324","434879","0.0-1.0-452.0","0","0","10681","","null","","","null","50","","","","","","","","","","","","","","","",""
"","ISI","","html-keyboard-response","325","435904","0.0-1.0-453.0","0","0","10681","","null","","","null","50","NaN","","","","","","","","","","","","","","",""
"","S2","","html-keyboard-response","326","436175","0.0-1.0-454.0","0","0","10681","","null","","","null","50","","NaN","","","","","","","","","","","","","",""
"","response","","html-keyboard-response","327","436774","0.0-1.0-455.0-0.0","0","0","10681","","592","","","68","50","","","2","50","training","adjacent","ED","5","4","R.jpg","Q.jpg","0","0","1","",""
"","feedback","","html-keyboard-response","328","437786","0.0-1.0-456.0-0.0","0","0","10681","","null","","","null","50","","","","","","","","","","","","","","","",""
"","ITI","","html-keyboard-response","329","438799","0.0-1.0-459.0","0","0","10681","","null","","","null","50","","","","","","","","","","","","","","","NaN",""
"","S1","","html-keyboard-response","330","439061","0.0-1.0-461.0","0","0","10681","","null","","","null","51","","","","","","","","","","","","","","","",""
"","ISI","","html-keyboard-response","331","440079","0.0-1.0-462.0","0","0","10681","","null","","","null","51","NaN","","","","","","","","","","","","","","",""
"","S2","","html-keyboard-response","332","440342","0.0-1.0-463.0","0","0","10681","","null","","","null","51","","NaN","","","","","","","","","","","","","",""
"","response","","html-keyboard-response","333","441016","0.0-1.0-464.0-0.0","0","0","10681","","665","","","75","51","","","2","51","training","adjacent","FG","6","7","M.jpg","N.jpg","1","1","1","",""
"","feedback","","html-keyboard-response","334","442027","0.0-1.0-465.0-0.0","0","0","10681","","null","","","null","51","","","","","","","","","","","","","","","",""
"","ITI","","html-keyboard-response","335","443041","0.0-1.0-468.0","0","0","10681","","null","","","null","51","","","","","","","","","","","","","","","NaN",""
"","S1","","html-keyboard-response","336","443304","0.0-1.0-470.0","0","0","10681","","null","","","null","52","","","","","","","","","","","","","","","",""
"","ISI","","html-keyboard-response","337","444314","0.0-1.0-471.0","0","0","10681","","null","","","null","52","NaN","","","","","","","","","","","","","","",""
"","S2","","html-keyboard-response","338","444576","0.0-1.0-472.0","0","0","10681","","null","","","null","52","","NaN","","","","","","","","","","","","","",""
"","response","","html-keyboard-response","339","445256","0.0-1.0-473.0-0.0","0","0","10681","","668","","","68","52","","","2","52","training","adjacent","CB","3","2","P.jpg","O.jpg","0","0","1","",""
"","feedback","","html-keyboard-response","340","446268","0.0-1.0-474.0-0.0","0","0","10681","","null","","","null","52","","","","","","","","","","","","","","","",""
"","ITI","","html-keyboard-response","341","447277","0.0-1.0-477.0","0","0","10681","","null","","","null","52","","","","","","","","","","","","","","","NaN",""
"","S1","","html-keyboard-response","342","447540","0.0-1.0-479.0","0","0","10681","","null","","","null","53","","","","","","","","","","","","","","","",""
"","ISI","","html-keyboard-response","343","448553","0.0-1.0-480.0","0","0","10681","","null","","","null","53","NaN","","","","","","","","","","","","","","",""
"","S2","","html-keyboard-response","344","448811","0.0-1.0-481.0","0","0","10681","","null","","","null","53","","NaN","","","","","","","","","","","","","",""
"","response","","html-keyboard-response","345","450097","0.0-1.0-482.0-0.0","0","0","10681","","1277","","","68","53","","","2","53","training","adjacent","AB","1","2","L.jpg","O.jpg","0","1","0","",""
"","feedback","","html-keyboard-response","346","451108","0.0-1.0-483.0-0.0","0","0","10681","","null","","","null","53","","","","","","","","","","","","","","","",""
"","time_out","","html-keyboard-response","347","453122","0.0-1.0-485.0-0.0","0","0","10681","","null","","","null","53","","","","","","","","","","","","","","","",""
"","ITI","","html-keyboard-response","348","454135","0.0-1.0-486.0","0","0","10681","","null","","","null","53","","","","","","","","","","","","","","","NaN",""
"","S1","","html-keyboard-response","349","454398","0.0-1.0-488.0","0","0","10681","","null","","","null","54","","","","","","","","","","","","","","","",""
"","ISI","","html-keyboard-response","350","455411","0.0-1.0-489.0","0","0","10681","","null","","","null","54","NaN","","","","","","","","","","","","","","",""
"","S2","","html-keyboard-response","351","455672","0.0-1.0-490.0","0","0","10681","","null","","","null","54","","NaN","","","","","","","","","","","","","",""
"","response","","html-keyboard-response","352","456217","0.0-1.0-491.0-0.0","0","0","10681","","535","","","75","54","","","2","54","training","adjacent","AB","1","2","L.jpg","O.jpg","1","1","1","",""
"","feedback","","html-keyboard-response","353","457228","0.0-1.0-492.0-0.0","0","0","10681","","null","","","null","54","","","","","","","","","","","","","","","",""
"","ITI","","html-keyboard-response","354","458241","0.0-1.0-495.0","0","0","10681","","null","","","null","54","","","","","","","","","","","","","","","NaN",""
"","S1","","html-keyboard-response","355","458503","0.0-1.0-497.0","0","0","10681","","null","","","null","55","","","","","","","","","","","","","","","",""
"","ISI","","html-keyboard-response","356","459518","0.0-1.0-498.0","0","0","10681","","null","","","null","55","NaN","","","","","","","","","","","","","","",""
"","S2","","html-keyboard-response","357","459780","0.0-1.0-499.0","0","0","10681","","null","","","null","55","","NaN","","","","","","","","","","","","","",""
"","response","","html-keyboard-response","358","460275","0.0-1.0-500.0-0.0","0","0","10681","","484","","","75","55","","","2","55","training","adjacent","DC","4","3","Q.jpg","P.jpg","1","0","0","",""
"","feedback","","html-keyboard-response","359","461291","0.0-1.0-501.0-0.0","0","0","10681","","null","","","null","55","","","","","","","","","","","","","","","",""
"","time_out","","html-keyboard-response","360","463299","0.0-1.0-503.0-0.0","0","0","10681","","null","","","null","55","","","","","","","","","","","","","","","",""
"","ITI","","html-keyboard-response","361","464307","0.0-1.0-504.0","0","0","10681","","null","","","null","55","","","","","","","","","","","","","","","NaN",""
"","S1","","html-keyboard-response","362","464570","0.0-1.0-506.0","0","0","10681","","null","","","null","56","","","","","","","","","","","","","","","",""
"","ISI","","html-keyboard-response","363","465579","0.0-1.0-507.0","0","0","10681","","null","","","null","56","NaN","","","","","","","","","","","","","","",""
"","S2","","html-keyboard-response","364","465846","0.0-1.0-508.0","0","0","10681","","null","","","null","56","","NaN","","","","","","","","","","","","","",""
"","response","","html-keyboard-response","365","466692","0.0-1.0-509.0-0.0","0","0","10681","","837","","","75","56","","","2","56","training","adjacent","GF","7","6","N.jpg","M.jpg","1","0","0","",""
"","feedback","","html-keyboard-response","366","467704","0.0-1.0-510.0-0.0","0","0","10681","","null","","","null","56","","","","","","","","","","","","","","","",""
"","time_out","","html-keyboard-response","367","469718","0.0-1.0-512.0-0.0","0","0","10681","","null","","","null","56","","","","","","","","","","","","","","","",""
"","ITI","","html-keyboard-response","368","470729","0.0-1.0-513.0","0","0","10681","","null","","","null","56","","","","","","","","","","","","","","","NaN",""
"","S1","","html-keyboard-response","369","470994","0.0-1.0-515.0","0","0","10681","","null","","","null","57","","","","","","","","","","","","","","","",""
"","ISI","","html-keyboard-response","370","472004","0.0-1.0-516.0","0","0","10681","","null","","","null","57","NaN","","","","","","","","","","","","","","",""
"","S2","","html-keyboard-response","371","472268","0.0-1.0-517.0","0","0","10681","","null","","","null","57","","NaN","","","","","","","","","","","","","",""
"","response","","html-keyboard-response","372","472795","0.0-1.0-518.0-0.0","0","0","10681","","517","","","75","57","","","2","57","training","adjacent","CB","3","2","P.jpg","O.jpg","1","0","0","",""
"","feedback","","html-keyboard-response","373","473807","0.0-1.0-519.0-0.0","0","0","10681","","null","","","null","57","","","","","","","","","","","","","","","",""
"","time_out","","html-keyboard-response","374","475820","0.0-1.0-521.0-0.0","0","0","10681","","null","","","null","57","","","","","","","","","","","","","","","",""
"","ITI","","html-keyboard-response","375","476831","0.0-1.0-522.0","0","0","10681","","null","","","null","57","","","","","","","","","","","","","","","NaN",""
"","S1","","html-keyboard-response","376","477091","0.0-1.0-524.0","0","0","10681","","null","","","null","58","","","","","","","","","","","","","","","",""
"","ISI","","html-keyboard-response","377","478102","0.0-1.0-525.0","0","0","10681","","null","","","null","58","NaN","","","","","","","","","","","","","","",""
"","S2","","html-keyboard-response","378","478361","0.0-1.0-526.0","0","0","10681","","null","","","null","58","","NaN","","","","","","","","","","","","","",""
"","response","","html-keyboard-response","379","479286","0.0-1.0-527.0-0.0","0","0","10681","","913","","","68","58","","","2","58","training","adjacent","ED","5","4","R.jpg","Q.jpg","0","0","1","",""
"","feedback","","html-keyboard-response","380","480299","0.0-1.0-528.0-0.0","0","0","10681","","null","","","null","58","","","","","","","","","","","","","","","",""
"","ITI","","html-keyboard-response","381","481310","0.0-1.0-531.0","0","0","10681","","null","","","null","58","","","","","","","","","","","","","","","NaN",""
"","S1","","html-keyboard-response","382","481572","0.0-1.0-533.0","0","0","10681","","null","","","null","59","","","","","","","","","","","","","","","",""
"","ISI","","html-keyboard-response","383","482583","0.0-1.0-534.0","0","0","10681","","null","","","null","59","NaN","","","","","","","","","","","","","","",""
"","S2","","html-keyboard-response","384","482845","0.0-1.0-535.0","0","0","10681","","null","","","null","59","","NaN","","","","","","","","","","","","","",""
"","response","","html-keyboard-response","385","483609","0.0-1.0-536.0-0.0","0","0","10681","","751","","","75","59","","","2","59","training","adjacent","GF","7","6","N.jpg","M.jpg","1","0","0","",""
"","feedback","","html-keyboard-response","386","484620","0.0-1.0-537.0-0.0","0","0","10681","","null","","","null","59","","","","","","","","","","","","","","","",""
"","time_out","","html-keyboard-response","387","486633","0.0-1.0-539.0-0.0","0","0","10681","","null","","","null","59","","","","","","","","","","","","","","","",""
"","ITI","","html-keyboard-response","388","487645","0.0-1.0-540.0","0","0","10681","","null","","","null","59","","","","","","","","","","","","","","","NaN",""
"","S1","","html-keyboard-response","389","487907","0.0-1.0-542.0","0","0","10681","","null","","","null","60","","","","","","","","","","","","","","","",""
"","ISI","","html-keyboard-response","390","488919","0.0-1.0-543.0","0","0","10681","","null","","","null","60","NaN","","","","","","","","","","","","","","",""
"","S2","","html-keyboard-response","391","489185","0.0-1.0-544.0","0","0","10681","","null","","","null","60","","NaN","","","","","","","","","","","","","",""
"","response","","html-keyboard-response","392","489590","0.0-1.0-545.0-0.0","0","0","10681","","394","","","75","60","","","2","60","training","adjacent","DC","4","3","Q.jpg","P.jpg","1","0","0","",""
"","feedback","","html-keyboard-response","393","490605","0.0-1.0-546.0-0.0","0","0","10681","","null","","","null","60","","","","","","","","","","","","","","","",""
"","time_out","","html-keyboard-response","394","492619","0.0-1.0-548.0-0.0","0","0","10681","","null","","","null","60","","","","","","","","","","","","","","","",""
"","ITI","","html-keyboard-response","395","493629","0.0-1.0-549.0","0","0","10681","","null","","","null","60","","","","","","","","","","","","","","","NaN",""
"","S1","","html-keyboard-response","396","493891","0.0-1.0-551.0","0","0","10681","","null","","","null","61","","","","","","","","","","","","","","","",""
"","ISI","","html-keyboard-response","397","494901","0.0-1.0-552.0","0","0","10681","","null","","","null","61","NaN","","","","","","","","","","","","","","",""
"","S2","","html-keyboard-response","398","495163","0.0-1.0-553.0","0","0","10681","","null","","","null","61","","NaN","","","","","","","","","","","","","",""
"","response","","html-keyboard-response","399","495544","0.0-1.0-554.0-0.0","0","0","10681","","369","","","75","61","","","2","61","training","adjacent","FG","6","7","M.jpg","N.jpg","1","1","1","",""
"","feedback","","html-keyboard-response","400","496556","0.0-1.0-555.0-0.0","0","0","10681","","null","","","null","61","","","","","","","","","","","","","","","",""
"","ITI","","html-keyboard-response","401","497569","0.0-1.0-558.0","0","0","10681","","null","","","null","61","","","","","","","","","","","","","","","NaN",""
"","S1","","html-keyboard-response","402","497833","0.0-1.0-560.0","0","0","10681","","null","","","null","62","","","","","","","","","","","","","","","",""
"","ISI","","html-keyboard-response","403","498846","0.0-1.0-561.0","0","0","10681","","null","","","null","62","NaN","","","","","","","","","","","","","","",""
"","S2","","html-keyboard-response","404","499109","0.0-1.0-562.0","0","0","10681","","null","","","null","62","","NaN","","","","","","","","","","","","","",""
"","response","","html-keyboard-response","405","499512","0.0-1.0-563.0-0.0","0","0","10681","","393","","","75","62","","","2","62","training","adjacent","FE","6","5","M.jpg","R.jpg","1","0","0","",""
"","feedback","","html-keyboard-response","406","500525","0.0-1.0-564.0-0.0","0","0","10681","","null","","","null","62","","","","","","","","","","","","","","","",""
"","time_out","","html-keyboard-response","407","502535","0.0-1.0-566.0-0.0","0","0","10681","","null","","","null","62","","","","","","","","","","","","","","","",""
"","ITI","","html-keyboard-response","408","503548","0.0-1.0-567.0","0","0","10681","","null","","","null","62","","","","","","","","","","","","","","","NaN",""
"","S1","","html-keyboard-response","409","503811","0.0-1.0-569.0","0","0","10681","","null","","","null","63","","","","","","","","","","","","","","","",""
"","ISI","","html-keyboard-response","410","504822","0.0-1.0-570.0","0","0","10681","","null","","","null","63","NaN","","","","","","","","","","","","","","",""
"","S2","","html-keyboard-response","411","505087","0.0-1.0-571.0","0","0","10681","","null","","","null","63","","NaN","","","","","","","","","","","","","",""
"","response","","html-keyboard-response","412","505603","0.0-1.0-572.0-0.0","0","0","10681","","504","","","68","63","","","2","63","training","adjacent","ED","5","4","R.jpg","Q.jpg","0","0","1","",""
"","feedback","","html-keyboard-response","413","506614","0.0-1.0-573.0-0.0","0","0","10681","","null","","","null","63","","","","","","","","","","","","","","","",""
"","ITI","","html-keyboard-response","414","507627","0.0-1.0-576.0","0","0","10681","","null","","","null","63","","","","","","","","","","","","","","","NaN",""
"","S1","","html-keyboard-response","415","507890","0.0-1.0-578.0","0","0","10681","","null","","","null","64","","","","","","","","","","","","","","","",""
"","ISI","","html-keyboard-response","416","508902","0.0-1.0-579.0","0","0","10681","","null","","","null","64","NaN","","","","","","","","","","","","","","",""
"","S2","","html-keyboard-response","417","509166","0.0-1.0-580.0","0","0","10681","","null","","","null","64","","NaN","","","","","","","","","","","","","",""
"","response","","html-keyboard-response","418","509566","0.0-1.0-581.0-0.0","0","0","10681","","393","","","68","64","","","2","64","training","adjacent","ED","5","4","R.jpg","Q.jpg","0","0","1","",""
"","feedback","","html-keyboard-response","419","510579","0.0-1.0-582.0-0.0","0","0","10681","","null","","","null","64","","","","","","","","","","","","","","","",""
"","ITI","","html-keyboard-response","420","511593","0.0-1.0-585.0","0","0","10681","","null","","","null","64","","","","","","","","","","","","","","","NaN",""
"","S1","","html-keyboard-response","421","511854","0.0-1.0-587.0","0","0","10681","","null","","","null","65","","","","","","","","","","","","","","","",""
"","ISI","","html-keyboard-response","422","512866","0.0-1.0-588.0","0","0","10681","","null","","","null","65","NaN","","","","","","","","","","","","","","",""
"","S2","","html-keyboard-response","423","513129","0.0-1.0-589.0","0","0","10681","","null","","","null","65","","NaN","","","","","","","","","","","","","",""
"","response","","html-keyboard-response","424","513520","0.0-1.0-590.0-0.0","0","0","10681","","382","","","75","65","","","2","65","training","adjacent","FG","6","7","M.jpg","N.jpg","1","1","1","",""
"","feedback","","html-keyboard-response","425","514531","0.0-1.0-591.0-0.0","0","0","10681","","null","","","null","65","","","","","","","","","","","","","","","",""
"","ITI","","html-keyboard-response","426","515543","0.0-1.0-594.0","0","0","10681","","null","","","null","65","","","","","","","","","","","","","","","NaN",""
"","S1","","html-keyboard-response","427","515807","0.0-1.0-596.0","0","0","10681","","null","","","null","66","","","","","","","","","","","","","","","",""
"","ISI","","html-keyboard-response","428","516818","0.0-1.0-597.0","0","0","10681","","null","","","null","66","NaN","","","","","","","","","","","","","","",""
"","S2","","html-keyboard-response","429","517080","0.0-1.0-598.0","0","0","10681","","null","","","null","66","","NaN","","","","","","","","","","","","","",""
"","response","","html-keyboard-response","430","517698","0.0-1.0-599.0-0.0","0","0","10681","","610","","","75","66","","","2","66","training","adjacent","DE","4","5","Q.jpg","R.jpg","1","1","1","",""
"","feedback","","html-keyboard-response","431","518711","0.0-1.0-600.0-0.0","0","0","10681","","null","","","null","66","","","","","","","","","","","","","","","",""
"","ITI","","html-keyboard-response","432","519720","0.0-1.0-603.0","0","0","10681","","null","","","null","66","","","","","","","","","","","","","","","NaN",""
"","S1","","html-keyboard-response","433","519982","0.0-1.0-605.0","0","0","10681","","null","","","null","67","","","","","","","","","","","","","","","",""
"","ISI","","html-keyboard-response","434","520994","0.0-1.0-606.0","0","0","10681","","null","","","null","67","NaN","","","","","","","","","","","","","","",""
"","S2","","html-keyboard-response","435","521260","0.0-1.0-607.0","0","0","10681","","null","","","null","67","","NaN","","","","","","","","","","","","","",""
"","response","","html-keyboard-response","436","521774","0.0-1.0-608.0-0.0","0","0","10681","","505","","","68","67","","","2","67","training","adjacent","BC","2","3","O.jpg","P.jpg","0","1","0","",""
"","feedback","","html-keyboard-response","437","522785","0.0-1.0-609.0-0.0","0","0","10681","","null","","","null","67","","","","","","","","","","","","","","","",""
"","time_out","","html-keyboard-response","438","524798","0.0-1.0-611.0-0.0","0","0","10681","","null","","","null","67","","","","","","","","","","","","","","","",""
"","ITI","","html-keyboard-response","439","525807","0.0-1.0-612.0","0","0","10681","","null","","","null","67","","","","","","","","","","","","","","","NaN",""
"","S1","","html-keyboard-response","440","526070","0.0-1.0-614.0","0","0","10681","","null","","","null","68","","","","","","","","","","","","","","","",""
"","ISI","","html-keyboard-response","441","527083","0.0-1.0-615.0","0","0","10681","","null","","","null","68","NaN","","","","","","","","","","","","","","",""
"","S2","","html-keyboard-response","442","527343","0.0-1.0-616.0","0","0","10681","","null","","","null","68","","NaN","","","","","","","","","","","","","",""
"","response","","html-keyboard-response","443","527625","0.0-1.0-617.0-0.0","0","0","10681","","269","","","75","68","","","2","68","training","adjacent","CD","3","4","P.jpg","Q.jpg","1","1","1","",""
"","feedback","","html-keyboard-response","444","528638","0.0-1.0-618.0-0.0","0","0","10681","","null","","","null","68","","","","","","","","","","","","","","","",""
"","ITI","","html-keyboard-response","445","529653","0.0-1.0-621.0","0","0","10681","","null","","","null","68","","","","","","","","","","","","","","","NaN",""
"","S1","","html-keyboard-response","446","529917","0.0-1.0-623.0","0","0","10681","","null","","","null","69","","","","","","","","","","","","","","","",""
"","ISI","","html-keyboard-response","447","530932","0.0-1.0-624.0","0","0","10681","","null","","","null","69","NaN","","","","","","","","","","","","","","",""
"","S2","","html-keyboard-response","448","531194","0.0-1.0-625.0","0","0","10681","","null","","","null","69","","NaN","","","","","","","","","","","","","",""
"","response","","html-keyboard-response","449","531831","0.0-1.0-626.0-0.0","0","0","10681","","625","","","68","69","","","2","69","training","adjacent","BA","2","1","O.jpg","L.jpg","0","0","1","",""
"","feedback","","html-keyboard-response","450","532844","0.0-1.0-627.0-0.0","0","0","10681","","null","","","null","69","","","","","","","","","","","","","","","",""
"","ITI","","html-keyboard-response","451","533858","0.0-1.0-630.0","0","0","10681","","null","","","null","69","","","","","","","","","","","","","","","NaN",""
"","S1","","html-keyboard-response","452","534121","0.0-1.0-632.0","0","0","10681","","null","","","null","70","","","","","","","","","","","","","","","",""
"","ISI","","html-keyboard-response","453","535133","0.0-1.0-633.0","0","0","10681","","null","","","null","70","NaN","","","","","","","","","","","","","","",""
"","S2","","html-keyboard-response","454","535394","0.0-1.0-634.0","0","0","10681","","null","","","null","70","","NaN","","","","","","","","","","","","","",""
"","response","","html-keyboard-response","455","536120","0.0-1.0-635.0-0.0","0","0","10681","","714","","","68","70","","","2","70","training","adjacent","GF","7","6","N.jpg","M.jpg","0","0","1","",""
"","feedback","","html-keyboard-response","456","537132","0.0-1.0-636.0-0.0","0","0","10681","","null","","","null","70","","","","","","","","","","","","","","","",""
"","ITI","","html-keyboard-response","457","538143","0.0-1.0-639.0","0","0","10681","","null","","","null","70","","","","","","","","","","","","","","","NaN",""
"","S1","","html-keyboard-response","458","538406","0.0-1.0-641.0","0","0","10681","","null","","","null","71","","","","","","","","","","","","","","","",""
"","ISI","","html-keyboard-response","459","539416","0.0-1.0-642.0","0","0","10681","","null","","","null","71","NaN","","","","","","","","","","","","","","",""
"","S2","","html-keyboard-response","460","539678","0.0-1.0-643.0","0","0","10681","","null","","","null","71","","NaN","","","","","","","","","","","","","",""
"","response","","html-keyboard-response","461","540682","0.0-1.0-644.0-0.0","0","0","10681","","994","","","75","71","","","2","71","training","adjacent","EF","5","6","R.jpg","M.jpg","1","1","1","",""
"","feedback","","html-keyboard-response","462","541695","0.0-1.0-645.0-0.0","0","0","10681","","null","","","null","71","","","","","","","","","","","","","","","",""
"","ITI","","html-keyboard-response","463","542709","0.0-1.0-648.0","0","0","10681","","null","","","null","71","","","","","","","","","","","","","","","NaN",""
"","S1","","html-keyboard-response","464","542973","0.0-1.0-650.0","0","0","10681","","null","","","null","72","","","","","","","","","","","","","","","",""
"","ISI","","html-keyboard-response","465","543986","0.0-1.0-651.0","0","0","10681","","null","","","null","72","NaN","","","","","","","","","","","","","","",""
"","S2","","html-keyboard-response","466","544249","0.0-1.0-652.0","0","0","10681","","null","","","null","72","","NaN","","","","","","","","","","","","","",""
"","response","","html-keyboard-response","467","545036","0.0-1.0-653.0-0.0","0","0","10681","","776","","","68","72","","","2","72","training","adjacent","FE","6","5","M.jpg","R.jpg","0","0","1","",""
"","feedback","","html-keyboard-response","468","546050","0.0-1.0-654.0-0.0","0","0","10681","","null","","","null","72","","","","","","","","","","","","","","","",""
"","ITI","","html-keyboard-response","469","547065","0.0-1.0-657.0","0","0","10681","","null","","","null","72","","","","","","","","","","","","","","","NaN",""
"","S1","","html-keyboard-response","470","547326","0.0-1.0-659.0","0","0","10681","","null","","","null","73","","","","","","","","","","","","","","","",""
"","ISI","","html-keyboard-response","471","548337","0.0-1.0-660.0","0","0","10681","","null","","","null","73","NaN","","","","","","","","","","","","","","",""
"","S2","","html-keyboard-response","472","548599","0.0-1.0-661.0","0","0","10681","","null","","","null","73","","NaN","","","","","","","","","","","","","",""
"","response","","html-keyboard-response","473","549868","0.0-1.0-662.0-0.0","0","0","10681","","1258","","","75","73","","","2","73","training","adjacent","BC","2","3","O.jpg","P.jpg","1","1","1","",""
"","feedback","","html-keyboard-response","474","550881","0.0-1.0-663.0-0.0","0","0","10681","","null","","","null","73","","","","","","","","","","","","","","","",""
"","ITI","","html-keyboard-response","475","551895","0.0-1.0-666.0","0","0","10681","","null","","","null","73","","","","","","","","","","","","","","","NaN",""
"","S1","","html-keyboard-response","476","552155","0.0-1.0-668.0","0","0","10681","","null","","","null","74","","","","","","","","","","","","","","","",""
"","ISI","","html-keyboard-response","477","553167","0.0-1.0-669.0","0","0","10681","","null","","","null","74","NaN","","","","","","","","","","","","","","",""
"","S2","","html-keyboard-response","478","553429","0.0-1.0-670.0","0","0","10681","","null","","","null","74","","NaN","","","","","","","","","","","","","",""
"","response","","html-keyboard-response","479","554570","0.0-1.0-671.0-0.0","0","0","10681","","1132","","","75","74","","","2","74","training","adjacent","EF","5","6","R.jpg","M.jpg","1","1","1","",""
"","feedback","","html-keyboard-response","480","555585","0.0-1.0-672.0-0.0","0","0","10681","","null","","","null","74","","","","","","","","","","","","","","","",""
"","ITI","","html-keyboard-response","481","556598","0.0-1.0-675.0","0","0","10681","","null","","","null","74","","","","","","","","","","","","","","","NaN",""
"","S1","","html-keyboard-response","482","556859","0.0-1.0-677.0","0","0","10681","","null","","","null","75","","","","","","","","","","","","","","","",""
"","ISI","","html-keyboard-response","483","557868","0.0-1.0-678.0","0","0","10681","","null","","","null","75","NaN","","","","","","","","","","","","","","",""
"","S2","","html-keyboard-response","484","558129","0.0-1.0-679.0","0","0","10681","","null","","","null","75","","NaN","","","","","","","","","","","","","",""
"","response","","html-keyboard-response","485","558930","0.0-1.0-680.0-0.0","0","0","10681","","788","","","75","75","","","2","75","training","adjacent","CB","3","2","P.jpg","O.jpg","1","0","0","",""
"","feedback","","html-keyboard-response","486","559940","0.0-1.0-681.0-0.0","0","0","10681","","null","","","null","75","","","","","","","","","","","","","","","",""
"","time_out","","html-keyboard-response","487","561952","0.0-1.0-683.0-0.0","0","0","10681","","null","","","null","75","","","","","","","","","","","","","","","",""
"","ITI","","html-keyboard-response","488","562965","0.0-1.0-684.0","0","0","10681","","null","","","null","75","","","","","","","","","","","","","","","NaN",""
"","S1","","html-keyboard-response","489","563227","0.0-1.0-686.0","0","0","10681","","null","","","null","76","","","","","","","","","","","","","","","",""
"","ISI","","html-keyboard-response","490","564237","0.0-1.0-687.0","0","0","10681","","null","","","null","76","NaN","","","","","","","","","","","","","","",""
"","S2","","html-keyboard-response","491","564497","0.0-1.0-688.0","0","0","10681","","null","","","null","76","","NaN","","","","","","","","","","","","","",""
"","response","","html-keyboard-response","492","565463","0.0-1.0-689.0-0.0","0","0","10681","","954","","","68","76","","","2","76","training","adjacent","BA","2","1","O.jpg","L.jpg","0","0","1","",""
"","feedback","","html-keyboard-response","493","566475","0.0-1.0-690.0-0.0","0","0","10681","","null","","","null","76","","","","","","","","","","","","","","","",""
"","ITI","","html-keyboard-response","494","567489","0.0-1.0-693.0","0","0","10681","","null","","","null","76","","","","","","","","","","","","","","","NaN",""
"","S1","","html-keyboard-response","495","567749","0.0-1.0-695.0","0","0","10681","","null","","","null","77","","","","","","","","","","","","","","","",""
"","ISI","","html-keyboard-response","496","568765","0.0-1.0-696.0","0","0","10681","","null","","","null","77","NaN","","","","","","","","","","","","","","",""
"","S2","","html-keyboard-response","497","569026","0.0-1.0-697.0","0","0","10681","","null","","","null","77","","NaN","","","","","","","","","","","","","",""
"","response","","html-keyboard-response","498","570160","0.0-1.0-698.0-0.0","0","0","10681","","1124","","","68","77","","","2","77","training","adjacent","CB","3","2","P.jpg","O.jpg","0","0","1","",""
"","feedback","","html-keyboard-response","499","571173","0.0-1.0-699.0-0.0","0","0","10681","","null","","","null","77","","","","","","","","","","","","","","","",""
"","ITI","","html-keyboard-response","500","572184","0.0-1.0-702.0","0","0","10681","","null","","","null","77","","","","","","","","","","","","","","","NaN",""
"","S1","","html-keyboard-response","501","572448","0.0-1.0-704.0","0","0","10681","","null","","","null","78","","","","","","","","","","","","","","","",""
"","ISI","","html-keyboard-response","502","573460","0.0-1.0-705.0","0","0","10681","","null","","","null","78","NaN","","","","","","","","","","","","","","",""
"","S2","","html-keyboard-response","503","573721","0.0-1.0-706.0","0","0","10681","","null","","","null","78","","NaN","","","","","","","","","","","","","",""
"","response","","html-keyboard-response","504","574790","0.0-1.0-707.0-0.0","0","0","10681","","1058","","","75","78","","","2","78","training","adjacent","FE","6","5","M.jpg","R.jpg","1","0","0","",""
"","feedback","","html-keyboard-response","505","575802","0.0-1.0-708.0-0.0","0","0","10681","","null","","","null","78","","","","","","","","","","","","","","","",""
"","time_out","","html-keyboard-response","506","577813","0.0-1.0-710.0-0.0","0","0","10681","","null","","","null","78","","","","","","","","","","","","","","","",""
"","ITI","","html-keyboard-response","507","578823","0.0-1.0-711.0","0","0","10681","","null","","","null","78","","","","","","","","","","","","","","","NaN",""
"","S1","","html-keyboard-response","508","579086","0.0-1.0-713.0","0","0","10681","","null","","","null","79","","","","","","","","","","","","","","","",""
"","ISI","","html-keyboard-response","509","580096","0.0-1.0-714.0","0","0","10681","","null","","","null","79","NaN","","","","","","","","","","","","","","",""
"","S2","","html-keyboard-response","510","580357","0.0-1.0-715.0","0","0","10681","","null","","","null","79","","NaN","","","","","","","","","","","","","",""
"","response","","html-keyboard-response","511","581730","0.0-1.0-716.0-0.0","0","0","10681","","1363","","","75","79","","","2","79","training","adjacent","CD","3","4","P.jpg","Q.jpg","1","1","1","",""
"","feedback","","html-keyboard-response","512","582742","0.0-1.0-717.0-0.0","0","0","10681","","null","","","null","79","","","","","","","","","","","","","","","",""
"","ITI","","html-keyboard-response","513","583756","0.0-1.0-720.0","0","0","10681","","null","","","null","79","","","","","","","","","","","","","","","NaN",""
"","S1","","html-keyboard-response","514","584018","0.0-1.0-722.0","0","0","10681","","null","","","null","80","","","","","","","","","","","","","","","",""
"","ISI","","html-keyboard-response","515","585031","0.0-1.0-723.0","0","0","10681","","null","","","null","80","NaN","","","","","","","","","","","","","","",""
"","S2","","html-keyboard-response","516","585295","0.0-1.0-724.0","0","0","10681","","null","","","null","80","","NaN","","","","","","","","","","","","","",""
"","response","","html-keyboard-response","517","585885","0.0-1.0-725.0-0.0","0","0","10681","","580","","","75","80","","","2","80","training","adjacent","CD","3","4","P.jpg","Q.jpg","1","1","1","",""
"","feedback","","html-keyboard-response","518","586898","0.0-1.0-726.0-0.0","0","0","10681","","null","","","null","80","","","","","","","","","","","","","","","",""
"","ITI","","html-keyboard-response","519","587910","0.0-1.0-729.0","0","0","10681","","null","","","null","80","","","","","","","","","","","","","","","NaN",""
"","S1","","html-keyboard-response","520","588174","0.0-1.0-731.0","0","0","10681","","null","","","null","81","","","","","","","","","","","","","","","",""
"","ISI","","html-keyboard-response","521","589184","0.0-1.0-732.0","0","0","10681","","null","","","null","81","NaN","","","","","","","","","","","","","","",""
"","S2","","html-keyboard-response","522","589445","0.0-1.0-733.0","0","0","10681","","null","","","null","81","","NaN","","","","","","","","","","","","","",""
"","response","","html-keyboard-response","523","590254","0.0-1.0-734.0-0.0","0","0","10681","","799","","","68","81","","","2","81","training","adjacent","EF","5","6","R.jpg","M.jpg","0","1","0","",""
"","feedback","","html-keyboard-response","524","591266","0.0-1.0-735.0-0.0","0","0","10681","","null","","","null","81","","","","","","","","","","","","","","","",""
"","time_out","","html-keyboard-response","525","593279","0.0-1.0-737.0-0.0","0","0","10681","","null","","","null","81","","","","","","","","","","","","","","","",""
"","ITI","","html-keyboard-response","526","594290","0.0-1.0-738.0","0","0","10681","","null","","","null","81","","","","","","","","","","","","","","","NaN",""
"","S1","","html-keyboard-response","527","594551","0.0-1.0-740.0","0","0","10681","","null","","","null","82","","","","","","","","","","","","","","","",""
"","ISI","","html-keyboard-response","528","595560","0.0-1.0-741.0","0","0","10681","","null","","","null","82","NaN","","","","","","","","","","","","","","",""
"","S2","","html-keyboard-response","529","595822","0.0-1.0-742.0","0","0","10681","","null","","","null","82","","NaN","","","","","","","","","","","","","",""
"","response","","html-keyboard-response","530","597046","0.0-1.0-743.0-0.0","0","0","10681","","1212","","","68","82","","","2","82","training","adjacent","DE","4","5","Q.jpg","R.jpg","0","1","0","",""
"","feedback","","html-keyboard-response","531","598061","0.0-1.0-744.0-0.0","0","0","10681","","null","","","null","82","","","","","","","","","","","","","","","",""
"","time_out","","html-keyboard-response","532","600073","0.0-1.0-746.0-0.0","0","0","10681","","null","","","null","82","","","","","","","","","","","","","","","",""
"","ITI","","html-keyboard-response","533","601084","0.0-1.0-747.0","0","0","10681","","null","","","null","82","","","","","","","","","","","","","","","NaN",""
"","S1","","html-keyboard-response","534","601346","0.0-1.0-749.0","0","0","10681","","null","","","null","83","","","","","","","","","","","","","","","",""
"","ISI","","html-keyboard-response","535","602358","0.0-1.0-750.0","0","0","10681","","null","","","null","83","NaN","","","","","","","","","","","","","","",""
"","S2","","html-keyboard-response","536","602618","0.0-1.0-751.0","0","0","10681","","null","","","null","83","","NaN","","","","","","","","","","","","","",""
"","response","","html-keyboard-response","537","603873","0.0-1.0-752.0-0.0","0","0","10681","","1243","","","75","83","","","2","83","training","adjacent","AB","1","2","L.jpg","O.jpg","1","1","1","",""
"","feedback","","html-keyboard-response","538","604886","0.0-1.0-753.0-0.0","0","0","10681","","null","","","null","83","","","","","","","","","","","","","","","",""
"","ITI","","html-keyboard-response","539","605900","0.0-1.0-756.0","0","0","10681","","null","","","null","83","","","","","","","","","","","","","","","NaN",""
"","S1","","html-keyboard-response","540","606163","0.0-1.0-758.0","0","0","10681","","null","","","null","84","","","","","","","","","","","","","","","",""
"","ISI","","html-keyboard-response","541","607173","0.0-1.0-759.0","0","0","10681","","null","","","null","84","NaN","","","","","","","","","","","","","","",""
"","S2","","html-keyboard-response","542","607435","0.0-1.0-760.0","0","0","10681","","null","","","null","84","","NaN","","","","","","","","","","","","","",""
"","response","","html-keyboard-response","543","608889","0.0-1.0-761.0-0.0","0","0","10681","","1445","","","68","84","","","2","84","training","adjacent","DC","4","3","Q.jpg","P.jpg","0","0","1","",""
"","feedback","","html-keyboard-response","544","609901","0.0-1.0-762.0-0.0","0","0","10681","","null","","","null","84","","","","","","","","","","","","","","","",""
"","ITI","","html-keyboard-response","545","610913","0.0-1.0-765.0","0","0","10681","","null","","","null","84","","","","","","","","","","","","","","","NaN",""
"","S1","","html-keyboard-response","546","611177","0.0-1.0-767.0","0","0","10681","","null","","","null","85","","","","","","","","","","","","","","","",""
"","ISI","","html-keyboard-response","547","612188","0.0-1.0-768.0","0","0","10681","","null","","","null","85","NaN","","","","","","","","","","","","","","",""
"","S2","","html-keyboard-response","548","612451","0.0-1.0-769.0","0","0","10681","","null","","","null","85","","NaN","","","","","","","","","","","","","",""
"","response","","html-keyboard-response","549","613734","0.0-1.0-770.0-0.0","0","0","10681","","1273","","","68","85","","","2","85","training","adjacent","FG","6","7","M.jpg","N.jpg","0","1","0","",""
"","feedback","","html-keyboard-response","550","614749","0.0-1.0-771.0-0.0","0","0","10681","","null","","","null","85","","","","","","","","","","","","","","","",""
"","time_out","","html-keyboard-response","551","616758","0.0-1.0-773.0-0.0","0","0","10681","","null","","","null","85","","","","","","","","","","","","","","","",""
"","ITI","","html-keyboard-response","552","617770","0.0-1.0-774.0","0","0","10681","","null","","","null","85","","","","","","","","","","","","","","","NaN",""
"","S1","","html-keyboard-response","553","618029","0.0-1.0-776.0","0","0","10681","","null","","","null","86","","","","","","","","","","","","","","","",""
"","ISI","","html-keyboard-response","554","619041","0.0-1.0-777.0","0","0","10681","","null","","","null","86","NaN","","","","","","","","","","","","","","",""
"","S2","","html-keyboard-response","555","619303","0.0-1.0-778.0","0","0","10681","","null","","","null","86","","NaN","","","","","","","","","","","","","",""
"","response","","html-keyboard-response","556","620092","0.0-1.0-779.0-0.0","0","0","10681","","779","","","75","86","","","2","86","training","adjacent","AB","1","2","L.jpg","O.jpg","1","1","1","",""
"","feedback","","html-keyboard-response","557","621104","0.0-1.0-780.0-0.0","0","0","10681","","null","","","null","86","","","","","","","","","","","","","","","",""
"","ITI","","html-keyboard-response","558","622119","0.0-1.0-783.0","0","0","10681","","null","","","null","86","","","","","","","","","","","","","","","NaN",""
"","S1","","html-keyboard-response","559","622382","0.0-1.0-785.0","0","0","10681","","null","","","null","87","","","","","","","","","","","","","","","",""
"","ISI","","html-keyboard-response","560","623393","0.0-1.0-786.0","0","0","10681","","null","","","null","87","NaN","","","","","","","","","","","","","","",""
"","S2","","html-keyboard-response","561","623656","0.0-1.0-787.0","0","0","10681","","null","","","null","87","","NaN","","","","","","","","","","","","","",""
"","response","","html-keyboard-response","562","624237","0.0-1.0-788.0-0.0","0","0","10681","","571","","","68","87","","","2","87","training","adjacent","BA","2","1","O.jpg","L.jpg","0","0","1","",""
"","feedback","","html-keyboard-response","563","625249","0.0-1.0-789.0-0.0","0","0","10681","","null","","","null","87","","","","","","","","","","","","","","","",""
"","ITI","","html-keyboard-response","564","626263","0.0-1.0-792.0","0","0","10681","","null","","","null","87","","","","","","","","","","","","","","","NaN",""
"","S1","","html-keyboard-response","565","626530","0.0-1.0-794.0","0","0","10681","","null","","","null","88","","","","","","","","","","","","","","","",""
"","ISI","","html-keyboard-response","566","627541","0.0-1.0-795.0","0","0","10681","","null","","","null","88","NaN","","","","","","","","","","","","","","",""
"","S2","","html-keyboard-response","567","627802","0.0-1.0-796.0","0","0","10681","","null","","","null","88","","NaN","","","","","","","","","","","","","",""
"","response","","html-keyboard-response","568","629048","0.0-1.0-797.0-0.0","0","0","10681","","1234","","","75","88","","","2","88","training","adjacent","DC","4","3","Q.jpg","P.jpg","1","0","0","",""
"","feedback","","html-keyboard-response","569","630059","0.0-1.0-798.0-0.0","0","0","10681","","null","","","null","88","","","","","","","","","","","","","","","",""
"","time_out","","html-keyboard-response","570","632073","0.0-1.0-800.0-0.0","0","0","10681","","null","","","null","88","","","","","","","","","","","","","","","",""
"","ITI","","html-keyboard-response","571","633085","0.0-1.0-801.0","0","0","10681","","null","","","null","88","","","","","","","","","","","","","","","NaN",""
"","S1","","html-keyboard-response","572","633347","0.0-1.0-803.0","0","0","10681","","null","","","null","89","","","","","","","","","","","","","","","",""
"","ISI","","html-keyboard-response","573","634359","0.0-1.0-804.0","0","0","10681","","null","","","null","89","NaN","","","","","","","","","","","","","","",""
"","S2","","html-keyboard-response","574","634626","0.0-1.0-805.0","0","0","10681","","null","","","null","89","","NaN","","","","","","","","","","","","","",""
"","response","","html-keyboard-response","575","635642","0.0-1.0-806.0-0.0","0","0","10681","","1008","","","75","89","","","2","89","training","adjacent","EF","5","6","R.jpg","M.jpg","1","1","1","",""
"","feedback","","html-keyboard-response","576","636658","0.0-1.0-807.0-0.0","0","0","10681","","null","","","null","89","","","","","","","","","","","","","","","",""
"","ITI","","html-keyboard-response","577","637673","0.0-1.0-810.0","0","0","10681","","null","","","null","89","","","","","","","","","","","","","","","NaN",""
"","S1","","html-keyboard-response","578","637936","0.0-1.0-812.0","0","0","10681","","null","","","null","90","","","","","","","","","","","","","","","",""
"","ISI","","html-keyboard-response","579","638946","0.0-1.0-813.0","0","0","10681","","null","","","null","90","NaN","","","","","","","","","","","","","","",""
"","S2","","html-keyboard-response","580","639212","0.0-1.0-814.0","0","0","10681","","null","","","null","90","","NaN","","","","","","","","","","","","","",""
