"success","ttype","start_time","trial_type","trial_index","time_elapsed","internal_node_id","warning","missed_checkup","PID","view_history","rt","responses","repeat_instructions","key_press","index","keypress_isi","keypress_S2","block","trial_num","phase","group_type","pair_type","S1_stim","S2_stim","S1_img","S2_img","S1_chosen","S1_higher","accuracy","keypress_iti","total_bonus_tally"
"true","full_screen","d08012022hr1455","fullscreen","0","3760","0.0-0.0","0","0","40046","","","","","","","","","","","","","","","","","","","","","",""
"","instructions","","instructions","1","194403","0.0-1.0-0.0-0.0","0","0","40046","[{""page_index"":0,""viewing_time"":6721},{""page_index"":1,""viewing_time"":176404},{""page_index"":2,""viewing_time"":5113},{""page_index"":3,""viewing_time"":2398}]","190639","","","","","","","","","","","","","","","","","","","",""
"","comprehension_check","","survey-multi-choice","2","256804","0.0-1.0-0.0-1.0","0","0","40046","","62393","{""Q0"":""True"",""Q1"":""D"",""Q2"":""When you see the prompt 'MAKE A CHOICE' after the second image was presented"",""Q3"":""Green mark"",""Q4"":""either D or K""}","0","","","","","","","","","","","","","","","","","",""
"","start_exp","","html-keyboard-response","3","261203","0.0-1.0-1.0","0","0","40046","","4395","","","32","","","","","","","","","","","","","","","","",""
"","S1","","html-keyboard-response","4","261461","0.0-1.0-2.0","0","0","40046","","null","","","null","0","","","","","","","","","","","","","","","",""
"","ISI","","html-keyboard-response","5","263464","0.0-1.0-3.0","0","0","40046","","null","","","null","0","NaN","","","","","","","","","","","","","","",""
"","S2","","html-keyboard-response","6","263719","0.0-1.0-4.0","0","0","40046","","null","","","null","0","","NaN","","","","","","","","","","","","","",""
"","response","","html-keyboard-response","7","265724","0.0-1.0-5.0","0","0","40046","","null","","","null","0","","","1","0","training","adjacent","FG","6","7","R.jpg","L.jpg","NaN","1","0","",""
"","too_slow_prompt","","html-keyboard-response","8","266730","0.0-1.0-7.0-0.0","1","0","40046","","null","","","null","","","","","","","","","","","","","","","","",""
"","time_out","","html-keyboard-response","9","268739","0.0-1.0-8.0-0.0","0","0","40046","","null","","","null","0","","","","","","","","","","","","","","","",""
"","ITI","","html-keyboard-response","10","269743","0.0-1.0-9.0","0","0","40046","","68","","","68","0","","","","","","","","","","","","","","","d",""
"","S1","","html-keyboard-response","11","269996","0.0-1.0-11.0","0","0","40046","","null","","","null","1","","","","","","","","","","","","","","","",""
"","ISI","","html-keyboard-response","12","272003","0.0-1.0-12.0","0","0","40046","","123","","","75","1","k","","","","","","","","","","","","","","",""
"","S2","","html-keyboard-response","13","272257","0.0-1.0-13.0","0","0","40046","","null","","","null","1","","NaN","","","","","","","","","","","","","",""
"","response","","html-keyboard-response","14","272352","0.0-1.0-14.0","0","0","40046","","93","","","68","1","","","1","1","training","adjacent","DE","4","5","P.jpg","Q.jpg","1","1","1","",""
"","feedback","","html-keyboard-response","15","273356","0.0-1.0-15.0-0.0","0","0","40046","","null","","","null","1","","","","","","","","","","","","","","","",""
"","ITI","","html-keyboard-response","16","274361","0.0-1.0-18.0","0","0","40046","","null","","","null","1","","","","","","","","","","","","","","","NaN",""
"","S1","","html-keyboard-response","17","274614","0.0-1.0-20.0","0","0","40046","","null","","","null","2","","","","","","","","","","","","","","","",""
"","ISI","","html-keyboard-response","18","276618","0.0-1.0-21.0","0","0","40046","","781","","","68","2","d","","","","","","","","","","","","","","",""
"","S2","","html-keyboard-response","19","276872","0.0-1.0-22.0","0","0","40046","","84","","","68","2","","d","","","","","","","","","","","","","",""
"","response","","html-keyboard-response","20","277232","0.0-1.0-23.0","0","0","40046","","357","","","68","2","","","1","2","training","adjacent","BA","2","1","N.jpg","O.jpg","1","0","0","",""
"","feedback","","html-keyboard-response","21","278236","0.0-1.0-24.0-0.0","0","0","40046","","null","","","null","2","","","","","","","","","","","","","","","",""
"","time_out","","html-keyboard-response","22","280251","0.0-1.0-26.0-0.0","0","0","40046","","null","","","null","2","","","","","","","","","","","","","","","",""
"","ITI","","html-keyboard-response","23","281284","0.0-1.0-27.0","0","0","40046","","null","","","null","2","","","","","","","","","","","","","","","NaN",""
"","S1","","html-keyboard-response","24","281541","0.0-1.0-29.0","0","0","40046","","null","","","null","3","","","","","","","","","","","","","","","",""
"","ISI","","html-keyboard-response","25","283544","0.0-1.0-30.0","0","0","40046","","537","","","72","3","h","","","","","","","","","","","","","","",""
"","S2","","html-keyboard-response","26","283802","0.0-1.0-31.0","0","0","40046","","null","","","null","3","","NaN","","","","","","","","","","","","","",""
"","response","","html-keyboard-response","27","284386","0.0-1.0-32.0","0","0","40046","","581","","","68","3","","","1","3","training","adjacent","FE","6","5","R.jpg","Q.jpg","1","0","0","",""
"","feedback","","html-keyboard-response","28","285391","0.0-1.0-33.0-0.0","0","0","40046","","null","","","null","3","","","","","","","","","","","","","","","",""
"","time_out","","html-keyboard-response","29","287395","0.0-1.0-35.0-0.0","0","0","40046","","null","","","null","3","","","","","","","","","","","","","","","",""
"","ITI","","html-keyboard-response","30","288396","0.0-1.0-36.0","0","0","40046","","null","","","null","3","","","","","","","","","","","","","","","NaN",""
"","S1","","html-keyboard-response","31","288652","0.0-1.0-38.0","0","0","40046","","null","","","null","4","","","","","","","","","","","","","","","",""
"","ISI","","html-keyboard-response","32","290653","0.0-1.0-39.0","0","0","40046","","564","","","72","4","h","","","","","","","","","","","","","","",""
"","S2","","html-keyboard-response","33","290906","0.0-1.0-40.0","0","0","40046","","null","","","null","4","","NaN","","","","","","","","","","","","","",""
"","response","","html-keyboard-response","34","291554","0.0-1.0-41.0","0","0","40046","","645","","","68","4","","","1","4","training","adjacent","ED","5","4","Q.jpg","P.jpg","1","0","0","",""
"","feedback","","html-keyboard-response","35","292557","0.0-1.0-42.0-0.0","0","0","40046","","null","","","null","4","","","","","","","","","","","","","","","",""
"","time_out","","html-keyboard-response","36","294560","0.0-1.0-44.0-0.0","0","0","40046","","null","","","null","4","","","","","","","","","","","","","","","",""
"","ITI","","html-keyboard-response","37","295563","0.0-1.0-45.0","0","0","40046","","null","","","null","4","","","","","","","","","","","","","","","NaN",""
"","S1","","html-keyboard-response","38","295829","0.0-1.0-47.0","0","0","40046","","null","","","null","5","","","","","","","","","","","","","","","",""
"","ISI","","html-keyboard-response","39","297882","0.0-1.0-48.0","0","0","40046","","569","","","72","5","h","","","","","","","","","","","","","","",""
"","S2","","html-keyboard-response","40","298161","0.0-1.0-49.0","0","0","40046","","null","","","null","5","","NaN","","","","","","","","","","","","","",""
"","response","","html-keyboard-response","41","298726","0.0-1.0-50.0","0","0","40046","","562","","","68","5","","","1","5","training","adjacent","CB","3","2","M.jpg","N.jpg","1","0","0","",""
"","feedback","","html-keyboard-response","42","299729","0.0-1.0-51.0-0.0","0","0","40046","","null","","","null","5","","","","","","","","","","","","","","","",""
"","time_out","","html-keyboard-response","43","301731","0.0-1.0-53.0-0.0","0","0","40046","","null","","","null","5","","","","","","","","","","","","","","","",""
"","ITI","","html-keyboard-response","44","302737","0.0-1.0-54.0","0","0","40046","","568","","","72","5","","","","","","","","","","","","","","","h",""
"","S1","","html-keyboard-response","45","302991","0.0-1.0-56.0","0","0","40046","","null","","","null","6","","","","","","","","","","","","","","","",""
"","ISI","","html-keyboard-response","46","304993","0.0-1.0-57.0","0","0","40046","","16","","","72","6","h","","","","","","","","","","","","","","",""
"","S2","","html-keyboard-response","47","305247","0.0-1.0-58.0","0","0","40046","","null","","","null","6","","NaN","","","","","","","","","","","","","",""
"","response","","html-keyboard-response","48","307252","0.0-1.0-59.0","0","0","40046","","null","","","null","6","","","1","6","training","adjacent","FG","6","7","R.jpg","L.jpg","NaN","1","0","",""
"","too_slow_prompt","","html-keyboard-response","49","308257","0.0-1.0-61.0-0.0","1","0","40046","","null","","","null","","","","","","","","","","","","","","","","",""
"","time_out","","html-keyboard-response","50","310262","0.0-1.0-62.0-0.0","0","0","40046","","null","","","null","6","","","","","","","","","","","","","","","",""
"","ITI","","html-keyboard-response","51","311268","0.0-1.0-63.0","0","0","40046","","132","","","72","6","","","","","","","","","","","","","","","h",""
"","S1","","html-keyboard-response","52","311523","0.0-1.0-65.0","0","0","40046","","null","","","null","7","","","","","","","","","","","","","","","",""
"","ISI","","html-keyboard-response","53","313557","0.0-1.0-66.0","0","0","40046","","92","","","72","7","h","","","","","","","","","","","","","","",""
"","S2","","html-keyboard-response","54","313810","0.0-1.0-67.0","0","0","40046","","null","","","null","7","","NaN","","","","","","","","","","","","","",""
"","response","","html-keyboard-response","55","313929","0.0-1.0-68.0","0","0","40046","","117","","","68","7","","","1","7","training","adjacent","CB","3","2","M.jpg","N.jpg","1","0","0","",""
"","feedback","","html-keyboard-response","56","314933","0.0-1.0-69.0-0.0","0","0","40046","","null","","","null","7","","","","","","","","","","","","","","","",""
"","time_out","","html-keyboard-response","57","316939","0.0-1.0-71.0-0.0","0","0","40046","","null","","","null","7","","","","","","","","","","","","","","","",""
"","ITI","","html-keyboard-response","58","317943","0.0-1.0-72.0","0","0","40046","","52","","","72","7","","","","","","","","","","","","","","","h",""
"","S1","","html-keyboard-response","59","318196","0.0-1.0-74.0","0","0","40046","","null","","","null","8","","","","","","","","","","","","","","","",""
"","ISI","","html-keyboard-response","60","320200","0.0-1.0-75.0","0","0","40046","","99","","","72","8","h","","","","","","","","","","","","","","",""
"","S2","","html-keyboard-response","61","320460","0.0-1.0-76.0","0","0","40046","","112","","","72","8","","h","","","","","","","","","","","","","",""
"","response","","html-keyboard-response","62","321213","0.0-1.0-77.0","0","0","40046","","749","","","68","8","","","1","8","training","adjacent","CD","3","4","M.jpg","P.jpg","1","1","1","",""
"","feedback","","html-keyboard-response","63","322218","0.0-1.0-78.0-0.0","0","0","40046","","null","","","null","8","","","","","","","","","","","","","","","",""
"","ITI","","html-keyboard-response","64","323242","0.0-1.0-81.0","0","0","40046","","141","","","72","8","","","","","","","","","","","","","","","h",""
"","S1","","html-keyboard-response","65","323502","0.0-1.0-83.0","0","0","40046","","null","","","null","9","","","","","","","","","","","","","","","",""
"","ISI","","html-keyboard-response","66","325508","0.0-1.0-84.0","0","0","40046","","128","","","72","9","h","","","","","","","","","","","","","","",""
"","S2","","html-keyboard-response","67","325764","0.0-1.0-85.0","0","0","40046","","null","","","null","9","","NaN","","","","","","","","","","","","","",""
"","response","","html-keyboard-response","68","325838","0.0-1.0-86.0","0","0","40046","","68","","","68","9","","","1","9","training","adjacent","DE","4","5","P.jpg","Q.jpg","1","1","1","",""
"","feedback","","html-keyboard-response","69","326842","0.0-1.0-87.0-0.0","0","0","40046","","null","","","null","9","","","","","","","","","","","","","","","",""
"","ITI","","html-keyboard-response","70","327846","0.0-1.0-90.0","0","0","40046","","134","","","72","9","","","","","","","","","","","","","","","h",""
"","S1","","html-keyboard-response","71","328100","0.0-1.0-92.0","0","0","40046","","null","","","null","10","","","","","","","","","","","","","","","",""
"","ISI","","html-keyboard-response","72","330104","0.0-1.0-93.0","0","0","40046","","254","","","72","10","h","","","","","","","","","","","","","","",""
"","S2","","html-keyboard-response","73","330363","0.0-1.0-94.0","0","0","40046","","240","","","68","10","","d","","","","","","","","","","","","","",""
"","response","","html-keyboard-response","74","330623","0.0-1.0-95.0","0","0","40046","","255","","","68","10","","","1","10","training","adjacent","GF","7","6","L.jpg","R.jpg","1","0","0","",""
"","feedback","","html-keyboard-response","75","331626","0.0-1.0-96.0-0.0","0","0","40046","","null","","","null","10","","","","","","","","","","","","","","","",""
"","time_out","","html-keyboard-response","76","333628","0.0-1.0-98.0-0.0","0","0","40046","","null","","","null","10","","","","","","","","","","","","","","","",""
"","ITI","","html-keyboard-response","77","334632","0.0-1.0-99.0","0","0","40046","","420","","","72","10","","","","","","","","","","","","","","","h",""
"","S1","","html-keyboard-response","78","334928","0.0-1.0-101.0","0","0","40046","","null","","","null","11","","","","","","","","","","","","","","","",""
"","ISI","","html-keyboard-response","79","336932","0.0-1.0-102.0","0","0","40046","","95","","","72","11","h","","","","","","","","","","","","","","",""
"","S2","","html-keyboard-response","80","337186","0.0-1.0-103.0","0","0","40046","","null","","","null","11","","NaN","","","","","","","","","","","","","",""
"","response","","html-keyboard-response","81","337962","0.0-1.0-104.0","0","0","40046","","774","","","68","11","","","1","11","training","adjacent","EF","5","6","Q.jpg","R.jpg","1","1","1","",""
"","feedback","","html-keyboard-response","82","338966","0.0-1.0-105.0-0.0","0","0","40046","","null","","","null","11","","","","","","","","","","","","","","","",""
"","ITI","","html-keyboard-response","83","339968","0.0-1.0-108.0","0","0","40046","","147","","","75","11","","","","","","","","","","","","","","","k",""
"","S1","","html-keyboard-response","84","340220","0.0-1.0-110.0","0","0","40046","","null","","","null","12","","","","","","","","","","","","","","","",""
"","ISI","","html-keyboard-response","85","342223","0.0-1.0-111.0","0","0","40046","","21","","","75","12","k","","","","","","","","","","","","","","",""
"","S2","","html-keyboard-response","86","342476","0.0-1.0-112.0","0","0","40046","","87","","","68","12","","d","","","","","","","","","","","","","",""
"","response","","html-keyboard-response","87","342656","0.0-1.0-113.0","0","0","40046","","176","","","75","12","","","1","12","training","adjacent","EF","5","6","Q.jpg","R.jpg","0","1","0","",""
"","feedback","","html-keyboard-response","88","343660","0.0-1.0-114.0-0.0","0","0","40046","","null","","","null","12","","","","","","","","","","","","","","","",""
"","time_out","","html-keyboard-response","89","345665","0.0-1.0-116.0-0.0","0","0","40046","","null","","","null","12","","","","","","","","","","","","","","","",""
"","ITI","","html-keyboard-response","90","346667","0.0-1.0-117.0","0","0","40046","","224","","","68","12","","","","","","","","","","","","","","","d",""
"","S1","","html-keyboard-response","91","346921","0.0-1.0-119.0","0","0","40046","","null","","","null","13","","","","","","","","","","","","","","","",""
"","ISI","","html-keyboard-response","92","348923","0.0-1.0-120.0","0","0","40046","","306","","","68","13","d","","","","","","","","","","","","","","",""
"","S2","","html-keyboard-response","93","349180","0.0-1.0-121.0","0","0","40046","","124","","","68","13","","d","","","","","","","","","","","","","",""
"","response","","html-keyboard-response","94","349363","0.0-1.0-122.0","0","0","40046","","180","","","75","13","","","1","13","training","adjacent","BC","2","3","N.jpg","M.jpg","0","1","0","",""
"","feedback","","html-keyboard-response","95","350365","0.0-1.0-123.0-0.0","0","0","40046","","null","","","null","13","","","","","","","","","","","","","","","",""
"","time_out","","html-keyboard-response","96","352368","0.0-1.0-125.0-0.0","0","0","40046","","null","","","null","13","","","","","","","","","","","","","","","",""
"","ITI","","html-keyboard-response","97","353404","0.0-1.0-126.0","0","0","40046","","375","","","68","13","","","","","","","","","","","","","","","d",""
"","S1","","html-keyboard-response","98","353667","0.0-1.0-128.0","0","0","40046","","null","","","null","14","","","","","","","","","","","","","","","",""
"","ISI","","html-keyboard-response","99","355670","0.0-1.0-129.0","0","0","40046","","54","","","68","14","d","","","","","","","","","","","","","","",""
"","S2","","html-keyboard-response","100","355923","0.0-1.0-130.0","0","0","40046","","179","","","68","14","","d","","","","","","","","","","","","","",""
"","response","","html-keyboard-response","101","356180","0.0-1.0-131.0","0","0","40046","","254","","","75","14","","","1","14","training","adjacent","BC","2","3","N.jpg","M.jpg","0","1","0","",""
"","feedback","","html-keyboard-response","102","357187","0.0-1.0-132.0-0.0","0","0","40046","","null","","","null","14","","","","","","","","","","","","","","","",""
"","time_out","","html-keyboard-response","103","359191","0.0-1.0-134.0-0.0","0","0","40046","","null","","","null","14","","","","","","","","","","","","","","","",""
"","ITI","","html-keyboard-response","104","360194","0.0-1.0-135.0","0","0","40046","","113","","","75","14","","","","","","","","","","","","","","","k",""
"","S1","","html-keyboard-response","105","360449","0.0-1.0-137.0","0","0","40046","","null","","","null","15","","","","","","","","","","","","","","","",""
"","ISI","","html-keyboard-response","106","362451","0.0-1.0-138.0","0","0","40046","","65","","","68","15","d","","","","","","","","","","","","","","",""
"","S2","","html-keyboard-response","107","362704","0.0-1.0-139.0","0","0","40046","","45","","","75","15","","k","","","","","","","","","","","","","",""
"","response","","html-keyboard-response","108","362772","0.0-1.0-140.0","0","0","40046","","65","","","68","15","","","1","15","training","adjacent","DC","4","3","P.jpg","M.jpg","1","0","0","",""
"","feedback","","html-keyboard-response","109","363775","0.0-1.0-141.0-0.0","0","0","40046","","null","","","null","15","","","","","","","","","","","","","","","",""
"","time_out","","html-keyboard-response","110","365777","0.0-1.0-143.0-0.0","0","0","40046","","null","","","null","15","","","","","","","","","","","","","","","",""
"","ITI","","html-keyboard-response","111","366780","0.0-1.0-144.0","0","0","40046","","127","","","68","15","","","","","","","","","","","","","","","d",""
"","S1","","html-keyboard-response","112","367033","0.0-1.0-146.0","0","0","40046","","null","","","null","16","","","","","","","","","","","","","","","",""
"","ISI","","html-keyboard-response","113","369037","0.0-1.0-147.0","0","0","40046","","183","","","68","16","d","","","","","","","","","","","","","","",""
"","S2","","html-keyboard-response","114","369291","0.0-1.0-148.0","0","0","40046","","59","","","68","16","","d","","","","","","","","","","","","","",""
"","response","","html-keyboard-response","115","369413","0.0-1.0-149.0","0","0","40046","","120","","","68","16","","","1","16","training","adjacent","DC","4","3","P.jpg","M.jpg","1","0","0","",""
"","feedback","","html-keyboard-response","116","370416","0.0-1.0-150.0-0.0","0","0","40046","","null","","","null","16","","","","","","","","","","","","","","","",""
"","time_out","","html-keyboard-response","117","372419","0.0-1.0-152.0-0.0","0","0","40046","","null","","","null","16","","","","","","","","","","","","","","","",""
"","ITI","","html-keyboard-response","118","373425","0.0-1.0-153.0","0","0","40046","","39","","","68","16","","","","","","","","","","","","","","","d",""
"","S1","","html-keyboard-response","119","373678","0.0-1.0-155.0","0","0","40046","","null","","","null","17","","","","","","","","","","","","","","","",""
"","ISI","","html-keyboard-response","120","375681","0.0-1.0-156.0","0","0","40046","","139","","","75","17","k","","","","","","","","","","","","","","",""
"","S2","","html-keyboard-response","121","375936","0.0-1.0-157.0","0","0","40046","","208","","","68","17","","d","","","","","","","","","","","","","",""
"","response","","html-keyboard-response","122","376020","0.0-1.0-158.0","0","0","40046","","81","","","75","17","","","1","17","training","adjacent","BA","2","1","N.jpg","O.jpg","0","0","1","",""
"","feedback","","html-keyboard-response","123","377024","0.0-1.0-159.0-0.0","0","0","40046","","null","","","null","17","","","","","","","","","","","","","","","",""
"","ITI","","html-keyboard-response","124","378027","0.0-1.0-162.0","0","0","40046","","null","","","null","17","","","","","","","","","","","","","","","NaN",""
"","S1","","html-keyboard-response","125","378417","0.0-1.0-164.0","0","0","40046","","null","","","null","18","","","","","","","","","","","","","","","",""
"","ISI","","html-keyboard-response","126","380420","0.0-1.0-165.0","0","0","40046","","35","","","68","18","d","","","","","","","","","","","","","","",""
"","S2","","html-keyboard-response","127","380693","0.0-1.0-166.0","0","0","40046","","38","","","75","18","","k","","","","","","","","","","","","","",""
"","response","","html-keyboard-response","128","380706","0.0-1.0-167.0","0","0","40046","","11","","","68","18","","","1","18","training","adjacent","FG","6","7","R.jpg","L.jpg","1","1","1","",""
"","feedback","","html-keyboard-response","129","381713","0.0-1.0-168.0-0.0","0","0","40046","","null","","","null","18","","","","","","","","","","","","","","","",""
"","ITI","","html-keyboard-response","130","382716","0.0-1.0-171.0","0","0","40046","","123","","","68","18","","","","","","","","","","","","","","","d",""
"","S1","","html-keyboard-response","131","382971","0.0-1.0-173.0","0","0","40046","","null","","","null","19","","","","","","","","","","","","","","","",""
"","ISI","","html-keyboard-response","132","384974","0.0-1.0-174.0","0","0","40046","","39","","","68","19","d","","","","","","","","","","","","","","",""
"","S2","","html-keyboard-response","133","385229","0.0-1.0-175.0","0","0","40046","","null","","","null","19","","NaN","","","","","","","","","","","","","",""
"","response","","html-keyboard-response","134","386461","0.0-1.0-176.0","0","0","40046","","1228","","","68","19","","","1","19","training","adjacent","AB","1","2","O.jpg","N.jpg","1","1","1","",""
"","feedback","","html-keyboard-response","135","387466","0.0-1.0-177.0-0.0","0","0","40046","","null","","","null","19","","","","","","","","","","","","","","","",""
"","ITI","","html-keyboard-response","136","388516","0.0-1.0-180.0","0","0","40046","","56","","","68","19","","","","","","","","","","","","","","","d",""
"","S1","","html-keyboard-response","137","388772","0.0-1.0-182.0","0","0","40046","","null","","","null","20","","","","","","","","","","","","","","","",""
"","ISI","","html-keyboard-response","138","390776","0.0-1.0-183.0","0","0","40046","","1133","","","75","20","k","","","","","","","","","","","","","","",""
"","S2","","html-keyboard-response","139","391031","0.0-1.0-184.0","0","0","40046","","25","","","68","20","","d","","","","","","","","","","","","","",""
"","response","","html-keyboard-response","140","391094","0.0-1.0-185.0","0","0","40046","","60","","","68","20","","","1","20","training","adjacent","BA","2","1","N.jpg","O.jpg","1","0","0","",""
"","feedback","","html-keyboard-response","141","392098","0.0-1.0-186.0-0.0","0","0","40046","","null","","","null","20","","","","","","","","","","","","","","","",""
"","time_out","","html-keyboard-response","142","394102","0.0-1.0-188.0-0.0","0","0","40046","","null","","","null","20","","","","","","","","","","","","","","","",""
"","ITI","","html-keyboard-response","143","395107","0.0-1.0-189.0","0","0","40046","","156","","","75","20","","","","","","","","","","","","","","","k",""
"","S1","","html-keyboard-response","144","395404","0.0-1.0-191.0","0","0","40046","","null","","","null","21","","","","","","","","","","","","","","","",""
"","ISI","","html-keyboard-response","145","397406","0.0-1.0-192.0","0","0","40046","","15","","","75","21","k","","","","","","","","","","","","","","",""
"","S2","","html-keyboard-response","146","397658","0.0-1.0-193.0","0","0","40046","","163","","","68","21","","d","","","","","","","","","","","","","",""
"","response","","html-keyboard-response","147","397829","0.0-1.0-194.0","0","0","40046","","168","","","68","21","","","1","21","training","adjacent","GF","7","6","L.jpg","R.jpg","1","0","0","",""
"","feedback","","html-keyboard-response","148","398833","0.0-1.0-195.0-0.0","0","0","40046","","null","","","null","21","","","","","","","","","","","","","","","",""
"","time_out","","html-keyboard-response","149","400837","0.0-1.0-197.0-0.0","0","0","40046","","null","","","null","21","","","","","","","","","","","","","","","",""
"","ITI","","html-keyboard-response","150","401844","0.0-1.0-198.0","0","0","40046","","190","","","68","21","","","","","","","","","","","","","","","d",""
"","S1","","html-keyboard-response","151","402100","0.0-1.0-200.0","0","0","40046","","null","","","null","22","","","","","","","","","","","","","","","",""
"","ISI","","html-keyboard-response","152","404101","0.0-1.0-201.0","0","0","40046","","145","","","68","22","d","","","","","","","","","","","","","","",""
"","S2","","html-keyboard-response","153","404354","0.0-1.0-202.0","0","0","40046","","82","","","75","22","","k","","","","","","","","","","","","","",""
"","response","","html-keyboard-response","154","404389","0.0-1.0-203.0","0","0","40046","","33","","","68","22","","","1","22","training","adjacent","GF","7","6","L.jpg","R.jpg","1","0","0","",""
"","feedback","","html-keyboard-response","155","405393","0.0-1.0-204.0-0.0","0","0","40046","","null","","","null","22","","","","","","","","","","","","","","","",""
"","time_out","","html-keyboard-response","156","407395","0.0-1.0-206.0-0.0","0","0","40046","","null","","","null","22","","","","","","","","","","","","","","","",""
"","ITI","","html-keyboard-response","157","408397","0.0-1.0-207.0","0","0","40046","","251","","","75","22","","","","","","","","","","","","","","","k",""
"","S1","","html-keyboard-response","158","408648","0.0-1.0-209.0","0","0","40046","","null","","","null","23","","","","","","","","","","","","","","","",""
"","ISI","","html-keyboard-response","159","410654","0.0-1.0-210.0","0","0","40046","","43","","","68","23","d","","","","","","","","","","","","","","",""
"","S2","","html-keyboard-response","160","410908","0.0-1.0-211.0","0","0","40046","","60","","","68","23","","d","","","","","","","","","","","","","",""
"","response","","html-keyboard-response","161","411009","0.0-1.0-212.0","0","0","40046","","98","","","68","23","","","1","23","training","adjacent","EF","5","6","Q.jpg","R.jpg","1","1","1","",""
"","feedback","","html-keyboard-response","162","412011","0.0-1.0-213.0-0.0","0","0","40046","","null","","","null","23","","","","","","","","","","","","","","","",""
"","ITI","","html-keyboard-response","163","413015","0.0-1.0-216.0","0","0","40046","","15","","","75","23","","","","","","","","","","","","","","","k",""
"","S1","","html-keyboard-response","164","413273","0.0-1.0-218.0","0","0","40046","","null","","","null","24","","","","","","","","","","","","","","","",""
"","ISI","","html-keyboard-response","165","415277","0.0-1.0-219.0","0","0","40046","","33","","","68","24","d","","","","","","","","","","","","","","",""
"","S2","","html-keyboard-response","166","415530","0.0-1.0-220.0","0","0","40046","","167","","","75","24","","k","","","","","","","","","","","","","",""
"","response","","html-keyboard-response","167","415602","0.0-1.0-221.0","0","0","40046","","67","","","68","24","","","1","24","training","adjacent","FE","6","5","R.jpg","Q.jpg","1","0","0","",""
"","feedback","","html-keyboard-response","168","416606","0.0-1.0-222.0-0.0","0","0","40046","","null","","","null","24","","","","","","","","","","","","","","","",""
"","time_out","","html-keyboard-response","169","418608","0.0-1.0-224.0-0.0","0","0","40046","","null","","","null","24","","","","","","","","","","","","","","","",""
"","ITI","","html-keyboard-response","170","419612","0.0-1.0-225.0","0","0","40046","","35","","","75","24","","","","","","","","","","","","","","","k",""
"","S1","","html-keyboard-response","171","419866","0.0-1.0-227.0","0","0","40046","","null","","","null","25","","","","","","","","","","","","","","","",""
"","ISI","","html-keyboard-response","172","421878","0.0-1.0-228.0","0","0","40046","","168","","","68","25","d","","","","","","","","","","","","","","",""
"","S2","","html-keyboard-response","173","422134","0.0-1.0-229.0","0","0","40046","","187","","","75","25","","k","","","","","","","","","","","","","",""
"","response","","html-keyboard-response","174","422318","0.0-1.0-230.0","0","0","40046","","181","","","68","25","","","1","25","training","adjacent","CD","3","4","M.jpg","P.jpg","1","1","1","",""
"","feedback","","html-keyboard-response","175","423321","0.0-1.0-231.0-0.0","0","0","40046","","null","","","null","25","","","","","","","","","","","","","","","",""
"","ITI","","html-keyboard-response","176","424324","0.0-1.0-234.0","0","0","40046","","89","","","68","25","","","","","","","","","","","","","","","d",""
"","S1","","html-keyboard-response","177","424577","0.0-1.0-236.0","0","0","40046","","null","","","null","26","","","","","","","","","","","","","","","",""
"","ISI","","html-keyboard-response","178","426580","0.0-1.0-237.0","0","0","40046","","98","","","75","26","k","","","","","","","","","","","","","","",""
"","S2","","html-keyboard-response","179","426837","0.0-1.0-238.0","0","0","40046","","103","","","75","26","","k","","","","","","","","","","","","","",""
"","response","","html-keyboard-response","180","426887","0.0-1.0-239.0","0","0","40046","","45","","","68","26","","","1","26","training","adjacent","CB","3","2","M.jpg","N.jpg","1","0","0","",""
"","feedback","","html-keyboard-response","181","427892","0.0-1.0-240.0-0.0","0","0","40046","","null","","","null","26","","","","","","","","","","","","","","","",""
"","time_out","","html-keyboard-response","182","429895","0.0-1.0-242.0-0.0","0","0","40046","","null","","","null","26","","","","","","","","","","","","","","","",""
"","ITI","","html-keyboard-response","183","430897","0.0-1.0-243.0","0","0","40046","","100","","","75","26","","","","","","","","","","","","","","","k",""
"","S1","","html-keyboard-response","184","431151","0.0-1.0-245.0","0","0","40046","","null","","","null","27","","","","","","","","","","","","","","","",""
"","ISI","","html-keyboard-response","185","433161","0.0-1.0-246.0","0","0","40046","","38","","","68","27","d","","","","","","","","","","","","","","",""
"","S2","","html-keyboard-response","186","433437","0.0-1.0-247.0","0","0","40046","","92","","","75","27","","k","","","","","","","","","","","","","",""
"","response","","html-keyboard-response","187","433590","0.0-1.0-248.0","0","0","40046","","145","","","75","27","","","1","27","training","adjacent","BA","2","1","N.jpg","O.jpg","0","0","1","",""
"","feedback","","html-keyboard-response","188","434594","0.0-1.0-249.0-0.0","0","0","40046","","null","","","null","27","","","","","","","","","","","","","","","",""
"","ITI","","html-keyboard-response","189","435598","0.0-1.0-252.0","0","0","40046","","185","","","68","27","","","","","","","","","","","","","","","d",""
"","S1","","html-keyboard-response","190","435851","0.0-1.0-254.0","0","0","40046","","null","","","null","28","","","","","","","","","","","","","","","",""
"","ISI","","html-keyboard-response","191","437856","0.0-1.0-255.0","0","0","40046","","93","","","68","28","d","","","","","","","","","","","","","","",""
"","S2","","html-keyboard-response","192","438136","0.0-1.0-256.0","0","0","40046","","183","","","68","28","","d","","","","","","","","","","","","","",""
"","response","","html-keyboard-response","193","438235","0.0-1.0-257.0","0","0","40046","","95","","","75","28","","","1","28","training","adjacent","CD","3","4","M.jpg","P.jpg","0","1","0","",""
"","feedback","","html-keyboard-response","194","439246","0.0-1.0-258.0-0.0","0","0","40046","","null","","","null","28","","","","","","","","","","","","","","","",""
"","time_out","","html-keyboard-response","195","441249","0.0-1.0-260.0-0.0","0","0","40046","","null","","","null","28","","","","","","","","","","","","","","","",""
"","ITI","","html-keyboard-response","196","442252","0.0-1.0-261.0","0","0","40046","","60","","","68","28","","","","","","","","","","","","","","","d",""
"","S1","","html-keyboard-response","197","442504","0.0-1.0-263.0","0","0","40046","","null","","","null","29","","","","","","","","","","","","","","","",""
"","ISI","","html-keyboard-response","198","444507","0.0-1.0-264.0","0","0","40046","","102","","","75","29","k","","","","","","","","","","","","","","",""
"","S2","","html-keyboard-response","199","444759","0.0-1.0-265.0","0","0","40046","","9","","","75","29","","k","","","","","","","","","","","","","",""
"","response","","html-keyboard-response","200","444855","0.0-1.0-266.0","0","0","40046","","93","","","75","29","","","1","29","training","adjacent","FG","6","7","R.jpg","L.jpg","0","1","0","",""
"","feedback","","html-keyboard-response","201","445858","0.0-1.0-267.0-0.0","0","0","40046","","null","","","null","29","","","","","","","","","","","","","","","",""
"","time_out","","html-keyboard-response","202","447861","0.0-1.0-269.0-0.0","0","0","40046","","null","","","null","29","","","","","","","","","","","","","","","",""
"","ITI","","html-keyboard-response","203","448865","0.0-1.0-270.0","0","0","40046","","80","","","75","29","","","","","","","","","","","","","","","k",""
"","S1","","html-keyboard-response","204","449144","0.0-1.0-272.0","0","0","40046","","null","","","null","30","","","","","","","","","","","","","","","",""
"","ISI","","html-keyboard-response","205","451161","0.0-1.0-273.0","0","0","40046","","7","","","75","30","k","","","","","","","","","","","","","","",""
"","S2","","html-keyboard-response","206","451415","0.0-1.0-274.0","0","0","40046","","26","","","75","30","","k","","","","","","","","","","","","","",""
"","response","","html-keyboard-response","207","451552","0.0-1.0-275.0","0","0","40046","","134","","","68","30","","","1","30","training","adjacent","AB","1","2","O.jpg","N.jpg","1","1","1","",""
"","feedback","","html-keyboard-response","208","452556","0.0-1.0-276.0-0.0","0","0","40046","","null","","","null","30","","","","","","","","","","","","","","","",""
"","ITI","","html-keyboard-response","209","453560","0.0-1.0-279.0","0","0","40046","","92","","","68","30","","","","","","","","","","","","","","","d",""
"","S1","","html-keyboard-response","210","453814","0.0-1.0-281.0","0","0","40046","","null","","","null","31","","","","","","","","","","","","","","","",""
"","ISI","","html-keyboard-response","211","455818","0.0-1.0-282.0","0","0","40046","","197","","","75","31","k","","","","","","","","","","","","","","",""
"","S2","","html-keyboard-response","212","456071","0.0-1.0-283.0","0","0","40046","","113","","","75","31","","k","","","","","","","","","","","","","",""
"","response","","html-keyboard-response","213","456164","0.0-1.0-284.0","0","0","40046","","89","","","68","31","","","1","31","training","adjacent","DE","4","5","P.jpg","Q.jpg","1","1","1","",""
"","feedback","","html-keyboard-response","214","457166","0.0-1.0-285.0-0.0","0","0","40046","","null","","","null","31","","","","","","","","","","","","","","","",""
"","ITI","","html-keyboard-response","215","458168","0.0-1.0-288.0","0","0","40046","","151","","","68","31","","","","","","","","","","","","","","","d",""
"","S1","","html-keyboard-response","216","458422","0.0-1.0-290.0","0","0","40046","","null","","","null","32","","","","","","","","","","","","","","","",""
"","ISI","","html-keyboard-response","217","460426","0.0-1.0-291.0","0","0","40046","","0","","","68","32","d","","","","","","","","","","","","","","",""
"","S2","","html-keyboard-response","218","460680","0.0-1.0-292.0","0","0","40046","","11","","","68","32","","d","","","","","","","","","","","","","",""
"","response","","html-keyboard-response","219","460745","0.0-1.0-293.0","0","0","40046","","62","","","75","32","","","1","32","training","adjacent","GF","7","6","L.jpg","R.jpg","0","0","1","",""
"","feedback","","html-keyboard-response","220","461749","0.0-1.0-294.0-0.0","0","0","40046","","null","","","null","32","","","","","","","","","","","","","","","",""
"","ITI","","html-keyboard-response","221","462752","0.0-1.0-297.0","0","0","40046","","57","","","68","32","","","","","","","","","","","","","","","d",""
"","S1","","html-keyboard-response","222","463005","0.0-1.0-299.0","0","0","40046","","null","","","null","33","","","","","","","","","","","","","","","",""
"","ISI","","html-keyboard-response","223","465007","0.0-1.0-300.0","0","0","40046","","80","","","68","33","d","","","","","","","","","","","","","","",""
"","S2","","html-keyboard-response","224","465263","0.0-1.0-301.0","0","0","40046","","37","","","68","33","","d","","","","","","","","","","","","","",""
"","response","","html-keyboard-response","225","465470","0.0-1.0-302.0","0","0","40046","","202","","","68","33","","","1","33","training","adjacent","DE","4","5","P.jpg","Q.jpg","1","1","1","",""
"","feedback","","html-keyboard-response","226","466478","0.0-1.0-303.0-0.0","0","0","40046","","null","","","null","33","","","","","","","","","","","","","","","",""
"","ITI","","html-keyboard-response","227","467483","0.0-1.0-306.0","0","0","40046","","166","","","68","33","","","","","","","","","","","","","","","d",""
"","S1","","html-keyboard-response","228","467738","0.0-1.0-308.0","0","0","40046","","null","","","null","34","","","","","","","","","","","","","","","",""
"","ISI","","html-keyboard-response","229","469741","0.0-1.0-309.0","0","0","40046","","203","","","75","34","k","","","","","","","","","","","","","","",""
"","S2","","html-keyboard-response","230","469996","0.0-1.0-310.0","0","0","40046","","142","","","75","34","","k","","","","","","","","","","","","","",""
"","response","","html-keyboard-response","231","470103","0.0-1.0-311.0","0","0","40046","","101","","","68","34","","","1","34","training","adjacent","AB","1","2","O.jpg","N.jpg","1","1","1","",""
"","feedback","","html-keyboard-response","232","471172","0.0-1.0-312.0-0.0","0","0","40046","","null","","","null","34","","","","","","","","","","","","","","","",""
"","ITI","","html-keyboard-response","233","472177","0.0-1.0-315.0","0","0","40046","","72","","","68","34","","","","","","","","","","","","","","","d",""
"","S1","","html-keyboard-response","234","472429","0.0-1.0-317.0","0","0","40046","","null","","","null","35","","","","","","","","","","","","","","","",""
"","ISI","","html-keyboard-response","235","474433","0.0-1.0-318.0","0","0","40046","","160","","","75","35","k","","","","","","","","","","","","","","",""
"","S2","","html-keyboard-response","236","474685","0.0-1.0-319.0","0","0","40046","","160","","","75","35","","k","","","","","","","","","","","","","",""
"","response","","html-keyboard-response","237","474819","0.0-1.0-320.0","0","0","40046","","128","","","68","35","","","1","35","training","adjacent","ED","5","4","Q.jpg","P.jpg","1","0","0","",""
"","feedback","","html-keyboard-response","238","475824","0.0-1.0-321.0-0.0","0","0","40046","","null","","","null","35","","","","","","","","","","","","","","","",""
"","time_out","","html-keyboard-response","239","477826","0.0-1.0-323.0-0.0","0","0","40046","","null","","","null","35","","","","","","","","","","","","","","","",""
"","ITI","","html-keyboard-response","240","478940","0.0-1.0-324.0","0","0","40046","","172","","","68","35","","","","","","","","","","","","","","","d",""
"","S1","","html-keyboard-response","241","479202","0.0-1.0-326.0","0","0","40046","","null","","","null","36","","","","","","","","","","","","","","","",""
"","ISI","","html-keyboard-response","242","481207","0.0-1.0-327.0","0","0","40046","","117","","","75","36","k","","","","","","","","","","","","","","",""
"","S2","","html-keyboard-response","243","481462","0.0-1.0-328.0","0","0","40046","","94","","","75","36","","k","","","","","","","","","","","","","",""
"","response","","html-keyboard-response","244","481481","0.0-1.0-329.0","0","0","40046","","18","","","68","36","","","1","36","training","adjacent","FE","6","5","R.jpg","Q.jpg","1","0","0","",""
"","feedback","","html-keyboard-response","245","482483","0.0-1.0-330.0-0.0","0","0","40046","","null","","","null","36","","","","","","","","","","","","","","","",""
"","time_out","","html-keyboard-response","246","484488","0.0-1.0-332.0-0.0","0","0","40046","","null","","","null","36","","","","","","","","","","","","","","","",""
"","ITI","","html-keyboard-response","247","485493","0.0-1.0-333.0","0","0","40046","","157","","","75","36","","","","","","","","","","","","","","","k",""
"","S1","","html-keyboard-response","248","485747","0.0-1.0-335.0","0","0","40046","","null","","","null","37","","","","","","","","","","","","","","","",""
"","ISI","","html-keyboard-response","249","487749","0.0-1.0-336.0","0","0","40046","","11","","","75","37","k","","","","","","","","","","","","","","",""
"","S2","","html-keyboard-response","250","488003","0.0-1.0-337.0","0","0","40046","","64","","","68","37","","d","","","","","","","","","","","","","",""
"","response","","html-keyboard-response","251","488179","0.0-1.0-338.0","0","0","40046","","171","","","68","37","","","1","37","training","adjacent","BC","2","3","N.jpg","M.jpg","1","1","1","",""
"","feedback","","html-keyboard-response","252","489183","0.0-1.0-339.0-0.0","0","0","40046","","null","","","null","37","","","","","","","","","","","","","","","",""
"","ITI","","html-keyboard-response","253","490186","0.0-1.0-342.0","0","0","40046","","61","","","68","37","","","","","","","","","","","","","","","d",""
"","S1","","html-keyboard-response","254","490438","0.0-1.0-344.0","0","0","40046","","null","","","null","38","","","","","","","","","","","","","","","",""
"","ISI","","html-keyboard-response","255","492441","0.0-1.0-345.0","0","0","40046","","145","","","68","38","d","","","","","","","","","","","","","","",""
"","S2","","html-keyboard-response","256","492743","0.0-1.0-346.0","0","0","40046","","61","","","68","38","","d","","","","","","","","","","","","","",""
"","response","","html-keyboard-response","257","492747","0.0-1.0-347.0","0","0","40046","","0","","","68","38","","","1","38","training","adjacent","DC","4","3","P.jpg","M.jpg","1","0","0","",""
"","feedback","","html-keyboard-response","258","493750","0.0-1.0-348.0-0.0","0","0","40046","","null","","","null","38","","","","","","","","","","","","","","","",""
"","time_out","","html-keyboard-response","259","495752","0.0-1.0-350.0-0.0","0","0","40046","","null","","","null","38","","","","","","","","","","","","","","","",""
"","ITI","","html-keyboard-response","260","496757","0.0-1.0-351.0","0","0","40046","","91","","","68","38","","","","","","","","","","","","","","","d",""
"","S1","","html-keyboard-response","261","497011","0.0-1.0-353.0","0","0","40046","","null","","","null","39","","","","","","","","","","","","","","","",""
"","ISI","","html-keyboard-response","262","499017","0.0-1.0-354.0","0","0","40046","","34","","","75","39","k","","","","","","","","","","","","","","",""
"","S2","","html-keyboard-response","263","499271","0.0-1.0-355.0","0","0","40046","","59","","","75","39","","k","","","","","","","","","","","","","",""
"","response","","html-keyboard-response","264","499290","0.0-1.0-356.0","0","0","40046","","14","","","68","39","","","1","39","training","adjacent","ED","5","4","Q.jpg","P.jpg","1","0","0","",""
"","feedback","","html-keyboard-response","265","500292","0.0-1.0-357.0-0.0","0","0","40046","","null","","","null","39","","","","","","","","","","","","","","","",""
"","time_out","","html-keyboard-response","266","502297","0.0-1.0-359.0-0.0","0","0","40046","","null","","","null","39","","","","","","","","","","","","","","","",""
"","ITI","","html-keyboard-response","267","503299","0.0-1.0-360.0","0","0","40046","","1","","","68","39","","","","","","","","","","","","","","","d",""
"","S1","","html-keyboard-response","268","503554","0.0-1.0-362.0","0","0","40046","","null","","","null","40","","","","","","","","","","","","","","","",""
"","ISI","","html-keyboard-response","269","505556","0.0-1.0-363.0","0","0","40046","","108","","","68","40","d","","","","","","","","","","","","","","",""
"","S2","","html-keyboard-response","270","505811","0.0-1.0-364.0","0","0","40046","","130","","","75","40","","k","","","","","","","","","","","","","",""
"","response","","html-keyboard-response","271","505840","0.0-1.0-365.0","0","0","40046","","27","","","68","40","","","1","40","training","adjacent","EF","5","6","Q.jpg","R.jpg","1","1","1","",""
"","feedback","","html-keyboard-response","272","506845","0.0-1.0-366.0-0.0","0","0","40046","","null","","","null","40","","","","","","","","","","","","","","","",""
"","ITI","","html-keyboard-response","273","507855","0.0-1.0-369.0","0","0","40046","","170","","","68","40","","","","","","","","","","","","","","","d",""
"","S1","","html-keyboard-response","274","508107","0.0-1.0-371.0","0","0","40046","","null","","","null","41","","","","","","","","","","","","","","","",""
"","ISI","","html-keyboard-response","275","510110","0.0-1.0-372.0","0","0","40046","","107","","","68","41","d","","","","","","","","","","","","","","",""
"","S2","","html-keyboard-response","276","510362","0.0-1.0-373.0","0","0","40046","","16","","","75","41","","k","","","","","","","","","","","","","",""
"","response","","html-keyboard-response","277","510415","0.0-1.0-374.0","0","0","40046","","52","","","68","41","","","1","41","training","adjacent","BC","2","3","N.jpg","M.jpg","1","1","1","",""
"","feedback","","html-keyboard-response","278","511418","0.0-1.0-375.0-0.0","0","0","40046","","null","","","null","41","","","","","","","","","","","","","","","",""
"","ITI","","html-keyboard-response","279","512422","0.0-1.0-378.0","0","0","40046","","28","","","75","41","","","","","","","","","","","","","","","k",""
"","S1","","html-keyboard-response","280","512676","0.0-1.0-380.0","0","0","40046","","null","","","null","42","","","","","","","","","","","","","","","",""
"","ISI","","html-keyboard-response","281","514695","0.0-1.0-381.0","0","0","40046","","33","","","68","42","d","","","","","","","","","","","","","","",""
"","S2","","html-keyboard-response","282","514949","0.0-1.0-382.0","0","0","40046","","65","","","68","42","","d","","","","","","","","","","","","","",""
"","response","","html-keyboard-response","283","515039","0.0-1.0-383.0","0","0","40046","","88","","","68","42","","","1","42","training","adjacent","ED","5","4","Q.jpg","P.jpg","1","0","0","",""
"","feedback","","html-keyboard-response","284","516042","0.0-1.0-384.0-0.0","0","0","40046","","null","","","null","42","","","","","","","","","","","","","","","",""
"","time_out","","html-keyboard-response","285","518044","0.0-1.0-386.0-0.0","0","0","40046","","null","","","null","42","","","","","","","","","","","","","","","",""
"","ITI","","html-keyboard-response","286","519048","0.0-1.0-387.0","0","0","40046","","139","","","68","42","","","","","","","","","","","","","","","d",""
"","S1","","html-keyboard-response","287","519306","0.0-1.0-389.0","0","0","40046","","null","","","null","43","","","","","","","","","","","","","","","",""
"","ISI","","html-keyboard-response","288","521310","0.0-1.0-390.0","0","0","40046","","75","","","68","43","d","","","","","","","","","","","","","","",""
"","S2","","html-keyboard-response","289","521564","0.0-1.0-391.0","0","0","40046","","156","","","68","43","","d","","","","","","","","","","","","","",""
"","response","","html-keyboard-response","290","521634","0.0-1.0-392.0","0","0","40046","","67","","","75","43","","","1","43","training","adjacent","FE","6","5","R.jpg","Q.jpg","0","0","1","",""
"","feedback","","html-keyboard-response","291","522704","0.0-1.0-393.0-0.0","0","0","40046","","null","","","null","43","","","","","","","","","","","","","","","",""
"","ITI","","html-keyboard-response","292","523708","0.0-1.0-396.0","0","0","40046","","8","","","68","43","","","","","","","","","","","","","","","d",""
"","S1","","html-keyboard-response","293","523970","0.0-1.0-398.0","0","0","40046","","null","","","null","44","","","","","","","","","","","","","","","",""
"","ISI","","html-keyboard-response","294","525973","0.0-1.0-399.0","0","0","40046","","84","","","75","44","k","","","","","","","","","","","","","","",""
"","S2","","html-keyboard-response","295","526228","0.0-1.0-400.0","0","0","40046","","113","","","68","44","","d","","","","","","","","","","","","","",""
"","response","","html-keyboard-response","296","526555","0.0-1.0-401.0","0","0","40046","","324","","","68","44","","","1","44","training","adjacent","CB","3","2","M.jpg","N.jpg","1","0","0","",""
"","feedback","","html-keyboard-response","297","527562","0.0-1.0-402.0-0.0","0","0","40046","","null","","","null","44","","","","","","","","","","","","","","","",""
"","time_out","","html-keyboard-response","298","529565","0.0-1.0-404.0-0.0","0","0","40046","","null","","","null","44","","","","","","","","","","","","","","","",""
"","ITI","","html-keyboard-response","299","530567","0.0-1.0-405.0","0","0","40046","","9","","","75","44","","","","","","","","","","","","","","","k",""
"","S1","","html-keyboard-response","300","530820","0.0-1.0-407.0","0","0","40046","","null","","","null","45","","","","","","","","","","","","","","","",""
"","ISI","","html-keyboard-response","301","532822","0.0-1.0-408.0","0","0","40046","","187","","","68","45","d","","","","","","","","","","","","","","",""
"","S2","","html-keyboard-response","302","533082","0.0-1.0-409.0","0","0","40046","","226","","","68","45","","d","","","","","","","","","","","","","",""
"","response","","html-keyboard-response","303","533225","0.0-1.0-410.0","0","0","40046","","139","","","75","45","","","1","45","training","adjacent","AB","1","2","O.jpg","N.jpg","0","1","0","",""
"","feedback","","html-keyboard-response","304","534260","0.0-1.0-411.0-0.0","0","0","40046","","null","","","null","45","","","","","","","","","","","","","","","",""
"","time_out","","html-keyboard-response","305","536263","0.0-1.0-413.0-0.0","0","0","40046","","null","","","null","45","","","","","","","","","","","","","","","",""
"","ITI","","html-keyboard-response","306","537267","0.0-1.0-414.0","0","0","40046","","34","","","68","45","","","","","","","","","","","","","","","d",""
"","S1","","html-keyboard-response","307","537527","0.0-1.0-416.0","0","0","40046","","null","","","null","46","","","","","","","","","","","","","","","",""
"","ISI","","html-keyboard-response","308","539528","0.0-1.0-417.0","0","0","40046","","32","","","68","46","d","","","","","","","","","","","","","","",""
"","S2","","html-keyboard-response","309","539784","0.0-1.0-418.0","0","0","40046","","118","","","75","46","","k","","","","","","","","","","","","","",""
"","response","","html-keyboard-response","310","539849","0.0-1.0-419.0","0","0","40046","","62","","","68","46","","","1","46","training","adjacent","CD","3","4","M.jpg","P.jpg","1","1","1","",""
"","feedback","","html-keyboard-response","311","540855","0.0-1.0-420.0-0.0","0","0","40046","","null","","","null","46","","","","","","","","","","","","","","","",""
"","ITI","","html-keyboard-response","312","541856","0.0-1.0-423.0","0","0","40046","","21","","","75","46","","","","","","","","","","","","","","","k",""
"","S1","","html-keyboard-response","313","542111","0.0-1.0-425.0","0","0","40046","","null","","","null","47","","","","","","","","","","","","","","","",""
"","ISI","","html-keyboard-response","314","544115","0.0-1.0-426.0","0","0","40046","","86","","","68","47","d","","","","","","","","","","","","","","",""
"","S2","","html-keyboard-response","315","544371","0.0-1.0-427.0","0","0","40046","","20","","","75","47","","k","","","","","","","","","","","","","",""
"","response","","html-keyboard-response","316","544556","0.0-1.0-428.0","0","0","40046","","179","","","75","47","","","1","47","training","adjacent","DC","4","3","P.jpg","M.jpg","0","0","1","",""
"","feedback","","html-keyboard-response","317","545569","0.0-1.0-429.0-0.0","0","0","40046","","null","","","null","47","","","","","","","","","","","","","","","",""
"","ITI","","html-keyboard-response","318","546575","0.0-1.0-432.0","0","0","40046","","100","","","75","47","","","","","","","","","","","","","","","k",""
"","block_over","","html-keyboard-response","319","565401","0.0-1.0-433.0-0.0","0","0","40046","","18820","","","32","47","","","","","","","","","","","","","","","",""
"","S1","","html-keyboard-response","320","565654","0.0-1.0-434.0","0","0","40046","","null","","","null","48","","","","","","","","","","","","","","","",""
"","ISI","","html-keyboard-response","321","567659","0.0-1.0-435.0","0","0","40046","","1178","","","75","48","k","","","","","","","","","","","","","","",""
"","S2","","html-keyboard-response","322","567913","0.0-1.0-436.0","0","0","40046","","212","","","75","48","","k","","","","","","","","","","","","","",""
"","response","","html-keyboard-response","323","568147","0.0-1.0-437.0","0","0","40046","","231","","","75","48","","","2","48","training","adjacent","CB","3","2","M.jpg","N.jpg","0","0","1","",""
"","feedback","","html-keyboard-response","324","569153","0.0-1.0-438.0-0.0","0","0","40046","","null","","","null","48","","","","","","","","","","","","","","","",""
"","ITI","","html-keyboard-response","325","570157","0.0-1.0-441.0","0","0","40046","","16","","","68","48","","","","","","","","","","","","","","","d",""
"","S1","","html-keyboard-response","326","570411","0.0-1.0-443.0","0","0","40046","","null","","","null","49","","","","","","","","","","","","","","","",""
"","ISI","","html-keyboard-response","327","572414","0.0-1.0-444.0","0","0","40046","","29","","","68","49","d","","","","","","","","","","","","","","",""
"","S2","","html-keyboard-response","328","572675","0.0-1.0-445.0","0","0","40046","","null","","","null","49","","NaN","","","","","","","","","","","","","",""
"","response","","html-keyboard-response","329","572693","0.0-1.0-446.0","0","0","40046","","13","","","68","49","","","2","49","training","adjacent","CD","3","4","M.jpg","P.jpg","1","1","1","",""
"","feedback","","html-keyboard-response","330","573696","0.0-1.0-447.0-0.0","0","0","40046","","null","","","null","49","","","","","","","","","","","","","","","",""
"","ITI","","html-keyboard-response","331","574728","0.0-1.0-450.0","0","0","40046","","21","","","75","49","","","","","","","","","","","","","","","k",""
"","S1","","html-keyboard-response","332","574986","0.0-1.0-452.0","0","0","40046","","null","","","null","50","","","","","","","","","","","","","","","",""
"","ISI","","html-keyboard-response","333","576994","0.0-1.0-453.0","0","0","40046","","47","","","75","50","k","","","","","","","","","","","","","","",""
"","S2","","html-keyboard-response","334","577248","0.0-1.0-454.0","0","0","40046","","125","","","75","50","","k","","","","","","","","","","","","","",""
"","response","","html-keyboard-response","335","577284","0.0-1.0-455.0","0","0","40046","","32","","","68","50","","","2","50","training","adjacent","EF","5","6","Q.jpg","R.jpg","1","1","1","",""
"","feedback","","html-keyboard-response","336","578289","0.0-1.0-456.0-0.0","0","0","40046","","null","","","null","50","","","","","","","","","","","","","","","",""
"","ITI","","html-keyboard-response","337","579291","0.0-1.0-459.0","0","0","40046","","128","","","68","50","","","","","","","","","","","","","","","d",""
"","S1","","html-keyboard-response","338","579545","0.0-1.0-461.0","0","0","40046","","null","","","null","51","","","","","","","","","","","","","","","",""
"","ISI","","html-keyboard-response","339","581548","0.0-1.0-462.0","0","0","40046","","79","","","75","51","k","","","","","","","","","","","","","","",""
"","S2","","html-keyboard-response","340","581802","0.0-1.0-463.0","0","0","40046","","44","","","75","51","","k","","","","","","","","","","","","","",""
"","response","","html-keyboard-response","341","581932","0.0-1.0-464.0","0","0","40046","","127","","","75","51","","","2","51","training","adjacent","AB","1","2","O.jpg","N.jpg","0","1","0","",""
"","feedback","","html-keyboard-response","342","582963","0.0-1.0-465.0-0.0","0","0","40046","","null","","","null","51","","","","","","","","","","","","","","","",""
"","time_out","","html-keyboard-response","343","584966","0.0-1.0-467.0-0.0","0","0","40046","","null","","","null","51","","","","","","","","","","","","","","","",""
"","ITI","","html-keyboard-response","344","585971","0.0-1.0-468.0","0","0","40046","","122","","","75","51","","","","","","","","","","","","","","","k",""
"","S1","","html-keyboard-response","345","586225","0.0-1.0-470.0","0","0","40046","","null","","","null","52","","","","","","","","","","","","","","","",""
"","ISI","","html-keyboard-response","346","588229","0.0-1.0-471.0","0","0","40046","","12","","","75","52","k","","","","","","","","","","","","","","",""
"","S2","","html-keyboard-response","347","588484","0.0-1.0-472.0","0","0","40046","","37","","","68","52","","d","","","","","","","","","","","","","",""
"","response","","html-keyboard-response","348","588597","0.0-1.0-473.0","0","0","40046","","109","","","68","52","","","2","52","training","adjacent","CD","3","4","M.jpg","P.jpg","1","1","1","",""
"","feedback","","html-keyboard-response","349","589600","0.0-1.0-474.0-0.0","0","0","40046","","null","","","null","52","","","","","","","","","","","","","","","",""
"","ITI","","html-keyboard-response","350","590603","0.0-1.0-477.0","0","0","40046","","232","","","68","52","","","","","","","","","","","","","","","d",""
"","S1","","html-keyboard-response","351","590927","0.0-1.0-479.0","0","0","40046","","null","","","null","53","","","","","","","","","","","","","","","",""
"","ISI","","html-keyboard-response","352","592933","0.0-1.0-480.0","0","0","40046","","110","","","68","53","d","","","","","","","","","","","","","","",""
"","S2","","html-keyboard-response","353","593190","0.0-1.0-481.0","0","0","40046","","108","","","68","53","","d","","","","","","","","","","","","","",""
"","response","","html-keyboard-response","354","593307","0.0-1.0-482.0","0","0","40046","","113","","","75","53","","","2","53","training","adjacent","FE","6","5","R.jpg","Q.jpg","0","0","1","",""
"","feedback","","html-keyboard-response","355","594312","0.0-1.0-483.0-0.0","0","0","40046","","null","","","null","53","","","","","","","","","","","","","","","",""
"","ITI","","html-keyboard-response","356","595317","0.0-1.0-486.0","0","0","40046","","168","","","75","53","","","","","","","","","","","","","","","k",""
"","S1","","html-keyboard-response","357","595572","0.0-1.0-488.0","0","0","40046","","null","","","null","54","","","","","","","","","","","","","","","",""
"","ISI","","html-keyboard-response","358","597574","0.0-1.0-489.0","0","0","40046","","40","","","75","54","k","","","","","","","","","","","","","","",""
"","S2","","html-keyboard-response","359","597826","0.0-1.0-490.0","0","0","40046","","43","","","68","54","","d","","","","","","","","","","","","","",""
"","response","","html-keyboard-response","360","599121","0.0-1.0-491.0","0","0","40046","","1291","","","68","54","","","2","54","training","adjacent","ED","5","4","Q.jpg","P.jpg","1","0","0","",""
"","feedback","","html-keyboard-response","361","600125","0.0-1.0-492.0-0.0","0","0","40046","","null","","","null","54","","","","","","","","","","","","","","","",""
"","time_out","","html-keyboard-response","362","602128","0.0-1.0-494.0-0.0","0","0","40046","","null","","","null","54","","","","","","","","","","","","","","","",""
"","ITI","","html-keyboard-response","363","603131","0.0-1.0-495.0","0","0","40046","","65","","","68","54","","","","","","","","","","","","","","","d",""
"","S1","","html-keyboard-response","364","603383","0.0-1.0-497.0","0","0","40046","","null","","","null","55","","","","","","","","","","","","","","","",""
"","ISI","","html-keyboard-response","365","605386","0.0-1.0-498.0","0","0","40046","","249","","","68","55","d","","","","","","","","","","","","","","",""
"","S2","","html-keyboard-response","366","605643","0.0-1.0-499.0","0","0","40046","","64","","","68","55","","d","","","","","","","","","","","","","",""
"","response","","html-keyboard-response","367","605752","0.0-1.0-500.0","0","0","40046","","106","","","68","55","","","2","55","training","adjacent","EF","5","6","Q.jpg","R.jpg","1","1","1","",""
"","feedback","","html-keyboard-response","368","606755","0.0-1.0-501.0-0.0","0","0","40046","","null","","","null","55","","","","","","","","","","","","","","","",""
"","ITI","","html-keyboard-response","369","607760","0.0-1.0-504.0","0","0","40046","","61","","","68","55","","","","","","","","","","","","","","","d",""
"","S1","","html-keyboard-response","370","608015","0.0-1.0-506.0","0","0","40046","","null","","","null","56","","","","","","","","","","","","","","","",""
"","ISI","","html-keyboard-response","371","610017","0.0-1.0-507.0","0","0","40046","","266","","","68","56","d","","","","","","","","","","","","","","",""
"","S2","","html-keyboard-response","372","610271","0.0-1.0-508.0","0","0","40046","","140","","","68","56","","d","","","","","","","","","","","","","",""
"","response","","html-keyboard-response","373","610365","0.0-1.0-509.0","0","0","40046","","91","","","68","56","","","2","56","training","adjacent","AB","1","2","O.jpg","N.jpg","1","1","1","",""
"","feedback","","html-keyboard-response","374","611368","0.0-1.0-510.0-0.0","0","0","40046","","null","","","null","56","","","","","","","","","","","","","","","",""
"","ITI","","html-keyboard-response","375","612372","0.0-1.0-513.0","0","0","40046","","474","","","68","56","","","","","","","","","","","","","","","d",""
"","S1","","html-keyboard-response","376","612626","0.0-1.0-515.0","0","0","40046","","null","","","null","57","","","","","","","","","","","","","","","",""
"","ISI","","html-keyboard-response","377","614628","0.0-1.0-516.0","0","0","40046","","228","","","68","57","d","","","","","","","","","","","","","","",""
"","S2","","html-keyboard-response","378","614889","0.0-1.0-517.0","0","0","40046","","252","","","68","57","","d","","","","","","","","","","","","","",""
"","response","","html-keyboard-response","379","615203","0.0-1.0-518.0","0","0","40046","","311","","","68","57","","","2","57","training","adjacent","GF","7","6","L.jpg","R.jpg","1","0","0","",""
"","feedback","","html-keyboard-response","380","616206","0.0-1.0-519.0-0.0","0","0","40046","","null","","","null","57","","","","","","","","","","","","","","","",""
"","time_out","","html-keyboard-response","381","618210","0.0-1.0-521.0-0.0","0","0","40046","","null","","","null","57","","","","","","","","","","","","","","","",""
"","ITI","","html-keyboard-response","382","619213","0.0-1.0-522.0","0","0","40046","","311","","","68","57","","","","","","","","","","","","","","","d",""
"","S1","","html-keyboard-response","383","619467","0.0-1.0-524.0","0","0","40046","","null","","","null","58","","","","","","","","","","","","","","","",""
"","ISI","","html-keyboard-response","384","621471","0.0-1.0-525.0","0","0","40046","","62","","","75","58","k","","","","","","","","","","","","","","",""
"","S2","","html-keyboard-response","385","621726","0.0-1.0-526.0","0","0","40046","","225","","","75","58","","k","","","","","","","","","","","","","",""
"","response","","html-keyboard-response","386","621974","0.0-1.0-527.0","0","0","40046","","244","","","68","58","","","2","58","training","adjacent","BA","2","1","N.jpg","O.jpg","1","0","0","",""
"","feedback","","html-keyboard-response","387","622979","0.0-1.0-528.0-0.0","0","0","40046","","null","","","null","58","","","","","","","","","","","","","","","",""
"","time_out","","html-keyboard-response","388","624981","0.0-1.0-530.0-0.0","0","0","40046","","null","","","null","58","","","","","","","","","","","","","","","",""
"","ITI","","html-keyboard-response","389","625984","0.0-1.0-531.0","0","0","40046","","205","","","75","58","","","","","","","","","","","","","","","k",""
"","S1","","html-keyboard-response","390","626237","0.0-1.0-533.0","0","0","40046","","null","","","null","59","","","","","","","","","","","","","","","",""
"","ISI","","html-keyboard-response","391","628239","0.0-1.0-534.0","0","0","40046","","1897","","","75","59","k","","","","","","","","","","","","","","",""
"","S2","","html-keyboard-response","392","628515","0.0-1.0-535.0","0","0","40046","","83","","","68","59","","d","","","","","","","","","","","","","",""
"","response","","html-keyboard-response","393","628718","0.0-1.0-536.0","0","0","40046","","198","","","68","59","","","2","59","training","adjacent","BA","2","1","N.jpg","O.jpg","1","0","0","",""
"","feedback","","html-keyboard-response","394","629722","0.0-1.0-537.0-0.0","0","0","40046","","null","","","null","59","","","","","","","","","","","","","","","",""
"","time_out","","html-keyboard-response","395","631725","0.0-1.0-539.0-0.0","0","0","40046","","null","","","null","59","","","","","","","","","","","","","","","",""
"","ITI","","html-keyboard-response","396","632731","0.0-1.0-540.0","0","0","40046","","134","","","68","59","","","","","","","","","","","","","","","d",""
"","S1","","html-keyboard-response","397","632984","0.0-1.0-542.0","0","0","40046","","null","","","null","60","","","","","","","","","","","","","","","",""
"","ISI","","html-keyboard-response","398","634985","0.0-1.0-543.0","0","0","40046","","337","","","68","60","d","","","","","","","","","","","","","","",""
"","S2","","html-keyboard-response","399","635239","0.0-1.0-544.0","0","0","40046","","217","","","68","60","","d","","","","","","","","","","","","","",""
"","response","","html-keyboard-response","400","635412","0.0-1.0-545.0","0","0","40046","","171","","","75","60","","","2","60","training","adjacent","CD","3","4","M.jpg","P.jpg","0","1","0","",""
"","feedback","","html-keyboard-response","401","636416","0.0-1.0-546.0-0.0","0","0","40046","","null","","","null","60","","","","","","","","","","","","","","","",""
"","time_out","","html-keyboard-response","402","638419","0.0-1.0-548.0-0.0","0","0","40046","","null","","","null","60","","","","","","","","","","","","","","","",""
"","ITI","","html-keyboard-response","403","639422","0.0-1.0-549.0","0","0","40046","","272","","","68","60","","","","","","","","","","","","","","","d",""
"","S1","","html-keyboard-response","404","639676","0.0-1.0-551.0","0","0","40046","","null","","","null","61","","","","","","","","","","","","","","","",""
"","ISI","","html-keyboard-response","405","641679","0.0-1.0-552.0","0","0","40046","","247","","","68","61","d","","","","","","","","","","","","","","",""
"","S2","","html-keyboard-response","406","641936","0.0-1.0-553.0","0","0","40046","","58","","","68","61","","d","","","","","","","","","","","","","",""
"","response","","html-keyboard-response","407","642062","0.0-1.0-554.0","0","0","40046","","123","","","75","61","","","2","61","training","adjacent","FG","6","7","R.jpg","L.jpg","0","1","0","",""
"","feedback","","html-keyboard-response","408","643083","0.0-1.0-555.0-0.0","0","0","40046","","null","","","null","61","","","","","","","","","","","","","","","",""
"","time_out","","html-keyboard-response","409","645111","0.0-1.0-557.0-0.0","0","0","40046","","null","","","null","61","","","","","","","","","","","","","","","",""
"","ITI","","html-keyboard-response","410","646115","0.0-1.0-558.0","0","0","40046","","219","","","75","61","","","","","","","","","","","","","","","k",""
"","S1","","html-keyboard-response","411","646367","0.0-1.0-560.0","0","0","40046","","null","","","null","62","","","","","","","","","","","","","","","",""
"","ISI","","html-keyboard-response","412","648370","0.0-1.0-561.0","0","0","40046","","115","","","68","62","d","","","","","","","","","","","","","","",""
"","S2","","html-keyboard-response","413","648625","0.0-1.0-562.0","0","0","40046","","null","","","null","62","","NaN","","","","","","","","","","","","","",""
"","response","","html-keyboard-response","414","648841","0.0-1.0-563.0","0","0","40046","","213","","","75","62","","","2","62","training","adjacent","GF","7","6","L.jpg","R.jpg","0","0","1","",""
"","feedback","","html-keyboard-response","415","649843","0.0-1.0-564.0-0.0","0","0","40046","","null","","","null","62","","","","","","","","","","","","","","","",""
"","ITI","","html-keyboard-response","416","650862","0.0-1.0-567.0","0","0","40046","","127","","","75","62","","","","","","","","","","","","","","","k",""
"","S1","","html-keyboard-response","417","651114","0.0-1.0-569.0","0","0","40046","","null","","","null","63","","","","","","","","","","","","","","","",""
"","ISI","","html-keyboard-response","418","653119","0.0-1.0-570.0","0","0","40046","","49","","","75","63","k","","","","","","","","","","","","","","",""
"","S2","","html-keyboard-response","419","653389","0.0-1.0-571.0","0","0","40046","","124","","","75","63","","k","","","","","","","","","","","","","",""
"","response","","html-keyboard-response","420","653595","0.0-1.0-572.0","0","0","40046","","118","","","75","63","","","2","63","training","adjacent","EF","5","6","Q.jpg","R.jpg","0","1","0","",""
"","feedback","","html-keyboard-response","421","654599","0.0-1.0-573.0-0.0","0","0","40046","","null","","","null","63","","","","","","","","","","","","","","","",""
"","time_out","","html-keyboard-response","422","656603","0.0-1.0-575.0-0.0","0","0","40046","","null","","","null","63","","","","","","","","","","","","","","","",""
"","ITI","","html-keyboard-response","423","657606","0.0-1.0-576.0","0","0","40046","","57","","","75","63","","","","","","","","","","","","","","","k",""
"","S1","","html-keyboard-response","424","657861","0.0-1.0-578.0","0","0","40046","","null","","","null","64","","","","","","","","","","","","","","","",""
"","ISI","","html-keyboard-response","425","659866","0.0-1.0-579.0","0","0","40046","","75","","","75","64","k","","","","","","","","","","","","","","",""
"","S2","","html-keyboard-response","426","660120","0.0-1.0-580.0","0","0","40046","","186","","","75","64","","k","","","","","","","","","","","","","",""
"","response","","html-keyboard-response","427","660302","0.0-1.0-581.0","0","0","40046","","179","","","75","64","","","2","64","training","adjacent","CB","3","2","M.jpg","N.jpg","0","0","1","",""
"","feedback","","html-keyboard-response","428","661304","0.0-1.0-582.0-0.0","0","0","40046","","null","","","null","64","","","","","","","","","","","","","","","",""
"","ITI","","html-keyboard-response","429","662307","0.0-1.0-585.0","0","0","40046","","225","","","68","64","","","","","","","","","","","","","","","d",""
"","S1","","html-keyboard-response","430","662585","0.0-1.0-587.0","0","0","40046","","null","","","null","65","","","","","","","","","","","","","","","",""
"","ISI","","html-keyboard-response","431","664589","0.0-1.0-588.0","0","0","40046","","226","","","75","65","k","","","","","","","","","","","","","","",""
"","S2","","html-keyboard-response","432","664846","0.0-1.0-589.0","0","0","40046","","null","","","null","65","","NaN","","","","","","","","","","","","","",""
"","response","","html-keyboard-response","433","665576","0.0-1.0-590.0","0","0","40046","","726","","","75","65","","","2","65","training","adjacent","ED","5","4","Q.jpg","P.jpg","0","0","1","",""
"","feedback","","html-keyboard-response","434","666580","0.0-1.0-591.0-0.0","0","0","40046","","null","","","null","65","","","","","","","","","","","","","","","",""
"","ITI","","html-keyboard-response","435","667586","0.0-1.0-594.0","0","0","40046","","572","","","75","65","","","","","","","","","","","","","","","k",""
"","S1","","html-keyboard-response","436","667841","0.0-1.0-596.0","0","0","40046","","null","","","null","66","","","","","","","","","","","","","","","",""
"","ISI","","html-keyboard-response","437","669847","0.0-1.0-597.0","0","0","40046","","162","","","75","66","k","","","","","","","","","","","","","","",""
"","S2","","html-keyboard-response","438","670103","0.0-1.0-598.0","0","0","40046","","33","","","68","66","","d","","","","","","","","","","","","","",""
"","response","","html-keyboard-response","439","672107","0.0-1.0-599.0","0","0","40046","","null","","","null","66","","","2","66","training","adjacent","FG","6","7","R.jpg","L.jpg","NaN","1","0","",""
"","too_slow_prompt","","html-keyboard-response","440","673111","0.0-1.0-601.0-0.0","1","0","40046","","null","","","null","","","","","","","","","","","","","","","","",""
"","time_out","","html-keyboard-response","441","675114","0.0-1.0-602.0-0.0","0","0","40046","","null","","","null","66","","","","","","","","","","","","","","","",""
"","ITI","","html-keyboard-response","442","676142","0.0-1.0-603.0","0","0","40046","","58","","","75","66","","","","","","","","","","","","","","","k",""
"","S1","","html-keyboard-response","443","676396","0.0-1.0-605.0","0","0","40046","","null","","","null","67","","","","","","","","","","","","","","","",""
"","ISI","","html-keyboard-response","444","678401","0.0-1.0-606.0","0","0","40046","","162","","","75","67","k","","","","","","","","","","","","","","",""
"","S2","","html-keyboard-response","445","678658","0.0-1.0-607.0","0","0","40046","","12","","","68","67","","d","","","","","","","","","","","","","",""
"","response","","html-keyboard-response","446","678689","0.0-1.0-608.0","0","0","40046","","28","","","68","67","","","2","67","training","adjacent","FE","6","5","R.jpg","Q.jpg","1","0","0","",""
"","feedback","","html-keyboard-response","447","679692","0.0-1.0-609.0-0.0","0","0","40046","","null","","","null","67","","","","","","","","","","","","","","","",""
"","time_out","","html-keyboard-response","448","681696","0.0-1.0-611.0-0.0","0","0","40046","","null","","","null","67","","","","","","","","","","","","","","","",""
"","ITI","","html-keyboard-response","449","682704","0.0-1.0-612.0","0","0","40046","","118","","","75","67","","","","","","","","","","","","","","","k",""
"","S1","","html-keyboard-response","450","682959","0.0-1.0-614.0","0","0","40046","","null","","","null","68","","","","","","","","","","","","","","","",""
"","ISI","","html-keyboard-response","451","684962","0.0-1.0-615.0","0","0","40046","","76","","","68","68","d","","","","","","","","","","","","","","",""
"","S2","","html-keyboard-response","452","685220","0.0-1.0-616.0","0","0","40046","","224","","","75","68","","k","","","","","","","","","","","","","",""
"","response","","html-keyboard-response","453","685480","0.0-1.0-617.0","0","0","40046","","256","","","68","68","","","2","68","training","adjacent","AB","1","2","O.jpg","N.jpg","1","1","1","",""
"","feedback","","html-keyboard-response","454","686483","0.0-1.0-618.0-0.0","0","0","40046","","null","","","null","68","","","","","","","","","","","","","","","",""
"","ITI","","html-keyboard-response","455","687514","0.0-1.0-621.0","0","0","40046","","124","","","68","68","","","","","","","","","","","","","","","d",""
"","S1","","html-keyboard-response","456","687781","0.0-1.0-623.0","0","0","40046","","null","","","null","69","","","","","","","","","","","","","","","",""
"","ISI","","html-keyboard-response","457","689800","0.0-1.0-624.0","0","0","40046","","21","","","68","69","d","","","","","","","","","","","","","","",""
"","S2","","html-keyboard-response","458","690053","0.0-1.0-625.0","0","0","40046","","169","","","68","69","","d","","","","","","","","","","","","","",""
"","response","","html-keyboard-response","459","690182","0.0-1.0-626.0","0","0","40046","","126","","","75","69","","","2","69","training","adjacent","BC","2","3","N.jpg","M.jpg","0","1","0","",""
"","feedback","","html-keyboard-response","460","691186","0.0-1.0-627.0-0.0","0","0","40046","","null","","","null","69","","","","","","","","","","","","","","","",""
"","time_out","","html-keyboard-response","461","693189","0.0-1.0-629.0-0.0","0","0","40046","","null","","","null","69","","","","","","","","","","","","","","","",""
"","ITI","","html-keyboard-response","462","694194","0.0-1.0-630.0","0","0","40046","","95","","","75","69","","","","","","","","","","","","","","","k",""
"","S1","","html-keyboard-response","463","694446","0.0-1.0-632.0","0","0","40046","","null","","","null","70","","","","","","","","","","","","","","","",""
"","ISI","","html-keyboard-response","464","696453","0.0-1.0-633.0","0","0","40046","","118","","","68","70","d","","","","","","","","","","","","","","",""
"","S2","","html-keyboard-response","465","696707","0.0-1.0-634.0","0","0","40046","","0","","","68","70","","d","","","","","","","","","","","","","",""
"","response","","html-keyboard-response","466","696790","0.0-1.0-635.0","0","0","40046","","82","","","68","70","","","2","70","training","adjacent","FG","6","7","R.jpg","L.jpg","1","1","1","",""
"","feedback","","html-keyboard-response","467","697796","0.0-1.0-636.0-0.0","0","0","40046","","null","","","null","70","","","","","","","","","","","","","","","",""
"","ITI","","html-keyboard-response","468","698800","0.0-1.0-639.0","0","0","40046","","175","","","68","70","","","","","","","","","","","","","","","d",""
"","S1","","html-keyboard-response","469","699054","0.0-1.0-641.0","0","0","40046","","null","","","null","71","","","","","","","","","","","","","","","",""
"","ISI","","html-keyboard-response","470","701057","0.0-1.0-642.0","0","0","40046","","102","","","68","71","d","","","","","","","","","","","","","","",""
"","S2","","html-keyboard-response","471","701310","0.0-1.0-643.0","0","0","40046","","47","","","68","71","","d","","","","","","","","","","","","","",""
"","response","","html-keyboard-response","472","701318","0.0-1.0-644.0","0","0","40046","","6","","","75","71","","","2","71","training","adjacent","CB","3","2","M.jpg","N.jpg","0","0","1","",""
"","feedback","","html-keyboard-response","473","702325","0.0-1.0-645.0-0.0","0","0","40046","","null","","","null","71","","","","","","","","","","","","","","","",""
"","ITI","","html-keyboard-response","474","703328","0.0-1.0-648.0","0","0","40046","","46","","","68","71","","","","","","","","","","","","","","","d",""
"","S1","","html-keyboard-response","475","703581","0.0-1.0-650.0","0","0","40046","","null","","","null","72","","","","","","","","","","","","","","","",""
"","ISI","","html-keyboard-response","476","705585","0.0-1.0-651.0","0","0","40046","","7","","","68","72","d","","","","","","","","","","","","","","",""
"","S2","","html-keyboard-response","477","705856","0.0-1.0-652.0","0","0","40046","","139","","","75","72","","k","","","","","","","","","","","","","",""
"","response","","html-keyboard-response","478","705882","0.0-1.0-653.0","0","0","40046","","20","","","68","72","","","2","72","training","adjacent","BC","2","3","N.jpg","M.jpg","1","1","1","",""
"","feedback","","html-keyboard-response","479","706886","0.0-1.0-654.0-0.0","0","0","40046","","null","","","null","72","","","","","","","","","","","","","","","",""
"","ITI","","html-keyboard-response","480","707923","0.0-1.0-657.0","0","0","40046","","217","","","68","72","","","","","","","","","","","","","","","d",""
"","S1","","html-keyboard-response","481","708205","0.0-1.0-659.0","0","0","40046","","null","","","null","73","","","","","","","","","","","","","","","",""
"","ISI","","html-keyboard-response","482","710210","0.0-1.0-660.0","0","0","40046","","79","","","75","73","k","","","","","","","","","","","","","","",""
"","S2","","html-keyboard-response","483","710462","0.0-1.0-661.0","0","0","40046","","123","","","68","73","","d","","","","","","","","","","","","","",""
"","response","","html-keyboard-response","484","710488","0.0-1.0-662.0","0","0","40046","","24","","","75","73","","","2","73","training","adjacent","DE","4","5","P.jpg","Q.jpg","0","1","0","",""
"","feedback","","html-keyboard-response","485","711492","0.0-1.0-663.0-0.0","0","0","40046","","null","","","null","73","","","","","","","","","","","","","","","",""
"","time_out","","html-keyboard-response","486","713498","0.0-1.0-665.0-0.0","0","0","40046","","null","","","null","73","","","","","","","","","","","","","","","",""
"","ITI","","html-keyboard-response","487","714502","0.0-1.0-666.0","0","0","40046","","66","","","68","73","","","","","","","","","","","","","","","d",""
"","S1","","html-keyboard-response","488","714756","0.0-1.0-668.0","0","0","40046","","null","","","null","74","","","","","","","","","","","","","","","",""
"","ISI","","html-keyboard-response","489","716760","0.0-1.0-669.0","0","0","40046","","89","","","68","74","d","","","","","","","","","","","","","","",""
"","S2","","html-keyboard-response","490","717013","0.0-1.0-670.0","0","0","40046","","238","","","68","74","","d","","","","","","","","","","","","","",""
"","response","","html-keyboard-response","491","717232","0.0-1.0-671.0","0","0","40046","","217","","","75","74","","","2","74","training","adjacent","DE","4","5","P.jpg","Q.jpg","0","1","0","",""
"","feedback","","html-keyboard-response","492","718237","0.0-1.0-672.0-0.0","0","0","40046","","null","","","null","74","","","","","","","","","","","","","","","",""
"","time_out","","html-keyboard-response","493","720240","0.0-1.0-674.0-0.0","0","0","40046","","null","","","null","74","","","","","","","","","","","","","","","",""
"","ITI","","html-keyboard-response","494","721244","0.0-1.0-675.0","0","0","40046","","277","","","68","74","","","","","","","","","","","","","","","d",""
"","S1","","html-keyboard-response","495","721498","0.0-1.0-677.0","0","0","40046","","null","","","null","75","","","","","","","","","","","","","","","",""
"","ISI","","html-keyboard-response","496","723506","0.0-1.0-678.0","0","0","40046","","271","","","68","75","d","","","","","","","","","","","","","","",""
"","S2","","html-keyboard-response","497","723760","0.0-1.0-679.0","0","0","40046","","null","","","null","75","","NaN","","","","","","","","","","","","","",""
"","response","","html-keyboard-response","498","725764","0.0-1.0-680.0","0","0","40046","","null","","","null","75","","","2","75","training","adjacent","ED","5","4","Q.jpg","P.jpg","NaN","0","0","",""
"","too_slow_prompt","","html-keyboard-response","499","726768","0.0-1.0-682.0-0.0","1","0","40046","","null","","","null","","","","","","","","","","","","","","","","",""
"","time_out","","html-keyboard-response","500","728772","0.0-1.0-683.0-0.0","0","0","40046","","null","","","null","75","","","","","","","","","","","","","","","",""
"","ITI","","html-keyboard-response","501","729905","0.0-1.0-684.0","0","0","40046","","129","","","68","75","","","","","","","","","","","","","","","d",""
"","S1","","html-keyboard-response","502","730196","0.0-1.0-686.0","0","0","40046","","null","","","null","76","","","","","","","","","","","","","","","",""
"","ISI","","html-keyboard-response","503","732200","0.0-1.0-687.0","0","0","40046","","129","","","68","76","d","","","","","","","","","","","","","","",""
"","S2","","html-keyboard-response","504","732459","0.0-1.0-688.0","0","0","40046","","134","","","75","76","","k","","","","","","","","","","","","","",""
"","response","","html-keyboard-response","505","732553","0.0-1.0-689.0","0","0","40046","","90","","","68","76","","","2","76","training","adjacent","BC","2","3","N.jpg","M.jpg","1","1","1","",""
"","feedback","","html-keyboard-response","506","733557","0.0-1.0-690.0-0.0","0","0","40046","","null","","","null","76","","","","","","","","","","","","","","","",""
"","ITI","","html-keyboard-response","507","734562","0.0-1.0-693.0","0","0","40046","","16","","","68","76","","","","","","","","","","","","","","","d",""
"","S1","","html-keyboard-response","508","734817","0.0-1.0-695.0","0","0","40046","","null","","","null","77","","","","","","","","","","","","","","","",""
"","ISI","","html-keyboard-response","509","736821","0.0-1.0-696.0","0","0","40046","","101","","","68","77","d","","","","","","","","","","","","","","",""
"","S2","","html-keyboard-response","510","737075","0.0-1.0-697.0","0","0","40046","","187","","","75","77","","k","","","","","","","","","","","","","",""
"","response","","html-keyboard-response","511","737297","0.0-1.0-698.0","0","0","40046","","219","","","75","77","","","2","77","training","adjacent","BC","2","3","N.jpg","M.jpg","0","1","0","",""
"","feedback","","html-keyboard-response","512","738301","0.0-1.0-699.0-0.0","0","0","40046","","null","","","null","77","","","","","","","","","","","","","","","",""
"","time_out","","html-keyboard-response","513","740303","0.0-1.0-701.0-0.0","0","0","40046","","null","","","null","77","","","","","","","","","","","","","","","",""
"","ITI","","html-keyboard-response","514","741306","0.0-1.0-702.0","0","0","40046","","127","","","75","77","","","","","","","","","","","","","","","k",""
"","S1","","html-keyboard-response","515","741562","0.0-1.0-704.0","0","0","40046","","null","","","null","78","","","","","","","","","","","","","","","",""
"","ISI","","html-keyboard-response","516","743565","0.0-1.0-705.0","0","0","40046","","179","","","68","78","d","","","","","","","","","","","","","","",""
"","S2","","html-keyboard-response","517","743820","0.0-1.0-706.0","0","0","40046","","40","","","68","78","","d","","","","","","","","","","","","","",""
"","response","","html-keyboard-response","518","743975","0.0-1.0-707.0","0","0","40046","","153","","","68","78","","","2","78","training","adjacent","DE","4","5","P.jpg","Q.jpg","1","1","1","",""
"","feedback","","html-keyboard-response","519","744980","0.0-1.0-708.0-0.0","0","0","40046","","null","","","null","78","","","","","","","","","","","","","","","",""
"","ITI","","html-keyboard-response","520","745985","0.0-1.0-711.0","0","0","40046","","81","","","68","78","","","","","","","","","","","","","","","d",""
"","S1","","html-keyboard-response","521","746241","0.0-1.0-713.0","0","0","40046","","null","","","null","79","","","","","","","","","","","","","","","",""
"","ISI","","html-keyboard-response","522","748245","0.0-1.0-714.0","0","0","40046","","52","","","75","79","k","","","","","","","","","","","","","","",""
"","S2","","html-keyboard-response","523","748500","0.0-1.0-715.0","0","0","40046","","65","","","75","79","","k","","","","","","","","","","","","","",""
"","response","","html-keyboard-response","524","748665","0.0-1.0-716.0","0","0","40046","","161","","","75","79","","","2","79","training","adjacent","EF","5","6","Q.jpg","R.jpg","0","1","0","",""
"","feedback","","html-keyboard-response","525","749670","0.0-1.0-717.0-0.0","0","0","40046","","null","","","null","79","","","","","","","","","","","","","","","",""
"","time_out","","html-keyboard-response","526","751673","0.0-1.0-719.0-0.0","0","0","40046","","null","","","null","79","","","","","","","","","","","","","","","",""
"","ITI","","html-keyboard-response","527","752691","0.0-1.0-720.0","0","0","40046","","34","","","75","79","","","","","","","","","","","","","","","k",""
"","S1","","html-keyboard-response","528","752944","0.0-1.0-722.0","0","0","40046","","null","","","null","80","","","","","","","","","","","","","","","",""
"","ISI","","html-keyboard-response","529","754947","0.0-1.0-723.0","0","0","40046","","62","","","75","80","k","","","","","","","","","","","","","","",""
"","S2","","html-keyboard-response","530","755202","0.0-1.0-724.0","0","0","40046","","81","","","68","80","","d","","","","","","","","","","","","","",""
"","response","","html-keyboard-response","531","755305","0.0-1.0-725.0","0","0","40046","","101","","","68","80","","","2","80","training","adjacent","ED","5","4","Q.jpg","P.jpg","1","0","0","",""
"","feedback","","html-keyboard-response","532","756309","0.0-1.0-726.0-0.0","0","0","40046","","null","","","null","80","","","","","","","","","","","","","","","",""
"","time_out","","html-keyboard-response","533","758312","0.0-1.0-728.0-0.0","0","0","40046","","null","","","null","80","","","","","","","","","","","","","","","",""
"","ITI","","html-keyboard-response","534","759314","0.0-1.0-729.0","0","0","40046","","45","","","68","80","","","","","","","","","","","","","","","d",""
"","S1","","html-keyboard-response","535","759569","0.0-1.0-731.0","0","0","40046","","null","","","null","81","","","","","","","","","","","","","","","",""
"","ISI","","html-keyboard-response","536","761571","0.0-1.0-732.0","0","0","40046","","77","","","75","81","k","","","","","","","","","","","","","","",""
"","S2","","html-keyboard-response","537","761841","0.0-1.0-733.0","0","0","40046","","173","","","68","81","","d","","","","","","","","","","","","","",""
"","response","","html-keyboard-response","538","761961","0.0-1.0-734.0","0","0","40046","","115","","","75","81","","","2","81","training","adjacent","GF","7","6","L.jpg","R.jpg","0","0","1","",""
"","feedback","","html-keyboard-response","539","762965","0.0-1.0-735.0-0.0","0","0","40046","","null","","","null","81","","","","","","","","","","","","","","","",""
"","ITI","","html-keyboard-response","540","763970","0.0-1.0-738.0","0","0","40046","","113","","","75","81","","","","","","","","","","","","","","","k",""
"","S1","","html-keyboard-response","541","764223","0.0-1.0-740.0","0","0","40046","","null","","","null","82","","","","","","","","","","","","","","","",""
"","ISI","","html-keyboard-response","542","766227","0.0-1.0-741.0","0","0","40046","","88","","","68","82","d","","","","","","","","","","","","","","",""
"","S2","","html-keyboard-response","543","766483","0.0-1.0-742.0","0","0","40046","","194","","","68","82","","d","","","","","","","","","","","","","",""
"","response","","html-keyboard-response","544","766610","0.0-1.0-743.0","0","0","40046","","119","","","75","82","","","2","82","training","adjacent","CB","3","2","M.jpg","N.jpg","0","0","1","",""
"","feedback","","html-keyboard-response","545","767614","0.0-1.0-744.0-0.0","0","0","40046","","null","","","null","82","","","","","","","","","","","","","","","",""
"","ITI","","html-keyboard-response","546","768618","0.0-1.0-747.0","0","0","40046","","158","","","75","82","","","","","","","","","","","","","","","k",""
"","S1","","html-keyboard-response","547","768873","0.0-1.0-749.0","0","0","40046","","null","","","null","83","","","","","","","","","","","","","","","",""
"","ISI","","html-keyboard-response","548","770877","0.0-1.0-750.0","0","0","40046","","86","","","75","83","k","","","","","","","","","","","","","","",""
"","S2","","html-keyboard-response","549","771133","0.0-1.0-751.0","0","0","40046","","27","","","75","83","","k","","","","","","","","","","","","","",""
"","response","","html-keyboard-response","550","771321","0.0-1.0-752.0","0","0","40046","","184","","","75","83","","","2","83","training","adjacent","DE","4","5","P.jpg","Q.jpg","0","1","0","",""
"","feedback","","html-keyboard-response","551","772325","0.0-1.0-753.0-0.0","0","0","40046","","null","","","null","83","","","","","","","","","","","","","","","",""
"","time_out","","html-keyboard-response","552","774328","0.0-1.0-755.0-0.0","0","0","40046","","null","","","null","83","","","","","","","","","","","","","","","",""
"","ITI","","html-keyboard-response","553","775332","0.0-1.0-756.0","0","0","40046","","6","","","68","83","","","","","","","","","","","","","","","d",""
"","S1","","html-keyboard-response","554","775584","0.0-1.0-758.0","0","0","40046","","null","","","null","84","","","","","","","","","","","","","","","",""
"","ISI","","html-keyboard-response","555","777587","0.0-1.0-759.0","0","0","40046","","136","","","68","84","d","","","","","","","","","","","","","","",""
"","S2","","html-keyboard-response","556","777902","0.0-1.0-760.0","0","0","40046","","null","","","null","84","","NaN","","","","","","","","","","","","","",""
"","response","","html-keyboard-response","557","779050","0.0-1.0-761.0","0","0","40046","","1146","","","75","84","","","2","84","training","adjacent","FG","6","7","R.jpg","L.jpg","0","1","0","",""
"","feedback","","html-keyboard-response","558","780055","0.0-1.0-762.0-0.0","0","0","40046","","null","","","null","84","","","","","","","","","","","","","","","",""
"","time_out","","html-keyboard-response","559","782058","0.0-1.0-764.0-0.0","0","0","40046","","null","","","null","84","","","","","","","","","","","","","","","",""
"","ITI","","html-keyboard-response","560","783060","0.0-1.0-765.0","0","0","40046","","13","","","68","84","","","","","","","","","","","","","","","d",""
"","S1","","html-keyboard-response","561","783313","0.0-1.0-767.0","0","0","40046","","null","","","null","85","","","","","","","","","","","","","","","",""
"","ISI","","html-keyboard-response","562","785316","0.0-1.0-768.0","0","0","40046","","38","","","68","85","d","","","","","","","","","","","","","","",""
"","S2","","html-keyboard-response","563","785571","0.0-1.0-769.0","0","0","40046","","113","","","68","85","","d","","","","","","","","","","","","","",""
"","response","","html-keyboard-response","564","787131","0.0-1.0-770.0","0","0","40046","","1556","","","68","85","","","2","85","training","adjacent","DC","4","3","P.jpg","M.jpg","1","0","0","",""
"","feedback","","html-keyboard-response","565","788136","0.0-1.0-771.0-0.0","0","0","40046","","null","","","null","85","","","","","","","","","","","","","","","",""
"","time_out","","html-keyboard-response","566","790138","0.0-1.0-773.0-0.0","0","0","40046","","null","","","null","85","","","","","","","","","","","","","","","",""
"","ITI","","html-keyboard-response","567","791141","0.0-1.0-774.0","0","0","40046","","45","","","68","85","","","","","","","","","","","","","","","d",""
"","S1","","html-keyboard-response","568","791396","0.0-1.0-776.0","0","0","40046","","null","","","null","86","","","","","","","","","","","","","","","",""
"","ISI","","html-keyboard-response","569","793401","0.0-1.0-777.0","0","0","40046","","61","","","75","86","k","","","","","","","","","","","","","","",""
"","S2","","html-keyboard-response","570","793690","0.0-1.0-778.0","0","0","40046","","12","","","68","86","","d","","","","","","","","","","","","","",""
"","response","","html-keyboard-response","571","793791","0.0-1.0-779.0","0","0","40046","","97","","","68","86","","","2","86","training","adjacent","CD","3","4","M.jpg","P.jpg","1","1","1","",""
"","feedback","","html-keyboard-response","572","794794","0.0-1.0-780.0-0.0","0","0","40046","","null","","","null","86","","","","","","","","","","","","","","","",""
"","ITI","","html-keyboard-response","573","795799","0.0-1.0-783.0","0","0","40046","","109","","","68","86","","","","","","","","","","","","","","","d",""
"","S1","","html-keyboard-response","574","796052","0.0-1.0-785.0","0","0","40046","","null","","","null","87","","","","","","","","","","","","","","","",""
"","ISI","","html-keyboard-response","575","798056","0.0-1.0-786.0","0","0","40046","","156","","","75","87","k","","","","","","","","","","","","","","",""
"","S2","","html-keyboard-response","576","798310","0.0-1.0-787.0","0","0","40046","","47","","","68","87","","d","","","","","","","","","","","","","",""
"","response","","html-keyboard-response","577","798354","0.0-1.0-788.0","0","0","40046","","38","","","68","87","","","2","87","training","adjacent","FE","6","5","R.jpg","Q.jpg","1","0","0","",""
"","feedback","","html-keyboard-response","578","799359","0.0-1.0-789.0-0.0","0","0","40046","","null","","","null","87","","","","","","","","","","","","","","","",""
"","time_out","","html-keyboard-response","579","801363","0.0-1.0-791.0-0.0","0","0","40046","","null","","","null","87","","","","","","","","","","","","","","","",""
"","ITI","","html-keyboard-response","580","802367","0.0-1.0-792.0","0","0","40046","","123","","","68","87","","","","","","","","","","","","","","","d",""
"","S1","","html-keyboard-response","581","802621","0.0-1.0-794.0","0","0","40046","","null","","","null","88","","","","","","","","","","","","","","","",""
"","ISI","","html-keyboard-response","582","804625","0.0-1.0-795.0","0","0","40046","","130","","","75","88","k","","","","","","","","","","","","","","",""
"","S2","","html-keyboard-response","583","804881","0.0-1.0-796.0","0","0","40046","","45","","","75","88","","k","","","","","","","","","","","","","",""
"","response","","html-keyboard-response","584","804962","0.0-1.0-797.0","0","0","40046","","78","","","75","88","","","2","88","training","adjacent","AB","1","2","O.jpg","N.jpg","0","1","0","",""
"","feedback","","html-keyboard-response","585","806001","0.0-1.0-798.0-0.0","0","0","40046","","null","","","null","88","","","","","","","","","","","","","","","",""
"","time_out","","html-keyboard-response","586","808003","0.0-1.0-800.0-0.0","0","0","40046","","null","","","null","88","","","","","","","","","","","","","","","",""
"","ITI","","html-keyboard-response","587","809007","0.0-1.0-801.0","0","0","40046","","23","","","68","88","","","","","","","","","","","","","","","d",""
"","S1","","html-keyboard-response","588","809261","0.0-1.0-803.0","0","0","40046","","null","","","null","89","","","","","","","","","","","","","","","",""
"","ISI","","html-keyboard-response","589","811265","0.0-1.0-804.0","0","0","40046","","100","","","68","89","d","","","","","","","","","","","","","","",""
"","S2","","html-keyboard-response","590","811520","0.0-1.0-805.0","0","0","40046","","166","","","68","89","","d","","","","","","","","","","","","","",""
"","response","","html-keyboard-response","591","811619","0.0-1.0-806.0","0","0","40046","","96","","","75","89","","","2","89","training","adjacent","BA","2","1","N.jpg","O.jpg","0","0","1","",""
"","feedback","","html-keyboard-response","592","812622","0.0-1.0-807.0-0.0","0","0","40046","","null","","","null","89","","","","","","","","","","","","","","","",""
