"success","ttype","start_time","trial_type","trial_index","time_elapsed","internal_node_id","warning","missed_checkup","PID","view_history","rt","responses","repeat_instructions","key_press","index","keypress_isi","keypress_S2","block","trial_num","phase","group_type","pair_type","S1_stim","S2_stim","S1_img","S2_img","S1_chosen","S1_higher","accuracy","keypress_iti","total_bonus_tally"
"true","full_screen","d03082023hr1433","fullscreen","0","11809","0.0-0.0","0","0","52875","","","","","","","","","","","","","","","","","","","","","",""
"","instructions","","instructions","1","60295","0.0-1.0-0.0-0.0","0","0","52875","[{""page_index"":0,""viewing_time"":3801},{""page_index"":1,""viewing_time"":28594},{""page_index"":2,""viewing_time"":13815},{""page_index"":3,""viewing_time"":2268}]","48478","","","","","","","","","","","","","","","","","","","",""
"","comprehension_check","","survey-multi-choice","2","79280","0.0-1.0-0.0-1.0","0","0","52875","","18976","{""Q0"":""True"",""Q1"":""K"",""Q2"":""Only when the screen 'MAKE A CHOICE' is shown"",""Q3"":""Green mark"",""Q4"":""either D or K""}","1","","","","","","","","","","","","","","","","","",""
"","missed_instruction_checkup","","html-keyboard-response","3","81120","0.0-1.0-0.0-2.0-0.0","0","1","52875","","1836","","","32","","","","","","","","","","","","","","","","",""
"","instructions","","instructions","4","112399","0.0-1.0-0.1-0.1","0","0","52875","[{""page_index"":0,""viewing_time"":1784},{""page_index"":1,""viewing_time"":23731},{""page_index"":2,""viewing_time"":4823},{""page_index"":3,""viewing_time"":936}]","31274","","","","","","","","","","","","","","","","","","","",""
"","comprehension_check","","survey-multi-choice","5","128787","0.0-1.0-0.1-1.1","0","0","52875","","16378","{""Q0"":""True"",""Q1"":""K"",""Q2"":""Once the second image appears and while the screen 'MAKE A CHOICE' is shown"",""Q3"":""Green mark"",""Q4"":""either D or K""}","0","","","","","","","","","","","","","","","","","",""
"","start_exp","","html-keyboard-response","6","131247","0.0-1.0-1.0","0","0","52875","","2455","","","32","","","","","","","","","","","","","","","","",""
"","S1","","html-keyboard-response","7","131506","0.0-1.0-2.0","0","0","52875","","null","","","null","0","","","","","","","","","","","","","","","",""
"","ISI","","html-keyboard-response","8","131666","0.0-1.0-3.0","0","0","52875","","null","","","null","0","NaN","","","","","","","","","","","","","","",""
"","S2","","html-keyboard-response","9","131927","0.0-1.0-4.0","0","0","52875","","null","","","null","0","","NaN","","","","","","","","","","","","","",""
"","response","","html-keyboard-response","10","132646","0.0-1.0-5.0-0.0","0","0","52875","","712","","","75","0","","","1","0","training","adjacent","DC","4","3","N.jpg","P.jpg","1","0","0","",""
"","feedback","","html-keyboard-response","11","133655","0.0-1.0-6.0-0.0","0","0","52875","","null","","","null","0","","","","","","","","","","","","","","","",""
"","time_out","","html-keyboard-response","12","135666","0.0-1.0-8.0-0.0","0","0","52875","","null","","","null","0","","","","","","","","","","","","","","","",""
"","ITI","","html-keyboard-response","13","136673","0.0-1.0-9.0","0","0","52875","","null","","","null","0","","","","","","","","","","","","","","","NaN",""
"","S1","","html-keyboard-response","14","136935","0.0-1.0-11.0","0","0","52875","","null","","","null","1","","","","","","","","","","","","","","","",""
"","ISI","","html-keyboard-response","15","137096","0.0-1.0-12.0","0","0","52875","","null","","","null","1","NaN","","","","","","","","","","","","","","",""
"","S2","","html-keyboard-response","16","137357","0.0-1.0-13.0","0","0","52875","","null","","","null","1","","NaN","","","","","","","","","","","","","",""
"","response","","html-keyboard-response","17","137954","0.0-1.0-14.0-0.0","0","0","52875","","594","","","75","1","","","1","1","training","adjacent","GF","7","6","R.jpg","M.jpg","1","0","0","",""
"","feedback","","html-keyboard-response","18","138962","0.0-1.0-15.0-0.0","0","0","52875","","null","","","null","1","","","","","","","","","","","","","","","",""
"","time_out","","html-keyboard-response","19","140972","0.0-1.0-17.0-0.0","0","0","52875","","null","","","null","1","","","","","","","","","","","","","","","",""
"","ITI","","html-keyboard-response","20","141981","0.0-1.0-18.0","0","0","52875","","null","","","null","1","","","","","","","","","","","","","","","NaN",""
"","S1","","html-keyboard-response","21","142243","0.0-1.0-20.0","0","0","52875","","null","","","null","2","","","","","","","","","","","","","","","",""
"","ISI","","html-keyboard-response","22","142397","0.0-1.0-21.0","0","0","52875","","null","","","null","2","NaN","","","","","","","","","","","","","","",""
"","S2","","html-keyboard-response","23","142659","0.0-1.0-22.0","0","0","52875","","null","","","null","2","","NaN","","","","","","","","","","","","","",""
"","response","","html-keyboard-response","24","143151","0.0-1.0-23.0-0.0","0","0","52875","","487","","","68","2","","","1","2","training","adjacent","GF","7","6","R.jpg","M.jpg","0","0","1","",""
"","feedback","","html-keyboard-response","25","144162","0.0-1.0-24.0-0.0","0","0","52875","","null","","","null","2","","","","","","","","","","","","","","","",""
"","ITI","","html-keyboard-response","26","145171","0.0-1.0-27.0","0","0","52875","","null","","","null","2","","","","","","","","","","","","","","","NaN",""
"","S1","","html-keyboard-response","27","145428","0.0-1.0-29.0","0","0","52875","","null","","","null","3","","","","","","","","","","","","","","","",""
"","ISI","","html-keyboard-response","28","145585","0.0-1.0-30.0","0","0","52875","","null","","","null","3","NaN","","","","","","","","","","","","","","",""
"","S2","","html-keyboard-response","29","145845","0.0-1.0-31.0","0","0","52875","","null","","","null","3","","NaN","","","","","","","","","","","","","",""
"","response","","html-keyboard-response","30","146868","0.0-1.0-32.0-0.0","0","0","52875","","1016","","","75","3","","","1","3","training","adjacent","CD","3","4","P.jpg","N.jpg","1","1","1","",""
"","feedback","","html-keyboard-response","31","147879","0.0-1.0-33.0-0.0","0","0","52875","","null","","","null","3","","","","","","","","","","","","","","","",""
"","ITI","","html-keyboard-response","32","148890","0.0-1.0-36.0","0","0","52875","","null","","","null","3","","","","","","","","","","","","","","","NaN",""
"","S1","","html-keyboard-response","33","149145","0.0-1.0-38.0","0","0","52875","","null","","","null","4","","","","","","","","","","","","","","","",""
"","ISI","","html-keyboard-response","34","149305","0.0-1.0-39.0","0","0","52875","","null","","","null","4","NaN","","","","","","","","","","","","","","",""
"","S2","","html-keyboard-response","35","149564","0.0-1.0-40.0","0","0","52875","","null","","","null","4","","NaN","","","","","","","","","","","","","",""
"","response","","html-keyboard-response","36","151164","0.0-1.0-41.0-0.0","0","0","52875","","1597","","","75","4","","","1","4","training","adjacent","BC","2","3","Q.jpg","P.jpg","1","1","1","",""
"","feedback","","html-keyboard-response","37","152173","0.0-1.0-42.0-0.0","0","0","52875","","null","","","null","4","","","","","","","","","","","","","","","",""
"","ITI","","html-keyboard-response","38","153179","0.0-1.0-45.0","0","0","52875","","null","","","null","4","","","","","","","","","","","","","","","NaN",""
"","S1","","html-keyboard-response","39","153439","0.0-1.0-47.0","0","0","52875","","null","","","null","5","","","","","","","","","","","","","","","",""
"","ISI","","html-keyboard-response","40","153596","0.0-1.0-48.0","0","0","52875","","null","","","null","5","NaN","","","","","","","","","","","","","","",""
"","S2","","html-keyboard-response","41","153854","0.0-1.0-49.0","0","0","52875","","null","","","null","5","","NaN","","","","","","","","","","","","","",""
"","response","","html-keyboard-response","42","154523","0.0-1.0-50.0-0.0","0","0","52875","","665","","","75","5","","","1","5","training","adjacent","ED","5","4","O.jpg","N.jpg","1","0","0","",""
"","feedback","","html-keyboard-response","43","155530","0.0-1.0-51.0-0.0","0","0","52875","","null","","","null","5","","","","","","","","","","","","","","","",""
"","time_out","","html-keyboard-response","44","157537","0.0-1.0-53.0-0.0","0","0","52875","","null","","","null","5","","","","","","","","","","","","","","","",""
"","ITI","","html-keyboard-response","45","158547","0.0-1.0-54.0","0","0","52875","","null","","","null","5","","","","","","","","","","","","","","","NaN",""
"","S1","","html-keyboard-response","46","158807","0.0-1.0-56.0","0","0","52875","","null","","","null","6","","","","","","","","","","","","","","","",""
"","ISI","","html-keyboard-response","47","158966","0.0-1.0-57.0","0","0","52875","","null","","","null","6","NaN","","","","","","","","","","","","","","",""
"","S2","","html-keyboard-response","48","159227","0.0-1.0-58.0","0","0","52875","","null","","","null","6","","NaN","","","","","","","","","","","","","",""
"","response","","html-keyboard-response","49","160095","0.0-1.0-59.0-0.0","0","0","52875","","865","","","68","6","","","1","6","training","adjacent","GF","7","6","R.jpg","M.jpg","0","0","1","",""
"","feedback","","html-keyboard-response","50","161103","0.0-1.0-60.0-0.0","0","0","52875","","null","","","null","6","","","","","","","","","","","","","","","",""
"","ITI","","html-keyboard-response","51","162109","0.0-1.0-63.0","0","0","52875","","null","","","null","6","","","","","","","","","","","","","","","NaN",""
"","S1","","html-keyboard-response","52","162370","0.0-1.0-65.0","0","0","52875","","null","","","null","7","","","","","","","","","","","","","","","",""
"","ISI","","html-keyboard-response","53","162529","0.0-1.0-66.0","0","0","52875","","null","","","null","7","NaN","","","","","","","","","","","","","","",""
"","S2","","html-keyboard-response","54","162790","0.0-1.0-67.0","0","0","52875","","null","","","null","7","","NaN","","","","","","","","","","","","","",""
"","response","","html-keyboard-response","55","163372","0.0-1.0-68.0-0.0","0","0","52875","","580","","","68","7","","","1","7","training","adjacent","EF","5","6","O.jpg","M.jpg","0","1","0","",""
"","feedback","","html-keyboard-response","56","164380","0.0-1.0-69.0-0.0","0","0","52875","","null","","","null","7","","","","","","","","","","","","","","","",""
"","time_out","","html-keyboard-response","57","166391","0.0-1.0-71.0-0.0","0","0","52875","","null","","","null","7","","","","","","","","","","","","","","","",""
"","ITI","","html-keyboard-response","58","167401","0.0-1.0-72.0","0","0","52875","","null","","","null","7","","","","","","","","","","","","","","","NaN",""
"","S1","","html-keyboard-response","59","167659","0.0-1.0-74.0","0","0","52875","","null","","","null","8","","","","","","","","","","","","","","","",""
"","ISI","","html-keyboard-response","60","167820","0.0-1.0-75.0","0","0","52875","","null","","","null","8","NaN","","","","","","","","","","","","","","",""
"","S2","","html-keyboard-response","61","168081","0.0-1.0-76.0","0","0","52875","","null","","","null","8","","NaN","","","","","","","","","","","","","",""
"","response","","html-keyboard-response","62","169058","0.0-1.0-77.0-0.0","0","0","52875","","974","","","68","8","","","1","8","training","adjacent","BC","2","3","Q.jpg","P.jpg","0","1","0","",""
"","feedback","","html-keyboard-response","63","170067","0.0-1.0-78.0-0.0","0","0","52875","","null","","","null","8","","","","","","","","","","","","","","","",""
"","time_out","","html-keyboard-response","64","172077","0.0-1.0-80.0-0.0","0","0","52875","","null","","","null","8","","","","","","","","","","","","","","","",""
"","ITI","","html-keyboard-response","65","173086","0.0-1.0-81.0","0","0","52875","","null","","","null","8","","","","","","","","","","","","","","","NaN",""
"","S1","","html-keyboard-response","66","173346","0.0-1.0-83.0","0","0","52875","","null","","","null","9","","","","","","","","","","","","","","","",""
"","ISI","","html-keyboard-response","67","173506","0.0-1.0-84.0","0","0","52875","","null","","","null","9","NaN","","","","","","","","","","","","","","",""
"","S2","","html-keyboard-response","68","173767","0.0-1.0-85.0","0","0","52875","","null","","","null","9","","NaN","","","","","","","","","","","","","",""
"","response","","html-keyboard-response","69","174794","0.0-1.0-86.0-0.0","0","0","52875","","1023","","","68","9","","","1","9","training","adjacent","BA","2","1","Q.jpg","L.jpg","0","0","1","",""
"","feedback","","html-keyboard-response","70","175804","0.0-1.0-87.0-0.0","0","0","52875","","null","","","null","9","","","","","","","","","","","","","","","",""
"","ITI","","html-keyboard-response","71","176813","0.0-1.0-90.0","0","0","52875","","null","","","null","9","","","","","","","","","","","","","","","NaN",""
"","S1","","html-keyboard-response","72","177074","0.0-1.0-92.0","0","0","52875","","null","","","null","10","","","","","","","","","","","","","","","",""
"","ISI","","html-keyboard-response","73","177233","0.0-1.0-93.0","0","0","52875","","null","","","null","10","NaN","","","","","","","","","","","","","","",""
"","S2","","html-keyboard-response","74","177495","0.0-1.0-94.0","0","0","52875","","null","","","null","10","","NaN","","","","","","","","","","","","","",""
"","response","","html-keyboard-response","75","178411","0.0-1.0-95.0-0.0","0","0","52875","","913","","","68","10","","","1","10","training","adjacent","BA","2","1","Q.jpg","L.jpg","0","0","1","",""
"","feedback","","html-keyboard-response","76","179419","0.0-1.0-96.0-0.0","0","0","52875","","null","","","null","10","","","","","","","","","","","","","","","",""
"","ITI","","html-keyboard-response","77","180425","0.0-1.0-99.0","0","0","52875","","null","","","null","10","","","","","","","","","","","","","","","NaN",""
"","S1","","html-keyboard-response","78","180685","0.0-1.0-101.0","0","0","52875","","null","","","null","11","","","","","","","","","","","","","","","",""
"","ISI","","html-keyboard-response","79","180841","0.0-1.0-102.0","0","0","52875","","null","","","null","11","NaN","","","","","","","","","","","","","","",""
"","S2","","html-keyboard-response","80","181100","0.0-1.0-103.0","0","0","52875","","null","","","null","11","","NaN","","","","","","","","","","","","","",""
"","response","","html-keyboard-response","81","182354","0.0-1.0-104.0-0.0","0","0","52875","","1249","","","75","11","","","1","11","training","adjacent","CD","3","4","P.jpg","N.jpg","1","1","1","",""
"","feedback","","html-keyboard-response","82","183364","0.0-1.0-105.0-0.0","0","0","52875","","null","","","null","11","","","","","","","","","","","","","","","",""
"","ITI","","html-keyboard-response","83","184375","0.0-1.0-108.0","0","0","52875","","null","","","null","11","","","","","","","","","","","","","","","NaN",""
"","S1","","html-keyboard-response","84","184634","0.0-1.0-110.0","0","0","52875","","null","","","null","12","","","","","","","","","","","","","","","",""
"","ISI","","html-keyboard-response","85","184793","0.0-1.0-111.0","0","0","52875","","null","","","null","12","NaN","","","","","","","","","","","","","","",""
"","S2","","html-keyboard-response","86","185054","0.0-1.0-112.0","0","0","52875","","null","","","null","12","","NaN","","","","","","","","","","","","","",""
"","response","","html-keyboard-response","87","185703","0.0-1.0-113.0-0.0","0","0","52875","","644","","","75","12","","","1","12","training","adjacent","CD","3","4","P.jpg","N.jpg","1","1","1","",""
"","feedback","","html-keyboard-response","88","186713","0.0-1.0-114.0-0.0","0","0","52875","","null","","","null","12","","","","","","","","","","","","","","","",""
"","ITI","","html-keyboard-response","89","187724","0.0-1.0-117.0","0","0","52875","","null","","","null","12","","","","","","","","","","","","","","","NaN",""
"","S1","","html-keyboard-response","90","187984","0.0-1.0-119.0","0","0","52875","","null","","","null","13","","","","","","","","","","","","","","","",""
"","ISI","","html-keyboard-response","91","188143","0.0-1.0-120.0","0","0","52875","","null","","","null","13","NaN","","","","","","","","","","","","","","",""
"","S2","","html-keyboard-response","92","188401","0.0-1.0-121.0","0","0","52875","","null","","","null","13","","NaN","","","","","","","","","","","","","",""
"","response","","html-keyboard-response","93","189200","0.0-1.0-122.0-0.0","0","0","52875","","794","","","75","13","","","1","13","training","adjacent","FG","6","7","M.jpg","R.jpg","1","1","1","",""
"","feedback","","html-keyboard-response","94","190209","0.0-1.0-123.0-0.0","0","0","52875","","null","","","null","13","","","","","","","","","","","","","","","",""
"","ITI","","html-keyboard-response","95","191219","0.0-1.0-126.0","0","0","52875","","null","","","null","13","","","","","","","","","","","","","","","NaN",""
"","S1","","html-keyboard-response","96","191480","0.0-1.0-128.0","0","0","52875","","null","","","null","14","","","","","","","","","","","","","","","",""
"","ISI","","html-keyboard-response","97","191641","0.0-1.0-129.0","0","0","52875","","null","","","null","14","NaN","","","","","","","","","","","","","","",""
"","S2","","html-keyboard-response","98","191902","0.0-1.0-130.0","0","0","52875","","null","","","null","14","","NaN","","","","","","","","","","","","","",""
"","response","","html-keyboard-response","99","192347","0.0-1.0-131.0-0.0","0","0","52875","","440","","","75","14","","","1","14","training","adjacent","FE","6","5","M.jpg","O.jpg","1","0","0","",""
"","feedback","","html-keyboard-response","100","193359","0.0-1.0-132.0-0.0","0","0","52875","","null","","","null","14","","","","","","","","","","","","","","","",""
"","time_out","","html-keyboard-response","101","195367","0.0-1.0-134.0-0.0","0","0","52875","","null","","","null","14","","","","","","","","","","","","","","","",""
"","ITI","","html-keyboard-response","102","196376","0.0-1.0-135.0","0","0","52875","","null","","","null","14","","","","","","","","","","","","","","","NaN",""
"","S1","","html-keyboard-response","103","196636","0.0-1.0-137.0","0","0","52875","","null","","","null","15","","","","","","","","","","","","","","","",""
"","ISI","","html-keyboard-response","104","196796","0.0-1.0-138.0","0","0","52875","","null","","","null","15","NaN","","","","","","","","","","","","","","",""
"","S2","","html-keyboard-response","105","197056","0.0-1.0-139.0","0","0","52875","","null","","","null","15","","NaN","","","","","","","","","","","","","",""
"","response","","html-keyboard-response","106","197484","0.0-1.0-140.0-0.0","0","0","52875","","425","","","75","15","","","1","15","training","adjacent","FG","6","7","M.jpg","R.jpg","1","1","1","",""
"","feedback","","html-keyboard-response","107","198494","0.0-1.0-141.0-0.0","0","0","52875","","null","","","null","15","","","","","","","","","","","","","","","",""
"","ITI","","html-keyboard-response","108","199501","0.0-1.0-144.0","0","0","52875","","null","","","null","15","","","","","","","","","","","","","","","NaN",""
"","S1","","html-keyboard-response","109","199760","0.0-1.0-146.0","0","0","52875","","null","","","null","16","","","","","","","","","","","","","","","",""
"","ISI","","html-keyboard-response","110","199918","0.0-1.0-147.0","0","0","52875","","null","","","null","16","NaN","","","","","","","","","","","","","","",""
"","S2","","html-keyboard-response","111","200179","0.0-1.0-148.0","0","0","52875","","null","","","null","16","","NaN","","","","","","","","","","","","","",""
"","response","","html-keyboard-response","112","200753","0.0-1.0-149.0-0.0","0","0","52875","","569","","","68","16","","","1","16","training","adjacent","DC","4","3","N.jpg","P.jpg","0","0","1","",""
"","feedback","","html-keyboard-response","113","201763","0.0-1.0-150.0-0.0","0","0","52875","","null","","","null","16","","","","","","","","","","","","","","","",""
"","ITI","","html-keyboard-response","114","202772","0.0-1.0-153.0","0","0","52875","","null","","","null","16","","","","","","","","","","","","","","","NaN",""
"","S1","","html-keyboard-response","115","203029","0.0-1.0-155.0","0","0","52875","","null","","","null","17","","","","","","","","","","","","","","","",""
"","ISI","","html-keyboard-response","116","203187","0.0-1.0-156.0","0","0","52875","","null","","","null","17","NaN","","","","","","","","","","","","","","",""
"","S2","","html-keyboard-response","117","203447","0.0-1.0-157.0","0","0","52875","","null","","","null","17","","NaN","","","","","","","","","","","","","",""
"","response","","html-keyboard-response","118","204535","0.0-1.0-158.0-0.0","0","0","52875","","1085","","","75","17","","","1","17","training","adjacent","ED","5","4","O.jpg","N.jpg","1","0","0","",""
"","feedback","","html-keyboard-response","119","205544","0.0-1.0-159.0-0.0","0","0","52875","","null","","","null","17","","","","","","","","","","","","","","","",""
"","time_out","","html-keyboard-response","120","207555","0.0-1.0-161.0-0.0","0","0","52875","","null","","","null","17","","","","","","","","","","","","","","","",""
"","ITI","","html-keyboard-response","121","208566","0.0-1.0-162.0","0","0","52875","","null","","","null","17","","","","","","","","","","","","","","","NaN",""
"","S1","","html-keyboard-response","122","208826","0.0-1.0-164.0","0","0","52875","","null","","","null","18","","","","","","","","","","","","","","","",""
"","ISI","","html-keyboard-response","123","208985","0.0-1.0-165.0","0","0","52875","","null","","","null","18","NaN","","","","","","","","","","","","","","",""
"","S2","","html-keyboard-response","124","209247","0.0-1.0-166.0","0","0","52875","","null","","","null","18","","NaN","","","","","","","","","","","","","",""
"","response","","html-keyboard-response","125","210078","0.0-1.0-167.0-0.0","0","0","52875","","828","","","68","18","","","1","18","training","adjacent","DC","4","3","N.jpg","P.jpg","0","0","1","",""
"","feedback","","html-keyboard-response","126","211087","0.0-1.0-168.0-0.0","0","0","52875","","null","","","null","18","","","","","","","","","","","","","","","",""
"","ITI","","html-keyboard-response","127","212093","0.0-1.0-171.0","0","0","52875","","null","","","null","18","","","","","","","","","","","","","","","NaN",""
"","S1","","html-keyboard-response","128","212354","0.0-1.0-173.0","0","0","52875","","null","","","null","19","","","","","","","","","","","","","","","",""
"","ISI","","html-keyboard-response","129","212513","0.0-1.0-174.0","0","0","52875","","null","","","null","19","NaN","","","","","","","","","","","","","","",""
"","S2","","html-keyboard-response","130","212774","0.0-1.0-175.0","0","0","52875","","null","","","null","19","","NaN","","","","","","","","","","","","","",""
"","response","","html-keyboard-response","131","213318","0.0-1.0-176.0-0.0","0","0","52875","","543","","","75","19","","","1","19","training","adjacent","CB","3","2","P.jpg","Q.jpg","1","0","0","",""
"","feedback","","html-keyboard-response","132","214327","0.0-1.0-177.0-0.0","0","0","52875","","null","","","null","19","","","","","","","","","","","","","","","",""
"","time_out","","html-keyboard-response","133","216337","0.0-1.0-179.0-0.0","0","0","52875","","null","","","null","19","","","","","","","","","","","","","","","",""
"","ITI","","html-keyboard-response","134","217346","0.0-1.0-180.0","0","0","52875","","null","","","null","19","","","","","","","","","","","","","","","NaN",""
"","S1","","html-keyboard-response","135","217604","0.0-1.0-182.0","0","0","52875","","null","","","null","20","","","","","","","","","","","","","","","",""
"","ISI","","html-keyboard-response","136","217763","0.0-1.0-183.0","0","0","52875","","null","","","null","20","NaN","","","","","","","","","","","","","","",""
"","S2","","html-keyboard-response","137","218019","0.0-1.0-184.0","0","0","52875","","null","","","null","20","","NaN","","","","","","","","","","","","","",""
"","response","","html-keyboard-response","138","218963","0.0-1.0-185.0-0.0","0","0","52875","","940","","","68","20","","","1","20","training","adjacent","BC","2","3","Q.jpg","P.jpg","0","1","0","",""
"","feedback","","html-keyboard-response","139","219973","0.0-1.0-186.0-0.0","0","0","52875","","null","","","null","20","","","","","","","","","","","","","","","",""
"","time_out","","html-keyboard-response","140","221982","0.0-1.0-188.0-0.0","0","0","52875","","null","","","null","20","","","","","","","","","","","","","","","",""
"","ITI","","html-keyboard-response","141","222989","0.0-1.0-189.0","0","0","52875","","null","","","null","20","","","","","","","","","","","","","","","NaN",""
"","S1","","html-keyboard-response","142","223248","0.0-1.0-191.0","0","0","52875","","null","","","null","21","","","","","","","","","","","","","","","",""
"","ISI","","html-keyboard-response","143","223406","0.0-1.0-192.0","0","0","52875","","null","","","null","21","NaN","","","","","","","","","","","","","","",""
"","S2","","html-keyboard-response","144","223667","0.0-1.0-193.0","0","0","52875","","null","","","null","21","","NaN","","","","","","","","","","","","","",""
"","response","","html-keyboard-response","145","224229","0.0-1.0-194.0-0.0","0","0","52875","","558","","","75","21","","","1","21","training","adjacent","FG","6","7","M.jpg","R.jpg","1","1","1","",""
"","feedback","","html-keyboard-response","146","225240","0.0-1.0-195.0-0.0","0","0","52875","","null","","","null","21","","","","","","","","","","","","","","","",""
"","ITI","","html-keyboard-response","147","226250","0.0-1.0-198.0","0","0","52875","","null","","","null","21","","","","","","","","","","","","","","","NaN",""
"","S1","","html-keyboard-response","148","226512","0.0-1.0-200.0","0","0","52875","","null","","","null","22","","","","","","","","","","","","","","","",""
"","ISI","","html-keyboard-response","149","226671","0.0-1.0-201.0","0","0","52875","","null","","","null","22","NaN","","","","","","","","","","","","","","",""
"","S2","","html-keyboard-response","150","226932","0.0-1.0-202.0","0","0","52875","","null","","","null","22","","NaN","","","","","","","","","","","","","",""
"","response","","html-keyboard-response","151","227722","0.0-1.0-203.0-0.0","0","0","52875","","787","","","68","22","","","1","22","training","adjacent","BC","2","3","Q.jpg","P.jpg","0","1","0","",""
"","feedback","","html-keyboard-response","152","228727","0.0-1.0-204.0-0.0","0","0","52875","","null","","","null","22","","","","","","","","","","","","","","","",""
"","time_out","","html-keyboard-response","153","230732","0.0-1.0-206.0-0.0","0","0","52875","","null","","","null","22","","","","","","","","","","","","","","","",""
"","ITI","","html-keyboard-response","154","231742","0.0-1.0-207.0","0","0","52875","","null","","","null","22","","","","","","","","","","","","","","","NaN",""
"","S1","","html-keyboard-response","155","232002","0.0-1.0-209.0","0","0","52875","","null","","","null","23","","","","","","","","","","","","","","","",""
"","ISI","","html-keyboard-response","156","232162","0.0-1.0-210.0","0","0","52875","","null","","","null","23","NaN","","","","","","","","","","","","","","",""
"","S2","","html-keyboard-response","157","232422","0.0-1.0-211.0","0","0","52875","","null","","","null","23","","NaN","","","","","","","","","","","","","",""
"","response","","html-keyboard-response","158","233124","0.0-1.0-212.0-0.0","0","0","52875","","698","","","75","23","","","1","23","training","adjacent","AB","1","2","L.jpg","Q.jpg","1","1","1","",""
"","feedback","","html-keyboard-response","159","234133","0.0-1.0-213.0-0.0","0","0","52875","","null","","","null","23","","","","","","","","","","","","","","","",""
"","ITI","","html-keyboard-response","160","235143","0.0-1.0-216.0","0","0","52875","","null","","","null","23","","","","","","","","","","","","","","","NaN",""
"","S1","","html-keyboard-response","161","235403","0.0-1.0-218.0","0","0","52875","","null","","","null","24","","","","","","","","","","","","","","","",""
"","ISI","","html-keyboard-response","162","235563","0.0-1.0-219.0","0","0","52875","","null","","","null","24","NaN","","","","","","","","","","","","","","",""
"","S2","","html-keyboard-response","163","235824","0.0-1.0-220.0","0","0","52875","","null","","","null","24","","NaN","","","","","","","","","","","","","",""
"","response","","html-keyboard-response","164","237207","0.0-1.0-221.0-0.0","0","0","52875","","1377","","","75","24","","","1","24","training","adjacent","DE","4","5","N.jpg","O.jpg","1","1","1","",""
"","feedback","","html-keyboard-response","165","238218","0.0-1.0-222.0-0.0","0","0","52875","","null","","","null","24","","","","","","","","","","","","","","","",""
"","ITI","","html-keyboard-response","166","239227","0.0-1.0-225.0","0","0","52875","","null","","","null","24","","","","","","","","","","","","","","","NaN",""
"","S1","","html-keyboard-response","167","239486","0.0-1.0-227.0","0","0","52875","","null","","","null","25","","","","","","","","","","","","","","","",""
"","ISI","","html-keyboard-response","168","239645","0.0-1.0-228.0","0","0","52875","","null","","","null","25","NaN","","","","","","","","","","","","","","",""
"","S2","","html-keyboard-response","169","239906","0.0-1.0-229.0","0","0","52875","","null","","","null","25","","NaN","","","","","","","","","","","","","",""
"","response","","html-keyboard-response","170","240621","0.0-1.0-230.0-0.0","0","0","52875","","710","","","75","25","","","1","25","training","adjacent","AB","1","2","L.jpg","Q.jpg","1","1","1","",""
"","feedback","","html-keyboard-response","171","241632","0.0-1.0-231.0-0.0","0","0","52875","","null","","","null","25","","","","","","","","","","","","","","","",""
"","ITI","","html-keyboard-response","172","242642","0.0-1.0-234.0","0","0","52875","","null","","","null","25","","","","","","","","","","","","","","","NaN",""
"","S1","","html-keyboard-response","173","242904","0.0-1.0-236.0","0","0","52875","","null","","","null","26","","","","","","","","","","","","","","","",""
"","ISI","","html-keyboard-response","174","243064","0.0-1.0-237.0","0","0","52875","","null","","","null","26","NaN","","","","","","","","","","","","","","",""
"","S2","","html-keyboard-response","175","243320","0.0-1.0-238.0","0","0","52875","","null","","","null","26","","NaN","","","","","","","","","","","","","",""
"","response","","html-keyboard-response","176","244029","0.0-1.0-239.0-0.0","0","0","52875","","705","","","68","26","","","1","26","training","adjacent","CD","3","4","P.jpg","N.jpg","0","1","0","",""
"","feedback","","html-keyboard-response","177","245040","0.0-1.0-240.0-0.0","0","0","52875","","null","","","null","26","","","","","","","","","","","","","","","",""
"","time_out","","html-keyboard-response","178","247051","0.0-1.0-242.0-0.0","0","0","52875","","null","","","null","26","","","","","","","","","","","","","","","",""
"","ITI","","html-keyboard-response","179","248062","0.0-1.0-243.0","0","0","52875","","null","","","null","26","","","","","","","","","","","","","","","NaN",""
"","S1","","html-keyboard-response","180","248323","0.0-1.0-245.0","0","0","52875","","null","","","null","27","","","","","","","","","","","","","","","",""
"","ISI","","html-keyboard-response","181","248480","0.0-1.0-246.0","0","0","52875","","null","","","null","27","NaN","","","","","","","","","","","","","","",""
"","S2","","html-keyboard-response","182","248738","0.0-1.0-247.0","0","0","52875","","null","","","null","27","","NaN","","","","","","","","","","","","","",""
"","response","","html-keyboard-response","183","250060","0.0-1.0-248.0-0.0","0","0","52875","","1317","","","75","27","","","1","27","training","adjacent","DE","4","5","N.jpg","O.jpg","1","1","1","",""
"","feedback","","html-keyboard-response","184","251070","0.0-1.0-249.0-0.0","0","0","52875","","null","","","null","27","","","","","","","","","","","","","","","",""
"","ITI","","html-keyboard-response","185","252077","0.0-1.0-252.0","0","0","52875","","null","","","null","27","","","","","","","","","","","","","","","NaN",""
"","S1","","html-keyboard-response","186","252338","0.0-1.0-254.0","0","0","52875","","null","","","null","28","","","","","","","","","","","","","","","",""
"","ISI","","html-keyboard-response","187","252499","0.0-1.0-255.0","0","0","52875","","null","","","null","28","NaN","","","","","","","","","","","","","","",""
"","S2","","html-keyboard-response","188","252758","0.0-1.0-256.0","0","0","52875","","null","","","null","28","","NaN","","","","","","","","","","","","","",""
"","response","","html-keyboard-response","189","253391","0.0-1.0-257.0-0.0","0","0","52875","","630","","","75","28","","","1","28","training","adjacent","AB","1","2","L.jpg","Q.jpg","1","1","1","",""
"","feedback","","html-keyboard-response","190","254400","0.0-1.0-258.0-0.0","0","0","52875","","null","","","null","28","","","","","","","","","","","","","","","",""
"","ITI","","html-keyboard-response","191","255410","0.0-1.0-261.0","0","0","52875","","null","","","null","28","","","","","","","","","","","","","","","NaN",""
"","S1","","html-keyboard-response","192","255669","0.0-1.0-263.0","0","0","52875","","null","","","null","29","","","","","","","","","","","","","","","",""
"","ISI","","html-keyboard-response","193","255830","0.0-1.0-264.0","0","0","52875","","null","","","null","29","NaN","","","","","","","","","","","","","","",""
"","S2","","html-keyboard-response","194","256087","0.0-1.0-265.0","0","0","52875","","null","","","null","29","","NaN","","","","","","","","","","","","","",""
"","response","","html-keyboard-response","195","256610","0.0-1.0-266.0-0.0","0","0","52875","","520","","","75","29","","","1","29","training","adjacent","FG","6","7","M.jpg","R.jpg","1","1","1","",""
"","feedback","","html-keyboard-response","196","257619","0.0-1.0-267.0-0.0","0","0","52875","","null","","","null","29","","","","","","","","","","","","","","","",""
"","ITI","","html-keyboard-response","197","258625","0.0-1.0-270.0","0","0","52875","","null","","","null","29","","","","","","","","","","","","","","","NaN",""
"","S1","","html-keyboard-response","198","258885","0.0-1.0-272.0","0","0","52875","","null","","","null","30","","","","","","","","","","","","","","","",""
"","ISI","","html-keyboard-response","199","259043","0.0-1.0-273.0","0","0","52875","","null","","","null","30","NaN","","","","","","","","","","","","","","",""
"","S2","","html-keyboard-response","200","259304","0.0-1.0-274.0","0","0","52875","","null","","","null","30","","NaN","","","","","","","","","","","","","",""
"","response","","html-keyboard-response","201","259997","0.0-1.0-275.0-0.0","0","0","52875","","689","","","68","30","","","1","30","training","adjacent","EF","5","6","O.jpg","M.jpg","0","1","0","",""
"","feedback","","html-keyboard-response","202","261005","0.0-1.0-276.0-0.0","0","0","52875","","null","","","null","30","","","","","","","","","","","","","","","",""
"","time_out","","html-keyboard-response","203","263014","0.0-1.0-278.0-0.0","0","0","52875","","null","","","null","30","","","","","","","","","","","","","","","",""
"","ITI","","html-keyboard-response","204","264024","0.0-1.0-279.0","0","0","52875","","null","","","null","30","","","","","","","","","","","","","","","NaN",""
"","S1","","html-keyboard-response","205","264286","0.0-1.0-281.0","0","0","52875","","null","","","null","31","","","","","","","","","","","","","","","",""
"","ISI","","html-keyboard-response","206","264444","0.0-1.0-282.0","0","0","52875","","null","","","null","31","NaN","","","","","","","","","","","","","","",""
"","S2","","html-keyboard-response","207","264705","0.0-1.0-283.0","0","0","52875","","null","","","null","31","","NaN","","","","","","","","","","","","","",""
"","response","","html-keyboard-response","208","265123","0.0-1.0-284.0-0.0","0","0","52875","","413","","","75","31","","","1","31","training","adjacent","AB","1","2","L.jpg","Q.jpg","1","1","1","",""
"","feedback","","html-keyboard-response","209","266131","0.0-1.0-285.0-0.0","0","0","52875","","null","","","null","31","","","","","","","","","","","","","","","",""
"","ITI","","html-keyboard-response","210","267139","0.0-1.0-288.0","0","0","52875","","null","","","null","31","","","","","","","","","","","","","","","NaN",""
"","S1","","html-keyboard-response","211","267400","0.0-1.0-290.0","0","0","52875","","null","","","null","32","","","","","","","","","","","","","","","",""
"","ISI","","html-keyboard-response","212","267559","0.0-1.0-291.0","0","0","52875","","null","","","null","32","NaN","","","","","","","","","","","","","","",""
"","S2","","html-keyboard-response","213","267819","0.0-1.0-292.0","0","0","52875","","null","","","null","32","","NaN","","","","","","","","","","","","","",""
"","response","","html-keyboard-response","214","268249","0.0-1.0-293.0-0.0","0","0","52875","","425","","","75","32","","","1","32","training","adjacent","CB","3","2","P.jpg","Q.jpg","1","0","0","",""
"","feedback","","html-keyboard-response","215","269255","0.0-1.0-294.0-0.0","0","0","52875","","null","","","null","32","","","","","","","","","","","","","","","",""
"","time_out","","html-keyboard-response","216","271265","0.0-1.0-296.0-0.0","0","0","52875","","null","","","null","32","","","","","","","","","","","","","","","",""
"","ITI","","html-keyboard-response","217","272274","0.0-1.0-297.0","0","0","52875","","null","","","null","32","","","","","","","","","","","","","","","NaN",""
"","S1","","html-keyboard-response","218","272534","0.0-1.0-299.0","0","0","52875","","null","","","null","33","","","","","","","","","","","","","","","",""
"","ISI","","html-keyboard-response","219","272695","0.0-1.0-300.0","0","0","52875","","null","","","null","33","NaN","","","","","","","","","","","","","","",""
"","S2","","html-keyboard-response","220","272955","0.0-1.0-301.0","0","0","52875","","null","","","null","33","","NaN","","","","","","","","","","","","","",""
"","response","","html-keyboard-response","221","273715","0.0-1.0-302.0-0.0","0","0","52875","","756","","","68","33","","","1","33","training","adjacent","GF","7","6","R.jpg","M.jpg","0","0","1","",""
"","feedback","","html-keyboard-response","222","274726","0.0-1.0-303.0-0.0","0","0","52875","","null","","","null","33","","","","","","","","","","","","","","","",""
"","ITI","","html-keyboard-response","223","275735","0.0-1.0-306.0","0","0","52875","","null","","","null","33","","","","","","","","","","","","","","","NaN",""
"","S1","","html-keyboard-response","224","275994","0.0-1.0-308.0","0","0","52875","","null","","","null","34","","","","","","","","","","","","","","","",""
"","ISI","","html-keyboard-response","225","276153","0.0-1.0-309.0","0","0","52875","","null","","","null","34","NaN","","","","","","","","","","","","","","",""
"","S2","","html-keyboard-response","226","276414","0.0-1.0-310.0","0","0","52875","","null","","","null","34","","NaN","","","","","","","","","","","","","",""
"","response","","html-keyboard-response","227","277234","0.0-1.0-311.0-0.0","0","0","52875","","815","","","75","34","","","1","34","training","adjacent","CB","3","2","P.jpg","Q.jpg","1","0","0","",""
"","feedback","","html-keyboard-response","228","278242","0.0-1.0-312.0-0.0","0","0","52875","","null","","","null","34","","","","","","","","","","","","","","","",""
"","time_out","","html-keyboard-response","229","280253","0.0-1.0-314.0-0.0","0","0","52875","","null","","","null","34","","","","","","","","","","","","","","","",""
"","ITI","","html-keyboard-response","230","281259","0.0-1.0-315.0","0","0","52875","","null","","","null","34","","","","","","","","","","","","","","","NaN",""
"","S1","","html-keyboard-response","231","281520","0.0-1.0-317.0","0","0","52875","","null","","","null","35","","","","","","","","","","","","","","","",""
"","ISI","","html-keyboard-response","232","281680","0.0-1.0-318.0","0","0","52875","","null","","","null","35","NaN","","","","","","","","","","","","","","",""
"","S2","","html-keyboard-response","233","281940","0.0-1.0-319.0","0","0","52875","","null","","","null","35","","NaN","","","","","","","","","","","","","",""
"","response","","html-keyboard-response","234","282833","0.0-1.0-320.0-0.0","0","0","52875","","889","","","68","35","","","1","35","training","adjacent","EF","5","6","O.jpg","M.jpg","0","1","0","",""
"","feedback","","html-keyboard-response","235","283842","0.0-1.0-321.0-0.0","0","0","52875","","null","","","null","35","","","","","","","","","","","","","","","",""
"","time_out","","html-keyboard-response","236","285853","0.0-1.0-323.0-0.0","0","0","52875","","null","","","null","35","","","","","","","","","","","","","","","",""
"","ITI","","html-keyboard-response","237","286864","0.0-1.0-324.0","0","0","52875","","null","","","null","35","","","","","","","","","","","","","","","NaN",""
"","S1","","html-keyboard-response","238","287124","0.0-1.0-326.0","0","0","52875","","null","","","null","36","","","","","","","","","","","","","","","",""
"","ISI","","html-keyboard-response","239","287285","0.0-1.0-327.0","0","0","52875","","null","","","null","36","NaN","","","","","","","","","","","","","","",""
"","S2","","html-keyboard-response","240","287544","0.0-1.0-328.0","0","0","52875","","null","","","null","36","","NaN","","","","","","","","","","","","","",""
"","response","","html-keyboard-response","241","288987","0.0-1.0-329.0-0.0","0","0","52875","","1441","","","75","36","","","1","36","training","adjacent","DE","4","5","N.jpg","O.jpg","1","1","1","",""
"","feedback","","html-keyboard-response","242","289997","0.0-1.0-330.0-0.0","0","0","52875","","null","","","null","36","","","","","","","","","","","","","","","",""
"","ITI","","html-keyboard-response","243","291006","0.0-1.0-333.0","0","0","52875","","null","","","null","36","","","","","","","","","","","","","","","NaN",""
"","S1","","html-keyboard-response","244","291259","0.0-1.0-335.0","0","0","52875","","null","","","null","37","","","","","","","","","","","","","","","",""
"","ISI","","html-keyboard-response","245","291418","0.0-1.0-336.0","0","0","52875","","null","","","null","37","NaN","","","","","","","","","","","","","","",""
"","S2","","html-keyboard-response","246","291677","0.0-1.0-337.0","0","0","52875","","null","","","null","37","","NaN","","","","","","","","","","","","","",""
"","response","","html-keyboard-response","247","292603","0.0-1.0-338.0-0.0","0","0","52875","","921","","","68","37","","","1","37","training","adjacent","BA","2","1","Q.jpg","L.jpg","0","0","1","",""
"","feedback","","html-keyboard-response","248","293611","0.0-1.0-339.0-0.0","0","0","52875","","null","","","null","37","","","","","","","","","","","","","","","",""
"","ITI","","html-keyboard-response","249","294621","0.0-1.0-342.0","0","0","52875","","null","","","null","37","","","","","","","","","","","","","","","NaN",""
"","S1","","html-keyboard-response","250","294882","0.0-1.0-344.0","0","0","52875","","null","","","null","38","","","","","","","","","","","","","","","",""
"","ISI","","html-keyboard-response","251","295042","0.0-1.0-345.0","0","0","52875","","null","","","null","38","NaN","","","","","","","","","","","","","","",""
"","S2","","html-keyboard-response","252","295302","0.0-1.0-346.0","0","0","52875","","null","","","null","38","","NaN","","","","","","","","","","","","","",""
"","response","","html-keyboard-response","253","296358","0.0-1.0-347.0-0.0","0","0","52875","","1051","","","75","38","","","1","38","training","adjacent","FE","6","5","M.jpg","O.jpg","1","0","0","",""
"","feedback","","html-keyboard-response","254","297368","0.0-1.0-348.0-0.0","0","0","52875","","null","","","null","38","","","","","","","","","","","","","","","",""
"","time_out","","html-keyboard-response","255","299375","0.0-1.0-350.0-0.0","0","0","52875","","null","","","null","38","","","","","","","","","","","","","","","",""
"","ITI","","html-keyboard-response","256","300379","0.0-1.0-351.0","0","0","52875","","null","","","null","38","","","","","","","","","","","","","","","NaN",""
"","S1","","html-keyboard-response","257","300639","0.0-1.0-353.0","0","0","52875","","null","","","null","39","","","","","","","","","","","","","","","",""
"","ISI","","html-keyboard-response","258","300799","0.0-1.0-354.0","0","0","52875","","null","","","null","39","NaN","","","","","","","","","","","","","","",""
"","S2","","html-keyboard-response","259","301060","0.0-1.0-355.0","0","0","52875","","null","","","null","39","","NaN","","","","","","","","","","","","","",""
"","response","","html-keyboard-response","260","302027","0.0-1.0-356.0-0.0","0","0","52875","","966","","","75","39","","","1","39","training","adjacent","CB","3","2","P.jpg","Q.jpg","1","0","0","",""
"","feedback","","html-keyboard-response","261","303037","0.0-1.0-357.0-0.0","0","0","52875","","null","","","null","39","","","","","","","","","","","","","","","",""
"","time_out","","html-keyboard-response","262","305047","0.0-1.0-359.0-0.0","0","0","52875","","null","","","null","39","","","","","","","","","","","","","","","",""
"","ITI","","html-keyboard-response","263","306058","0.0-1.0-360.0","0","0","52875","","null","","","null","39","","","","","","","","","","","","","","","NaN",""
"","S1","","html-keyboard-response","264","306319","0.0-1.0-362.0","0","0","52875","","null","","","null","40","","","","","","","","","","","","","","","",""
"","ISI","","html-keyboard-response","265","306476","0.0-1.0-363.0","0","0","52875","","null","","","null","40","NaN","","","","","","","","","","","","","","",""
"","S2","","html-keyboard-response","266","306735","0.0-1.0-364.0","0","0","52875","","null","","","null","40","","NaN","","","","","","","","","","","","","",""
"","response","","html-keyboard-response","267","307759","0.0-1.0-365.0-0.0","0","0","52875","","1021","","","75","40","","","1","40","training","adjacent","ED","5","4","O.jpg","N.jpg","1","0","0","",""
"","feedback","","html-keyboard-response","268","308770","0.0-1.0-366.0-0.0","0","0","52875","","null","","","null","40","","","","","","","","","","","","","","","",""
"","time_out","","html-keyboard-response","269","310778","0.0-1.0-368.0-0.0","0","0","52875","","null","","","null","40","","","","","","","","","","","","","","","",""
"","ITI","","html-keyboard-response","270","311788","0.0-1.0-369.0","0","0","52875","","null","","","null","40","","","","","","","","","","","","","","","NaN",""
"","S1","","html-keyboard-response","271","312047","0.0-1.0-371.0","0","0","52875","","null","","","null","41","","","","","","","","","","","","","","","",""
"","ISI","","html-keyboard-response","272","312204","0.0-1.0-372.0","0","0","52875","","null","","","null","41","NaN","","","","","","","","","","","","","","",""
"","S2","","html-keyboard-response","273","312464","0.0-1.0-373.0","0","0","52875","","null","","","null","41","","NaN","","","","","","","","","","","","","",""
"","response","","html-keyboard-response","274","313247","0.0-1.0-374.0-0.0","0","0","52875","","779","","","75","41","","","1","41","training","adjacent","FE","6","5","M.jpg","O.jpg","1","0","0","",""
"","feedback","","html-keyboard-response","275","314258","0.0-1.0-375.0-0.0","0","0","52875","","null","","","null","41","","","","","","","","","","","","","","","",""
"","time_out","","html-keyboard-response","276","316268","0.0-1.0-377.0-0.0","0","0","52875","","null","","","null","41","","","","","","","","","","","","","","","",""
"","ITI","","html-keyboard-response","277","317278","0.0-1.0-378.0","0","0","52875","","null","","","null","41","","","","","","","","","","","","","","","NaN",""
"","S1","","html-keyboard-response","278","317537","0.0-1.0-380.0","0","0","52875","","null","","","null","42","","","","","","","","","","","","","","","",""
"","ISI","","html-keyboard-response","279","317693","0.0-1.0-381.0","0","0","52875","","null","","","null","42","NaN","","","","","","","","","","","","","","",""
"","S2","","html-keyboard-response","280","317953","0.0-1.0-382.0","0","0","52875","","null","","","null","42","","NaN","","","","","","","","","","","","","",""
"","response","","html-keyboard-response","281","318957","0.0-1.0-383.0-0.0","0","0","52875","","999","","","68","42","","","1","42","training","adjacent","BA","2","1","Q.jpg","L.jpg","0","0","1","",""
"","feedback","","html-keyboard-response","282","319967","0.0-1.0-384.0-0.0","0","0","52875","","null","","","null","42","","","","","","","","","","","","","","","",""
"","ITI","","html-keyboard-response","283","320978","0.0-1.0-387.0","0","0","52875","","null","","","null","42","","","","","","","","","","","","","","","NaN",""
"","S1","","html-keyboard-response","284","321239","0.0-1.0-389.0","0","0","52875","","null","","","null","43","","","","","","","","","","","","","","","",""
"","ISI","","html-keyboard-response","285","321398","0.0-1.0-390.0","0","0","52875","","null","","","null","43","NaN","","","","","","","","","","","","","","",""
"","S2","","html-keyboard-response","286","321658","0.0-1.0-391.0","0","0","52875","","null","","","null","43","","NaN","","","","","","","","","","","","","",""
"","response","","html-keyboard-response","287","322799","0.0-1.0-392.0-0.0","0","0","52875","","1136","","","68","43","","","1","43","training","adjacent","DC","4","3","N.jpg","P.jpg","0","0","1","",""
"","feedback","","html-keyboard-response","288","323808","0.0-1.0-393.0-0.0","0","0","52875","","null","","","null","43","","","","","","","","","","","","","","","",""
"","ITI","","html-keyboard-response","289","324819","0.0-1.0-396.0","0","0","52875","","null","","","null","43","","","","","","","","","","","","","","","NaN",""
"","S1","","html-keyboard-response","290","325079","0.0-1.0-398.0","0","0","52875","","null","","","null","44","","","","","","","","","","","","","","","",""
"","ISI","","html-keyboard-response","291","325240","0.0-1.0-399.0","0","0","52875","","null","","","null","44","NaN","","","","","","","","","","","","","","",""
"","S2","","html-keyboard-response","292","325497","0.0-1.0-400.0","0","0","52875","","null","","","null","44","","NaN","","","","","","","","","","","","","",""
"","response","","html-keyboard-response","293","326456","0.0-1.0-401.0-0.0","0","0","52875","","956","","","75","44","","","1","44","training","adjacent","FE","6","5","M.jpg","O.jpg","1","0","0","",""
"","feedback","","html-keyboard-response","294","327465","0.0-1.0-402.0-0.0","0","0","52875","","null","","","null","44","","","","","","","","","","","","","","","",""
"","time_out","","html-keyboard-response","295","329477","0.0-1.0-404.0-0.0","0","0","52875","","null","","","null","44","","","","","","","","","","","","","","","",""
"","ITI","","html-keyboard-response","296","330487","0.0-1.0-405.0","0","0","52875","","null","","","null","44","","","","","","","","","","","","","","","NaN",""
"","S1","","html-keyboard-response","297","330748","0.0-1.0-407.0","0","0","52875","","null","","","null","45","","","","","","","","","","","","","","","",""
"","ISI","","html-keyboard-response","298","330908","0.0-1.0-408.0","0","0","52875","","null","","","null","45","NaN","","","","","","","","","","","","","","",""
"","S2","","html-keyboard-response","299","331170","0.0-1.0-409.0","0","0","52875","","null","","","null","45","","NaN","","","","","","","","","","","","","",""
"","response","","html-keyboard-response","300","332341","0.0-1.0-410.0-0.0","0","0","52875","","1167","","","68","45","","","1","45","training","adjacent","EF","5","6","O.jpg","M.jpg","0","1","0","",""
"","feedback","","html-keyboard-response","301","333351","0.0-1.0-411.0-0.0","0","0","52875","","null","","","null","45","","","","","","","","","","","","","","","",""
"","time_out","","html-keyboard-response","302","335360","0.0-1.0-413.0-0.0","0","0","52875","","null","","","null","45","","","","","","","","","","","","","","","",""
"","ITI","","html-keyboard-response","303","336367","0.0-1.0-414.0","0","0","52875","","null","","","null","45","","","","","","","","","","","","","","","NaN",""
"","S1","","html-keyboard-response","304","336628","0.0-1.0-416.0","0","0","52875","","null","","","null","46","","","","","","","","","","","","","","","",""
"","ISI","","html-keyboard-response","305","336788","0.0-1.0-417.0","0","0","52875","","null","","","null","46","NaN","","","","","","","","","","","","","","",""
"","S2","","html-keyboard-response","306","337048","0.0-1.0-418.0","0","0","52875","","null","","","null","46","","NaN","","","","","","","","","","","","","",""
"","response","","html-keyboard-response","307","337578","0.0-1.0-419.0-0.0","0","0","52875","","525","","","75","46","","","1","46","training","adjacent","DE","4","5","N.jpg","O.jpg","1","1","1","",""
"","feedback","","html-keyboard-response","308","338589","0.0-1.0-420.0-0.0","0","0","52875","","null","","","null","46","","","","","","","","","","","","","","","",""
"","ITI","","html-keyboard-response","309","339600","0.0-1.0-423.0","0","0","52875","","null","","","null","46","","","","","","","","","","","","","","","NaN",""
"","S1","","html-keyboard-response","310","339860","0.0-1.0-425.0","0","0","52875","","null","","","null","47","","","","","","","","","","","","","","","",""
"","ISI","","html-keyboard-response","311","340021","0.0-1.0-426.0","0","0","52875","","null","","","null","47","NaN","","","","","","","","","","","","","","",""
"","S2","","html-keyboard-response","312","340280","0.0-1.0-427.0","0","0","52875","","null","","","null","47","","NaN","","","","","","","","","","","","","",""
"","response","","html-keyboard-response","313","340993","0.0-1.0-428.0-0.0","0","0","52875","","708","","","75","47","","","1","47","training","adjacent","ED","5","4","O.jpg","N.jpg","1","0","0","",""
"","feedback","","html-keyboard-response","314","342004","0.0-1.0-429.0-0.0","0","0","52875","","null","","","null","47","","","","","","","","","","","","","","","",""
"","time_out","","html-keyboard-response","315","344009","0.0-1.0-431.0-0.0","0","0","52875","","null","","","null","47","","","","","","","","","","","","","","","",""
"","ITI","","html-keyboard-response","316","345020","0.0-1.0-432.0","0","0","52875","","null","","","null","47","","","","","","","","","","","","","","","NaN",""
"","block_over","","html-keyboard-response","317","374582","0.0-1.0-433.0-0.0","0","0","52875","","29557","","","32","47","","","","","","","","","","","","","","","",""
"","S1","","html-keyboard-response","318","374841","0.0-1.0-434.0","0","0","52875","","null","","","null","48","","","","","","","","","","","","","","","",""
"","ISI","","html-keyboard-response","319","375000","0.0-1.0-435.0","0","0","52875","","null","","","null","48","NaN","","","","","","","","","","","","","","",""
"","S2","","html-keyboard-response","320","375258","0.0-1.0-436.0","0","0","52875","","null","","","null","48","","NaN","","","","","","","","","","","","","",""
"","response","","html-keyboard-response","321","376673","0.0-1.0-437.0-0.0","0","0","52875","","1412","","","68","48","","","2","48","training","adjacent","DC","4","3","N.jpg","P.jpg","0","0","1","",""
"","feedback","","html-keyboard-response","322","377681","0.0-1.0-438.0-0.0","0","0","52875","","null","","","null","48","","","","","","","","","","","","","","","",""
"","ITI","","html-keyboard-response","323","378689","0.0-1.0-441.0","0","0","52875","","null","","","null","48","","","","","","","","","","","","","","","NaN",""
"","S1","","html-keyboard-response","324","378947","0.0-1.0-443.0","0","0","52875","","null","","","null","49","","","","","","","","","","","","","","","",""
"","ISI","","html-keyboard-response","325","379103","0.0-1.0-444.0","0","0","52875","","null","","","null","49","NaN","","","","","","","","","","","","","","",""
"","S2","","html-keyboard-response","326","379363","0.0-1.0-445.0","0","0","52875","","null","","","null","49","","NaN","","","","","","","","","","","","","",""
"","response","","html-keyboard-response","327","380218","0.0-1.0-446.0-0.0","0","0","52875","","853","","","75","49","","","2","49","training","adjacent","FG","6","7","M.jpg","R.jpg","1","1","1","",""
"","feedback","","html-keyboard-response","328","381224","0.0-1.0-447.0-0.0","0","0","52875","","null","","","null","49","","","","","","","","","","","","","","","",""
"","ITI","","html-keyboard-response","329","382234","0.0-1.0-450.0","0","0","52875","","null","","","null","49","","","","","","","","","","","","","","","NaN",""
"","S1","","html-keyboard-response","330","382490","0.0-1.0-452.0","0","0","52875","","null","","","null","50","","","","","","","","","","","","","","","",""
"","ISI","","html-keyboard-response","331","382649","0.0-1.0-453.0","0","0","52875","","null","","","null","50","NaN","","","","","","","","","","","","","","",""
"","S2","","html-keyboard-response","332","382907","0.0-1.0-454.0","0","0","52875","","null","","","null","50","","NaN","","","","","","","","","","","","","",""
"","response","","html-keyboard-response","333","383952","0.0-1.0-455.0-0.0","0","0","52875","","1041","","","68","50","","","2","50","training","adjacent","GF","7","6","R.jpg","M.jpg","0","0","1","",""
"","feedback","","html-keyboard-response","334","384962","0.0-1.0-456.0-0.0","0","0","52875","","null","","","null","50","","","","","","","","","","","","","","","",""
"","ITI","","html-keyboard-response","335","385969","0.0-1.0-459.0","0","0","52875","","null","","","null","50","","","","","","","","","","","","","","","NaN",""
"","S1","","html-keyboard-response","336","386229","0.0-1.0-461.0","0","0","52875","","null","","","null","51","","","","","","","","","","","","","","","",""
"","ISI","","html-keyboard-response","337","386388","0.0-1.0-462.0","0","0","52875","","null","","","null","51","NaN","","","","","","","","","","","","","","",""
"","S2","","html-keyboard-response","338","386648","0.0-1.0-463.0","0","0","52875","","null","","","null","51","","NaN","","","","","","","","","","","","","",""
"","response","","html-keyboard-response","339","387450","0.0-1.0-464.0-0.0","0","0","52875","","798","","","75","51","","","2","51","training","adjacent","CD","3","4","P.jpg","N.jpg","1","1","1","",""
"","feedback","","html-keyboard-response","340","388461","0.0-1.0-465.0-0.0","0","0","52875","","null","","","null","51","","","","","","","","","","","","","","","",""
"","ITI","","html-keyboard-response","341","389472","0.0-1.0-468.0","0","0","52875","","null","","","null","51","","","","","","","","","","","","","","","NaN",""
"","S1","","html-keyboard-response","342","389733","0.0-1.0-470.0","0","0","52875","","null","","","null","52","","","","","","","","","","","","","","","",""
"","ISI","","html-keyboard-response","343","389894","0.0-1.0-471.0","0","0","52875","","null","","","null","52","NaN","","","","","","","","","","","","","","",""
"","S2","","html-keyboard-response","344","390155","0.0-1.0-472.0","0","0","52875","","null","","","null","52","","NaN","","","","","","","","","","","","","",""
"","response","","html-keyboard-response","345","390794","0.0-1.0-473.0-0.0","0","0","52875","","635","","","75","52","","","2","52","training","adjacent","FG","6","7","M.jpg","R.jpg","1","1","1","",""
"","feedback","","html-keyboard-response","346","391806","0.0-1.0-474.0-0.0","0","0","52875","","null","","","null","52","","","","","","","","","","","","","","","",""
"","ITI","","html-keyboard-response","347","392812","0.0-1.0-477.0","0","0","52875","","null","","","null","52","","","","","","","","","","","","","","","NaN",""
"","S1","","html-keyboard-response","348","393073","0.0-1.0-479.0","0","0","52875","","null","","","null","53","","","","","","","","","","","","","","","",""
"","ISI","","html-keyboard-response","349","393234","0.0-1.0-480.0","0","0","52875","","null","","","null","53","NaN","","","","","","","","","","","","","","",""
"","S2","","html-keyboard-response","350","393493","0.0-1.0-481.0","0","0","52875","","null","","","null","53","","NaN","","","","","","","","","","","","","",""
"","response","","html-keyboard-response","351","394277","0.0-1.0-482.0-0.0","0","0","52875","","779","","","68","53","","","2","53","training","adjacent","ED","5","4","O.jpg","N.jpg","0","0","1","",""
"","feedback","","html-keyboard-response","352","395286","0.0-1.0-483.0-0.0","0","0","52875","","null","","","null","53","","","","","","","","","","","","","","","",""
"","ITI","","html-keyboard-response","353","396296","0.0-1.0-486.0","0","0","52875","","null","","","null","53","","","","","","","","","","","","","","","NaN",""
"","S1","","html-keyboard-response","354","396555","0.0-1.0-488.0","0","0","52875","","null","","","null","54","","","","","","","","","","","","","","","",""
"","ISI","","html-keyboard-response","355","396714","0.0-1.0-489.0","0","0","52875","","null","","","null","54","NaN","","","","","","","","","","","","","","",""
"","S2","","html-keyboard-response","356","396972","0.0-1.0-490.0","0","0","52875","","null","","","null","54","","NaN","","","","","","","","","","","","","",""
"","response","","html-keyboard-response","357","398048","0.0-1.0-491.0-0.0","0","0","52875","","1071","","","68","54","","","2","54","training","adjacent","DC","4","3","N.jpg","P.jpg","0","0","1","",""
"","feedback","","html-keyboard-response","358","399058","0.0-1.0-492.0-0.0","0","0","52875","","null","","","null","54","","","","","","","","","","","","","","","",""
"","ITI","","html-keyboard-response","359","400067","0.0-1.0-495.0","0","0","52875","","null","","","null","54","","","","","","","","","","","","","","","NaN",""
"","S1","","html-keyboard-response","360","400323","0.0-1.0-497.0","0","0","52875","","null","","","null","55","","","","","","","","","","","","","","","",""
"","ISI","","html-keyboard-response","361","400483","0.0-1.0-498.0","0","0","52875","","null","","","null","55","NaN","","","","","","","","","","","","","","",""
"","S2","","html-keyboard-response","362","400743","0.0-1.0-499.0","0","0","52875","","null","","","null","55","","NaN","","","","","","","","","","","","","",""
"","response","","html-keyboard-response","363","401943","0.0-1.0-500.0-0.0","0","0","52875","","1194","","","68","55","","","2","55","training","adjacent","BC","2","3","Q.jpg","P.jpg","0","1","0","",""
"","feedback","","html-keyboard-response","364","402949","0.0-1.0-501.0-0.0","0","0","52875","","null","","","null","55","","","","","","","","","","","","","","","",""
"","time_out","","html-keyboard-response","365","404960","0.0-1.0-503.0-0.0","0","0","52875","","null","","","null","55","","","","","","","","","","","","","","","",""
"","ITI","","html-keyboard-response","366","405971","0.0-1.0-504.0","0","0","52875","","null","","","null","55","","","","","","","","","","","","","","","NaN",""
"","S1","","html-keyboard-response","367","406232","0.0-1.0-506.0","0","0","52875","","null","","","null","56","","","","","","","","","","","","","","","",""
"","ISI","","html-keyboard-response","368","406391","0.0-1.0-507.0","0","0","52875","","null","","","null","56","NaN","","","","","","","","","","","","","","",""
"","S2","","html-keyboard-response","369","406652","0.0-1.0-508.0","0","0","52875","","null","","","null","56","","NaN","","","","","","","","","","","","","",""
"","response","","html-keyboard-response","370","407864","0.0-1.0-509.0-0.0","0","0","52875","","1207","","","68","56","","","2","56","training","adjacent","BA","2","1","Q.jpg","L.jpg","0","0","1","",""
"","feedback","","html-keyboard-response","371","408873","0.0-1.0-510.0-0.0","0","0","52875","","null","","","null","56","","","","","","","","","","","","","","","",""
"","ITI","","html-keyboard-response","372","409882","0.0-1.0-513.0","0","0","52875","","null","","","null","56","","","","","","","","","","","","","","","NaN",""
"","S1","","html-keyboard-response","373","410143","0.0-1.0-515.0","0","0","52875","","null","","","null","57","","","","","","","","","","","","","","","",""
"","ISI","","html-keyboard-response","374","410303","0.0-1.0-516.0","0","0","52875","","null","","","null","57","NaN","","","","","","","","","","","","","","",""
"","S2","","html-keyboard-response","375","410562","0.0-1.0-517.0","0","0","52875","","null","","","null","57","","NaN","","","","","","","","","","","","","",""
"","response","","html-keyboard-response","376","411347","0.0-1.0-518.0-0.0","0","0","52875","","780","","","75","57","","","2","57","training","adjacent","CB","3","2","P.jpg","Q.jpg","1","0","0","",""
"","feedback","","html-keyboard-response","377","412357","0.0-1.0-519.0-0.0","0","0","52875","","null","","","null","57","","","","","","","","","","","","","","","",""
"","time_out","","html-keyboard-response","378","414368","0.0-1.0-521.0-0.0","0","0","52875","","null","","","null","57","","","","","","","","","","","","","","","",""
"","ITI","","html-keyboard-response","379","415379","0.0-1.0-522.0","0","0","52875","","null","","","null","57","","","","","","","","","","","","","","","NaN",""
"","S1","","html-keyboard-response","380","415633","0.0-1.0-524.0","0","0","52875","","null","","","null","58","","","","","","","","","","","","","","","",""
"","ISI","","html-keyboard-response","381","415789","0.0-1.0-525.0","0","0","52875","","null","","","null","58","NaN","","","","","","","","","","","","","","",""
"","S2","","html-keyboard-response","382","416051","0.0-1.0-526.0","0","0","52875","","null","","","null","58","","NaN","","","","","","","","","","","","","",""
"","response","","html-keyboard-response","383","417234","0.0-1.0-527.0-0.0","0","0","52875","","1178","","","68","58","","","2","58","training","adjacent","GF","7","6","R.jpg","M.jpg","0","0","1","",""
"","feedback","","html-keyboard-response","384","418245","0.0-1.0-528.0-0.0","0","0","52875","","null","","","null","58","","","","","","","","","","","","","","","",""
"","ITI","","html-keyboard-response","385","419256","0.0-1.0-531.0","0","0","52875","","null","","","null","58","","","","","","","","","","","","","","","NaN",""
"","S1","","html-keyboard-response","386","419513","0.0-1.0-533.0","0","0","52875","","null","","","null","59","","","","","","","","","","","","","","","",""
"","ISI","","html-keyboard-response","387","419672","0.0-1.0-534.0","0","0","52875","","null","","","null","59","NaN","","","","","","","","","","","","","","",""
"","S2","","html-keyboard-response","388","419932","0.0-1.0-535.0","0","0","52875","","null","","","null","59","","NaN","","","","","","","","","","","","","",""
"","response","","html-keyboard-response","389","421466","0.0-1.0-536.0-0.0","0","0","52875","","1531","","","75","59","","","2","59","training","adjacent","FE","6","5","M.jpg","O.jpg","1","0","0","",""
"","feedback","","html-keyboard-response","390","422471","0.0-1.0-537.0-0.0","0","0","52875","","null","","","null","59","","","","","","","","","","","","","","","",""
"","time_out","","html-keyboard-response","391","424481","0.0-1.0-539.0-0.0","0","0","52875","","null","","","null","59","","","","","","","","","","","","","","","",""
"","ITI","","html-keyboard-response","392","425493","0.0-1.0-540.0","0","0","52875","","null","","","null","59","","","","","","","","","","","","","","","NaN",""
"","S1","","html-keyboard-response","393","425752","0.0-1.0-542.0","0","0","52875","","null","","","null","60","","","","","","","","","","","","","","","",""
"","ISI","","html-keyboard-response","394","425914","0.0-1.0-543.0","0","0","52875","","null","","","null","60","NaN","","","","","","","","","","","","","","",""
"","S2","","html-keyboard-response","395","426172","0.0-1.0-544.0","0","0","52875","","null","","","null","60","","NaN","","","","","","","","","","","","","",""
"","response","","html-keyboard-response","396","427752","0.0-1.0-545.0-0.0","0","0","52875","","1575","","","75","60","","","2","60","training","adjacent","DE","4","5","N.jpg","O.jpg","1","1","1","",""
"","feedback","","html-keyboard-response","397","428761","0.0-1.0-546.0-0.0","0","0","52875","","null","","","null","60","","","","","","","","","","","","","","","",""
"","ITI","","html-keyboard-response","398","429770","0.0-1.0-549.0","0","0","52875","","null","","","null","60","","","","","","","","","","","","","","","NaN",""
"","S1","","html-keyboard-response","399","430028","0.0-1.0-551.0","0","0","52875","","null","","","null","61","","","","","","","","","","","","","","","",""
"","ISI","","html-keyboard-response","400","430186","0.0-1.0-552.0","0","0","52875","","null","","","null","61","NaN","","","","","","","","","","","","","","",""
"","S2","","html-keyboard-response","401","430445","0.0-1.0-553.0","0","0","52875","","null","","","null","61","","NaN","","","","","","","","","","","","","",""
"","response","","html-keyboard-response","402","431654","0.0-1.0-554.0-0.0","0","0","52875","","1204","","","68","61","","","2","61","training","adjacent","GF","7","6","R.jpg","M.jpg","0","0","1","",""
"","feedback","","html-keyboard-response","403","432664","0.0-1.0-555.0-0.0","0","0","52875","","null","","","null","61","","","","","","","","","","","","","","","",""
"","ITI","","html-keyboard-response","404","433672","0.0-1.0-558.0","0","0","52875","","null","","","null","61","","","","","","","","","","","","","","","NaN",""
"","S1","","html-keyboard-response","405","433932","0.0-1.0-560.0","0","0","52875","","null","","","null","62","","","","","","","","","","","","","","","",""
"","ISI","","html-keyboard-response","406","434091","0.0-1.0-561.0","0","0","52875","","null","","","null","62","NaN","","","","","","","","","","","","","","",""
"","S2","","html-keyboard-response","407","434350","0.0-1.0-562.0","0","0","52875","","null","","","null","62","","NaN","","","","","","","","","","","","","",""
"","response","","html-keyboard-response","408","435113","0.0-1.0-563.0-0.0","0","0","52875","","760","","","75","62","","","2","62","training","adjacent","CD","3","4","P.jpg","N.jpg","1","1","1","",""
"","feedback","","html-keyboard-response","409","436123","0.0-1.0-564.0-0.0","0","0","52875","","null","","","null","62","","","","","","","","","","","","","","","",""
"","ITI","","html-keyboard-response","410","437132","0.0-1.0-567.0","0","0","52875","","null","","","null","62","","","","","","","","","","","","","","","NaN",""
"","S1","","html-keyboard-response","411","437389","0.0-1.0-569.0","0","0","52875","","null","","","null","63","","","","","","","","","","","","","","","",""
"","ISI","","html-keyboard-response","412","437547","0.0-1.0-570.0","0","0","52875","","null","","","null","63","NaN","","","","","","","","","","","","","","",""
"","S2","","html-keyboard-response","413","437807","0.0-1.0-571.0","0","0","52875","","null","","","null","63","","NaN","","","","","","","","","","","","","",""
"","response","","html-keyboard-response","414","438463","0.0-1.0-572.0-0.0","0","0","52875","","651","","","75","63","","","2","63","training","adjacent","AB","1","2","L.jpg","Q.jpg","1","1","1","",""
"","feedback","","html-keyboard-response","415","439473","0.0-1.0-573.0-0.0","0","0","52875","","null","","","null","63","","","","","","","","","","","","","","","",""
"","ITI","","html-keyboard-response","416","440483","0.0-1.0-576.0","0","0","52875","","null","","","null","63","","","","","","","","","","","","","","","NaN",""
"","S1","","html-keyboard-response","417","440743","0.0-1.0-578.0","0","0","52875","","null","","","null","64","","","","","","","","","","","","","","","",""
"","ISI","","html-keyboard-response","418","440897","0.0-1.0-579.0","0","0","52875","","null","","","null","64","NaN","","","","","","","","","","","","","","",""
"","S2","","html-keyboard-response","419","441153","0.0-1.0-580.0","0","0","52875","","null","","","null","64","","NaN","","","","","","","","","","","","","",""
"","response","","html-keyboard-response","420","442208","0.0-1.0-581.0-0.0","0","0","52875","","1051","","","68","64","","","2","64","training","adjacent","BC","2","3","Q.jpg","P.jpg","0","1","0","",""
"","feedback","","html-keyboard-response","421","443217","0.0-1.0-582.0-0.0","0","0","52875","","null","","","null","64","","","","","","","","","","","","","","","",""
"","time_out","","html-keyboard-response","422","445222","0.0-1.0-584.0-0.0","0","0","52875","","null","","","null","64","","","","","","","","","","","","","","","",""
"","ITI","","html-keyboard-response","423","446233","0.0-1.0-585.0","0","0","52875","","null","","","null","64","","","","","","","","","","","","","","","NaN",""
"","S1","","html-keyboard-response","424","446494","0.0-1.0-587.0","0","0","52875","","null","","","null","65","","","","","","","","","","","","","","","",""
"","ISI","","html-keyboard-response","425","446651","0.0-1.0-588.0","0","0","52875","","null","","","null","65","NaN","","","","","","","","","","","","","","",""
"","S2","","html-keyboard-response","426","446913","0.0-1.0-589.0","0","0","52875","","null","","","null","65","","NaN","","","","","","","","","","","","","",""
"","response","","html-keyboard-response","427","448363","0.0-1.0-590.0-0.0","0","0","52875","","1445","","","75","65","","","2","65","training","adjacent","AB","1","2","L.jpg","Q.jpg","1","1","1","",""
"","feedback","","html-keyboard-response","428","449371","0.0-1.0-591.0-0.0","0","0","52875","","null","","","null","65","","","","","","","","","","","","","","","",""
"","ITI","","html-keyboard-response","429","450376","0.0-1.0-594.0","0","0","52875","","null","","","null","65","","","","","","","","","","","","","","","NaN",""
"","S1","","html-keyboard-response","430","450635","0.0-1.0-596.0","0","0","52875","","null","","","null","66","","","","","","","","","","","","","","","",""
"","ISI","","html-keyboard-response","431","450794","0.0-1.0-597.0","0","0","52875","","null","","","null","66","NaN","","","","","","","","","","","","","","",""
"","S2","","html-keyboard-response","432","451054","0.0-1.0-598.0","0","0","52875","","null","","","null","66","","NaN","","","","","","","","","","","","","",""
"","response","","html-keyboard-response","433","451988","0.0-1.0-599.0-0.0","0","0","52875","","931","","","68","66","","","2","66","training","adjacent","DC","4","3","N.jpg","P.jpg","0","0","1","",""
"","feedback","","html-keyboard-response","434","452993","0.0-1.0-600.0-0.0","0","0","52875","","null","","","null","66","","","","","","","","","","","","","","","",""
"","ITI","","html-keyboard-response","435","454003","0.0-1.0-603.0","0","0","52875","","null","","","null","66","","","","","","","","","","","","","","","NaN",""
"","S1","","html-keyboard-response","436","454264","0.0-1.0-605.0","0","0","52875","","null","","","null","67","","","","","","","","","","","","","","","",""
"","ISI","","html-keyboard-response","437","454420","0.0-1.0-606.0","0","0","52875","","null","","","null","67","NaN","","","","","","","","","","","","","","",""
"","S2","","html-keyboard-response","438","454681","0.0-1.0-607.0","0","0","52875","","null","","","null","67","","NaN","","","","","","","","","","","","","",""
"","response","","html-keyboard-response","439","455874","0.0-1.0-608.0-0.0","0","0","52875","","1188","","","75","67","","","2","67","training","adjacent","FG","6","7","M.jpg","R.jpg","1","1","1","",""
"","feedback","","html-keyboard-response","440","456886","0.0-1.0-609.0-0.0","0","0","52875","","null","","","null","67","","","","","","","","","","","","","","","",""
"","ITI","","html-keyboard-response","441","457895","0.0-1.0-612.0","0","0","52875","","null","","","null","67","","","","","","","","","","","","","","","NaN",""
"","S1","","html-keyboard-response","442","458151","0.0-1.0-614.0","0","0","52875","","null","","","null","68","","","","","","","","","","","","","","","",""
"","ISI","","html-keyboard-response","443","458310","0.0-1.0-615.0","0","0","52875","","null","","","null","68","NaN","","","","","","","","","","","","","","",""
"","S2","","html-keyboard-response","444","458568","0.0-1.0-616.0","0","0","52875","","null","","","null","68","","NaN","","","","","","","","","","","","","",""
"","response","","html-keyboard-response","445","459495","0.0-1.0-617.0-0.0","0","0","52875","","923","","","68","68","","","2","68","training","adjacent","DC","4","3","N.jpg","P.jpg","0","0","1","",""
"","feedback","","html-keyboard-response","446","460502","0.0-1.0-618.0-0.0","0","0","52875","","null","","","null","68","","","","","","","","","","","","","","","",""
"","ITI","","html-keyboard-response","447","461509","0.0-1.0-621.0","0","0","52875","","null","","","null","68","","","","","","","","","","","","","","","NaN",""
"","S1","","html-keyboard-response","448","461768","0.0-1.0-623.0","0","0","52875","","null","","","null","69","","","","","","","","","","","","","","","",""
"","ISI","","html-keyboard-response","449","461925","0.0-1.0-624.0","0","0","52875","","null","","","null","69","NaN","","","","","","","","","","","","","","",""
"","S2","","html-keyboard-response","450","462180","0.0-1.0-625.0","0","0","52875","","null","","","null","69","","NaN","","","","","","","","","","","","","",""
"","response","","html-keyboard-response","451","462779","0.0-1.0-626.0-0.0","0","0","52875","","594","","","75","69","","","2","69","training","adjacent","CD","3","4","P.jpg","N.jpg","1","1","1","",""
"","feedback","","html-keyboard-response","452","463788","0.0-1.0-627.0-0.0","0","0","52875","","null","","","null","69","","","","","","","","","","","","","","","",""
"","ITI","","html-keyboard-response","453","464796","0.0-1.0-630.0","0","0","52875","","null","","","null","69","","","","","","","","","","","","","","","NaN",""
"","S1","","html-keyboard-response","454","465056","0.0-1.0-632.0","0","0","52875","","null","","","null","70","","","","","","","","","","","","","","","",""
"","ISI","","html-keyboard-response","455","465214","0.0-1.0-633.0","0","0","52875","","null","","","null","70","NaN","","","","","","","","","","","","","","",""
"","S2","","html-keyboard-response","456","465469","0.0-1.0-634.0","0","0","52875","","null","","","null","70","","NaN","","","","","","","","","","","","","",""
"","response","","html-keyboard-response","457","466406","0.0-1.0-635.0-0.0","0","0","52875","","932","","","75","70","","","2","70","training","adjacent","FE","6","5","M.jpg","O.jpg","1","0","0","",""
"","feedback","","html-keyboard-response","458","467416","0.0-1.0-636.0-0.0","0","0","52875","","null","","","null","70","","","","","","","","","","","","","","","",""
"","time_out","","html-keyboard-response","459","469425","0.0-1.0-638.0-0.0","0","0","52875","","null","","","null","70","","","","","","","","","","","","","","","",""
"","ITI","","html-keyboard-response","460","470435","0.0-1.0-639.0","0","0","52875","","null","","","null","70","","","","","","","","","","","","","","","NaN",""
"","S1","","html-keyboard-response","461","470695","0.0-1.0-641.0","0","0","52875","","null","","","null","71","","","","","","","","","","","","","","","",""
"","ISI","","html-keyboard-response","462","470855","0.0-1.0-642.0","0","0","52875","","null","","","null","71","NaN","","","","","","","","","","","","","","",""
"","S2","","html-keyboard-response","463","471116","0.0-1.0-643.0","0","0","52875","","null","","","null","71","","NaN","","","","","","","","","","","","","",""
"","response","","html-keyboard-response","464","472351","0.0-1.0-644.0-0.0","0","0","52875","","1232","","","68","71","","","2","71","training","adjacent","BC","2","3","Q.jpg","P.jpg","0","1","0","",""
"","feedback","","html-keyboard-response","465","473360","0.0-1.0-645.0-0.0","0","0","52875","","null","","","null","71","","","","","","","","","","","","","","","",""
"","time_out","","html-keyboard-response","466","475366","0.0-1.0-647.0-0.0","0","0","52875","","null","","","null","71","","","","","","","","","","","","","","","",""
"","ITI","","html-keyboard-response","467","476376","0.0-1.0-648.0","0","0","52875","","null","","","null","71","","","","","","","","","","","","","","","NaN",""
"","S1","","html-keyboard-response","468","476638","0.0-1.0-650.0","0","0","52875","","null","","","null","72","","","","","","","","","","","","","","","",""
"","ISI","","html-keyboard-response","469","476797","0.0-1.0-651.0","0","0","52875","","null","","","null","72","NaN","","","","","","","","","","","","","","",""
"","S2","","html-keyboard-response","470","477058","0.0-1.0-652.0","0","0","52875","","null","","","null","72","","NaN","","","","","","","","","","","","","",""
"","response","","html-keyboard-response","471","478340","0.0-1.0-653.0-0.0","0","0","52875","","1277","","","75","72","","","2","72","training","adjacent","DE","4","5","N.jpg","O.jpg","1","1","1","",""
"","feedback","","html-keyboard-response","472","479352","0.0-1.0-654.0-0.0","0","0","52875","","null","","","null","72","","","","","","","","","","","","","","","",""
"","ITI","","html-keyboard-response","473","480358","0.0-1.0-657.0","0","0","52875","","null","","","null","72","","","","","","","","","","","","","","","NaN",""
"","S1","","html-keyboard-response","474","480617","0.0-1.0-659.0","0","0","52875","","null","","","null","73","","","","","","","","","","","","","","","",""
"","ISI","","html-keyboard-response","475","480776","0.0-1.0-660.0","0","0","52875","","null","","","null","73","NaN","","","","","","","","","","","","","","",""
"","S2","","html-keyboard-response","476","481035","0.0-1.0-661.0","0","0","52875","","null","","","null","73","","NaN","","","","","","","","","","","","","",""
"","response","","html-keyboard-response","477","482121","0.0-1.0-662.0-0.0","0","0","52875","","1081","","","68","73","","","2","73","training","adjacent","BA","2","1","Q.jpg","L.jpg","0","0","1","",""
"","feedback","","html-keyboard-response","478","483132","0.0-1.0-663.0-0.0","0","0","52875","","null","","","null","73","","","","","","","","","","","","","","","",""
"","ITI","","html-keyboard-response","479","484144","0.0-1.0-666.0","0","0","52875","","null","","","null","73","","","","","","","","","","","","","","","NaN",""
"","S1","","html-keyboard-response","480","484404","0.0-1.0-668.0","0","0","52875","","null","","","null","74","","","","","","","","","","","","","","","",""
"","ISI","","html-keyboard-response","481","484562","0.0-1.0-669.0","0","0","52875","","null","","","null","74","NaN","","","","","","","","","","","","","","",""
"","S2","","html-keyboard-response","482","484820","0.0-1.0-670.0","0","0","52875","","null","","","null","74","","NaN","","","","","","","","","","","","","",""
"","response","","html-keyboard-response","483","485397","0.0-1.0-671.0-0.0","0","0","52875","","573","","","75","74","","","2","74","training","adjacent","CD","3","4","P.jpg","N.jpg","1","1","1","",""
"","feedback","","html-keyboard-response","484","486409","0.0-1.0-672.0-0.0","0","0","52875","","null","","","null","74","","","","","","","","","","","","","","","",""
"","ITI","","html-keyboard-response","485","487417","0.0-1.0-675.0","0","0","52875","","null","","","null","74","","","","","","","","","","","","","","","NaN",""
"","S1","","html-keyboard-response","486","487679","0.0-1.0-677.0","0","0","52875","","null","","","null","75","","","","","","","","","","","","","","","",""
"","ISI","","html-keyboard-response","487","487839","0.0-1.0-678.0","0","0","52875","","null","","","null","75","NaN","","","","","","","","","","","","","","",""
"","S2","","html-keyboard-response","488","488099","0.0-1.0-679.0","0","0","52875","","null","","","null","75","","NaN","","","","","","","","","","","","","",""
"","response","","html-keyboard-response","489","489604","0.0-1.0-680.0-0.0","0","0","52875","","1501","","","68","75","","","2","75","training","adjacent","EF","5","6","O.jpg","M.jpg","0","1","0","",""
"","feedback","","html-keyboard-response","490","490615","0.0-1.0-681.0-0.0","0","0","52875","","null","","","null","75","","","","","","","","","","","","","","","",""
"","time_out","","html-keyboard-response","491","492625","0.0-1.0-683.0-0.0","0","0","52875","","null","","","null","75","","","","","","","","","","","","","","","",""
"","ITI","","html-keyboard-response","492","493637","0.0-1.0-684.0","0","0","52875","","null","","","null","75","","","","","","","","","","","","","","","NaN",""
"","S1","","html-keyboard-response","493","493897","0.0-1.0-686.0","0","0","52875","","null","","","null","76","","","","","","","","","","","","","","","",""
"","ISI","","html-keyboard-response","494","494059","0.0-1.0-687.0","0","0","52875","","null","","","null","76","NaN","","","","","","","","","","","","","","",""
"","S2","","html-keyboard-response","495","494319","0.0-1.0-688.0","0","0","52875","","null","","","null","76","","NaN","","","","","","","","","","","","","",""
"","response","","html-keyboard-response","496","495408","0.0-1.0-689.0-0.0","0","0","52875","","1086","","","68","76","","","2","76","training","adjacent","BA","2","1","Q.jpg","L.jpg","0","0","1","",""
"","feedback","","html-keyboard-response","497","496418","0.0-1.0-690.0-0.0","0","0","52875","","null","","","null","76","","","","","","","","","","","","","","","",""
"","ITI","","html-keyboard-response","498","497425","0.0-1.0-693.0","0","0","52875","","null","","","null","76","","","","","","","","","","","","","","","NaN",""
"","S1","","html-keyboard-response","499","497684","0.0-1.0-695.0","0","0","52875","","null","","","null","77","","","","","","","","","","","","","","","",""
"","ISI","","html-keyboard-response","500","497845","0.0-1.0-696.0","0","0","52875","","null","","","null","77","NaN","","","","","","","","","","","","","","",""
"","S2","","html-keyboard-response","501","498105","0.0-1.0-697.0","0","0","52875","","null","","","null","77","","NaN","","","","","","","","","","","","","",""
"","response","","html-keyboard-response","502","498669","0.0-1.0-698.0-0.0","0","0","52875","","559","","","75","77","","","2","77","training","adjacent","CB","3","2","P.jpg","Q.jpg","1","0","0","",""
"","feedback","","html-keyboard-response","503","499679","0.0-1.0-699.0-0.0","0","0","52875","","null","","","null","77","","","","","","","","","","","","","","","",""
"","time_out","","html-keyboard-response","504","501688","0.0-1.0-701.0-0.0","0","0","52875","","null","","","null","77","","","","","","","","","","","","","","","",""
"","ITI","","html-keyboard-response","505","502698","0.0-1.0-702.0","0","0","52875","","null","","","null","77","","","","","","","","","","","","","","","NaN",""
"","S1","","html-keyboard-response","506","502957","0.0-1.0-704.0","0","0","52875","","null","","","null","78","","","","","","","","","","","","","","","",""
"","ISI","","html-keyboard-response","507","503118","0.0-1.0-705.0","0","0","52875","","null","","","null","78","NaN","","","","","","","","","","","","","","",""
"","S2","","html-keyboard-response","508","503375","0.0-1.0-706.0","0","0","52875","","null","","","null","78","","NaN","","","","","","","","","","","","","",""
"","response","","html-keyboard-response","509","504335","0.0-1.0-707.0-0.0","0","0","52875","","957","","","75","78","","","2","78","training","adjacent","FE","6","5","M.jpg","O.jpg","1","0","0","",""
"","feedback","","html-keyboard-response","510","505343","0.0-1.0-708.0-0.0","0","0","52875","","null","","","null","78","","","","","","","","","","","","","","","",""
"","time_out","","html-keyboard-response","511","507354","0.0-1.0-710.0-0.0","0","0","52875","","null","","","null","78","","","","","","","","","","","","","","","",""
"","ITI","","html-keyboard-response","512","508365","0.0-1.0-711.0","0","0","52875","","null","","","null","78","","","","","","","","","","","","","","","NaN",""
"","S1","","html-keyboard-response","513","508625","0.0-1.0-713.0","0","0","52875","","null","","","null","79","","","","","","","","","","","","","","","",""
"","ISI","","html-keyboard-response","514","508786","0.0-1.0-714.0","0","0","52875","","null","","","null","79","NaN","","","","","","","","","","","","","","",""
"","S2","","html-keyboard-response","515","509047","0.0-1.0-715.0","0","0","52875","","null","","","null","79","","NaN","","","","","","","","","","","","","",""
"","response","","html-keyboard-response","516","509866","0.0-1.0-716.0-0.0","0","0","52875","","816","","","68","79","","","2","79","training","adjacent","BA","2","1","Q.jpg","L.jpg","0","0","1","",""
"","feedback","","html-keyboard-response","517","510876","0.0-1.0-717.0-0.0","0","0","52875","","null","","","null","79","","","","","","","","","","","","","","","",""
"","ITI","","html-keyboard-response","518","511886","0.0-1.0-720.0","0","0","52875","","null","","","null","79","","","","","","","","","","","","","","","NaN",""
"","S1","","html-keyboard-response","519","512147","0.0-1.0-722.0","0","0","52875","","null","","","null","80","","","","","","","","","","","","","","","",""
"","ISI","","html-keyboard-response","520","512302","0.0-1.0-723.0","0","0","52875","","null","","","null","80","NaN","","","","","","","","","","","","","","",""
"","S2","","html-keyboard-response","521","512563","0.0-1.0-724.0","0","0","52875","","null","","","null","80","","NaN","","","","","","","","","","","","","",""
"","response","","html-keyboard-response","522","514238","0.0-1.0-725.0-0.0","0","0","52875","","1670","","","68","80","","","2","80","training","adjacent","CB","3","2","P.jpg","Q.jpg","0","0","1","",""
"","feedback","","html-keyboard-response","523","515248","0.0-1.0-726.0-0.0","0","0","52875","","null","","","null","80","","","","","","","","","","","","","","","",""
"","ITI","","html-keyboard-response","524","516257","0.0-1.0-729.0","0","0","52875","","null","","","null","80","","","","","","","","","","","","","","","NaN",""
"","S1","","html-keyboard-response","525","516517","0.0-1.0-731.0","0","0","52875","","null","","","null","81","","","","","","","","","","","","","","","",""
"","ISI","","html-keyboard-response","526","516678","0.0-1.0-732.0","0","0","52875","","null","","","null","81","NaN","","","","","","","","","","","","","","",""
"","S2","","html-keyboard-response","527","516938","0.0-1.0-733.0","0","0","52875","","null","","","null","81","","NaN","","","","","","","","","","","","","",""
"","response","","html-keyboard-response","528","518474","0.0-1.0-734.0-0.0","0","0","52875","","1531","","","75","81","","","2","81","training","adjacent","AB","1","2","L.jpg","Q.jpg","1","1","1","",""
"","feedback","","html-keyboard-response","529","519485","0.0-1.0-735.0-0.0","0","0","52875","","null","","","null","81","","","","","","","","","","","","","","","",""
"","ITI","","html-keyboard-response","530","520493","0.0-1.0-738.0","0","0","52875","","null","","","null","81","","","","","","","","","","","","","","","NaN",""
"","S1","","html-keyboard-response","531","520754","0.0-1.0-740.0","0","0","52875","","null","","","null","82","","","","","","","","","","","","","","","",""
"","ISI","","html-keyboard-response","532","520914","0.0-1.0-741.0","0","0","52875","","null","","","null","82","NaN","","","","","","","","","","","","","","",""
"","S2","","html-keyboard-response","533","521174","0.0-1.0-742.0","0","0","52875","","null","","","null","82","","NaN","","","","","","","","","","","","","",""
"","response","","html-keyboard-response","534","522936","0.0-1.0-743.0-0.0","0","0","52875","","null","","","null","82","","","2","82","training","adjacent","CB","3","2","P.jpg","Q.jpg","NaN","0","0","",""
"","too_slow_prompt","","html-keyboard-response","535","523948","0.0-1.0-745.0-0.0","1","0","52875","","null","","","null","","","","","","","","","","","","","","","","",""
"","time_out","","html-keyboard-response","536","525957","0.0-1.0-746.0-0.0","0","0","52875","","null","","","null","82","","","","","","","","","","","","","","","",""
"","ITI","","html-keyboard-response","537","526967","0.0-1.0-747.0","0","0","52875","","null","","","null","82","","","","","","","","","","","","","","","NaN",""
"","S1","","html-keyboard-response","538","527225","0.0-1.0-749.0","0","0","52875","","null","","","null","83","","","","","","","","","","","","","","","",""
"","ISI","","html-keyboard-response","539","527386","0.0-1.0-750.0","0","0","52875","","null","","","null","83","NaN","","","","","","","","","","","","","","",""
"","S2","","html-keyboard-response","540","527647","0.0-1.0-751.0","0","0","52875","","null","","","null","83","","NaN","","","","","","","","","","","","","",""
"","response","","html-keyboard-response","541","528462","0.0-1.0-752.0-0.0","0","0","52875","","810","","","68","83","","","2","83","training","adjacent","EF","5","6","O.jpg","M.jpg","0","1","0","",""
"","feedback","","html-keyboard-response","542","529470","0.0-1.0-753.0-0.0","0","0","52875","","null","","","null","83","","","","","","","","","","","","","","","",""
"","time_out","","html-keyboard-response","543","531481","0.0-1.0-755.0-0.0","0","0","52875","","null","","","null","83","","","","","","","","","","","","","","","",""
"","ITI","","html-keyboard-response","544","532492","0.0-1.0-756.0","0","0","52875","","null","","","null","83","","","","","","","","","","","","","","","NaN",""
"","S1","","html-keyboard-response","545","532753","0.0-1.0-758.0","0","0","52875","","null","","","null","84","","","","","","","","","","","","","","","",""
"","ISI","","html-keyboard-response","546","532910","0.0-1.0-759.0","0","0","52875","","null","","","null","84","NaN","","","","","","","","","","","","","","",""
"","S2","","html-keyboard-response","547","533172","0.0-1.0-760.0","0","0","52875","","null","","","null","84","","NaN","","","","","","","","","","","","","",""
"","response","","html-keyboard-response","548","534276","0.0-1.0-761.0-0.0","0","0","52875","","1098","","","75","84","","","2","84","training","adjacent","FG","6","7","M.jpg","R.jpg","1","1","1","",""
"","feedback","","html-keyboard-response","549","535287","0.0-1.0-762.0-0.0","0","0","52875","","null","","","null","84","","","","","","","","","","","","","","","",""
"","ITI","","html-keyboard-response","550","536299","0.0-1.0-765.0","0","0","52875","","null","","","null","84","","","","","","","","","","","","","","","NaN",""
"","S1","","html-keyboard-response","551","536558","0.0-1.0-767.0","0","0","52875","","null","","","null","85","","","","","","","","","","","","","","","",""
"","ISI","","html-keyboard-response","552","536716","0.0-1.0-768.0","0","0","52875","","null","","","null","85","NaN","","","","","","","","","","","","","","",""
"","S2","","html-keyboard-response","553","536976","0.0-1.0-769.0","0","0","52875","","null","","","null","85","","NaN","","","","","","","","","","","","","",""
"","response","","html-keyboard-response","554","537802","0.0-1.0-770.0-0.0","0","0","52875","","823","","","75","85","","","2","85","training","adjacent","EF","5","6","O.jpg","M.jpg","1","1","1","",""
"","feedback","","html-keyboard-response","555","538810","0.0-1.0-771.0-0.0","0","0","52875","","null","","","null","85","","","","","","","","","","","","","","","",""
"","ITI","","html-keyboard-response","556","539821","0.0-1.0-774.0","0","0","52875","","null","","","null","85","","","","","","","","","","","","","","","NaN",""
"","S1","","html-keyboard-response","557","540082","0.0-1.0-776.0","0","0","52875","","null","","","null","86","","","","","","","","","","","","","","","",""
"","ISI","","html-keyboard-response","558","540242","0.0-1.0-777.0","0","0","52875","","null","","","null","86","NaN","","","","","","","","","","","","","","",""
"","S2","","html-keyboard-response","559","540495","0.0-1.0-778.0","0","0","52875","","null","","","null","86","","NaN","","","","","","","","","","","","","",""
"","response","","html-keyboard-response","560","541242","0.0-1.0-779.0-0.0","0","0","52875","","745","","","75","86","","","2","86","training","adjacent","ED","5","4","O.jpg","N.jpg","1","0","0","",""
"","feedback","","html-keyboard-response","561","542253","0.0-1.0-780.0-0.0","0","0","52875","","null","","","null","86","","","","","","","","","","","","","","","",""
"","time_out","","html-keyboard-response","562","544264","0.0-1.0-782.0-0.0","0","0","52875","","null","","","null","86","","","","","","","","","","","","","","","",""
"","ITI","","html-keyboard-response","563","545271","0.0-1.0-783.0","0","0","52875","","null","","","null","86","","","","","","","","","","","","","","","NaN",""
"","S1","","html-keyboard-response","564","545532","0.0-1.0-785.0","0","0","52875","","null","","","null","87","","","","","","","","","","","","","","","",""
"","ISI","","html-keyboard-response","565","545692","0.0-1.0-786.0","0","0","52875","","null","","","null","87","NaN","","","","","","","","","","","","","","",""
"","S2","","html-keyboard-response","566","545952","0.0-1.0-787.0","0","0","52875","","null","","","null","87","","NaN","","","","","","","","","","","","","",""
"","response","","html-keyboard-response","567","547200","0.0-1.0-788.0-0.0","0","0","52875","","1244","","","68","87","","","2","87","training","adjacent","BC","2","3","Q.jpg","P.jpg","0","1","0","",""
"","feedback","","html-keyboard-response","568","548210","0.0-1.0-789.0-0.0","0","0","52875","","null","","","null","87","","","","","","","","","","","","","","","",""
"","time_out","","html-keyboard-response","569","550221","0.0-1.0-791.0-0.0","0","0","52875","","null","","","null","87","","","","","","","","","","","","","","","",""
"","ITI","","html-keyboard-response","570","551231","0.0-1.0-792.0","0","0","52875","","null","","","null","87","","","","","","","","","","","","","","","NaN",""
"","S1","","html-keyboard-response","571","551491","0.0-1.0-794.0","0","0","52875","","null","","","null","88","","","","","","","","","","","","","","","",""
"","ISI","","html-keyboard-response","572","551651","0.0-1.0-795.0","0","0","52875","","null","","","null","88","NaN","","","","","","","","","","","","","","",""
"","S2","","html-keyboard-response","573","551911","0.0-1.0-796.0","0","0","52875","","null","","","null","88","","NaN","","","","","","","","","","","","","",""
"","response","","html-keyboard-response","574","553142","0.0-1.0-797.0-0.0","0","0","52875","","1229","","","68","88","","","2","88","training","adjacent","FE","6","5","M.jpg","O.jpg","0","0","1","",""
"","feedback","","html-keyboard-response","575","554151","0.0-1.0-798.0-0.0","0","0","52875","","null","","","null","88","","","","","","","","","","","","","","","",""
"","ITI","","html-keyboard-response","576","555157","0.0-1.0-801.0","0","0","52875","","null","","","null","88","","","","","","","","","","","","","","","NaN",""
"","S1","","html-keyboard-response","577","555417","0.0-1.0-803.0","0","0","52875","","null","","","null","89","","","","","","","","","","","","","","","",""
"","ISI","","html-keyboard-response","578","555573","0.0-1.0-804.0","0","0","52875","","null","","","null","89","NaN","","","","","","","","","","","","","","",""
"","S2","","html-keyboard-response","579","555835","0.0-1.0-805.0","0","0","52875","","null","","","null","89","","NaN","","","","","","","","","","","","","",""
"","response","","html-keyboard-response","580","556950","0.0-1.0-806.0-0.0","0","0","52875","","1110","","","68","89","","","2","89","training","adjacent","DE","4","5","N.jpg","O.jpg","0","1","0","",""
