"success","ttype","start_time","trial_type","trial_index","time_elapsed","internal_node_id","warning","missed_checkup","PID","view_history","rt","responses","repeat_instructions","key_press","index","keypress_isi","keypress_S2","block","trial_num","phase","group_type","pair_type","S1_stim","S2_stim","S1_img","S2_img","S1_chosen","S1_higher","accuracy","keypress_iti","total_bonus_tally"
"true","full_screen","d08052022hr1256","fullscreen","0","9873","0.0-0.0","0","0","45880","","","","","","","","","","","","","","","","","","","","","",""
"","instructions","","instructions","1","109177","0.0-1.0-0.0-0.0","0","0","45880","[{""page_index"":0,""viewing_time"":5751},{""page_index"":1,""viewing_time"":20256},{""page_index"":2,""viewing_time"":71375},{""page_index"":3,""viewing_time"":1922}]","99304","","","","","","","","","","","","","","","","","","","",""
"","comprehension_check","","survey-multi-choice","2","135905","0.0-1.0-0.0-1.0","0","0","45880","","26724","{""Q0"":""True"",""Q1"":""D"",""Q2"":""Once the second image appears and while the screen 'MAKE A CHOICE' is shown"",""Q3"":""Green mark"",""Q4"":""either D or K""}","0","","","","","","","","","","","","","","","","","",""
"","start_exp","","html-keyboard-response","3","168446","0.0-1.0-1.0","0","0","45880","","32539","","","32","","","","","","","","","","","","","","","","",""
"","S1","","html-keyboard-response","4","168700","0.0-1.0-2.0","0","0","45880","","null","","","null","0","","","","","","","","","","","","","","","",""
"","ISI","","html-keyboard-response","5","170702","0.0-1.0-3.0","0","0","45880","","1896","","","68","0","d","","","","","","","","","","","","","","",""
"","S2","","html-keyboard-response","6","170955","0.0-1.0-4.0","0","0","45880","","null","","","null","0","","NaN","","","","","","","","","","","","","",""
"","response","","html-keyboard-response","7","172397","0.0-1.0-5.0-0.0","0","0","45880","","1440","","","75","0","","","1","0","training","adjacent","CB","3","2","R.jpg","L.jpg","0","0","1","",""
"","feedback","","html-keyboard-response","8","173399","0.0-1.0-6.0-0.0","0","0","45880","","null","","","null","0","","","","","","","","","","","","","","","",""
"","ITI","","html-keyboard-response","9","174401","0.0-1.0-9.0","0","0","45880","","null","","","null","0","","","","","","","","","","","","","","","NaN",""
"","S1","","html-keyboard-response","10","174655","0.0-1.0-11.0","0","0","45880","","null","","","null","1","","","","","","","","","","","","","","","",""
"","ISI","","html-keyboard-response","11","176657","0.0-1.0-12.0","0","0","45880","","null","","","null","1","NaN","","","","","","","","","","","","","","",""
"","S2","","html-keyboard-response","12","176909","0.0-1.0-13.0","0","0","45880","","null","","","null","1","","NaN","","","","","","","","","","","","","",""
"","response","","html-keyboard-response","13","177901","0.0-1.0-14.0-0.0","0","0","45880","","990","","","75","1","","","1","1","training","adjacent","GF","7","6","O.jpg","Q.jpg","0","0","1","",""
"","feedback","","html-keyboard-response","14","178904","0.0-1.0-15.0-0.0","0","0","45880","","null","","","null","1","","","","","","","","","","","","","","","",""
"","ITI","","html-keyboard-response","15","179907","0.0-1.0-18.0","0","0","45880","","null","","","null","1","","","","","","","","","","","","","","","NaN",""
"","S1","","html-keyboard-response","16","180160","0.0-1.0-20.0","0","0","45880","","null","","","null","2","","","","","","","","","","","","","","","",""
"","ISI","","html-keyboard-response","17","182162","0.0-1.0-21.0","0","0","45880","","null","","","null","2","NaN","","","","","","","","","","","","","","",""
"","S2","","html-keyboard-response","18","182415","0.0-1.0-22.0","0","0","45880","","null","","","null","2","","NaN","","","","","","","","","","","","","",""
"","response","","html-keyboard-response","19","183646","0.0-1.0-23.0-0.0","0","0","45880","","1229","","","68","2","","","1","2","training","adjacent","BC","2","3","L.jpg","R.jpg","1","1","1","",""
"","feedback","","html-keyboard-response","20","184648","0.0-1.0-24.0-0.0","0","0","45880","","null","","","null","2","","","","","","","","","","","","","","","",""
"","ITI","","html-keyboard-response","21","185650","0.0-1.0-27.0","0","0","45880","","null","","","null","2","","","","","","","","","","","","","","","NaN",""
"","S1","","html-keyboard-response","22","185903","0.0-1.0-29.0","0","0","45880","","null","","","null","3","","","","","","","","","","","","","","","",""
"","ISI","","html-keyboard-response","23","187904","0.0-1.0-30.0","0","0","45880","","null","","","null","3","NaN","","","","","","","","","","","","","","",""
"","S2","","html-keyboard-response","24","188158","0.0-1.0-31.0","0","0","45880","","null","","","null","3","","NaN","","","","","","","","","","","","","",""
"","response","","html-keyboard-response","25","189309","0.0-1.0-32.0-0.0","0","0","45880","","1149","","","68","3","","","1","3","training","adjacent","ED","5","4","M.jpg","N.jpg","1","0","0","",""
"","feedback","","html-keyboard-response","26","190313","0.0-1.0-33.0-0.0","0","0","45880","","null","","","null","3","","","","","","","","","","","","","","","",""
"","time_out","","html-keyboard-response","27","192315","0.0-1.0-35.0-0.0","0","0","45880","","null","","","null","3","","","","","","","","","","","","","","","",""
"","ITI","","html-keyboard-response","28","193318","0.0-1.0-36.0","0","0","45880","","null","","","null","3","","","","","","","","","","","","","","","NaN",""
"","S1","","html-keyboard-response","29","193570","0.0-1.0-38.0","0","0","45880","","null","","","null","4","","","","","","","","","","","","","","","",""
"","ISI","","html-keyboard-response","30","195572","0.0-1.0-39.0","0","0","45880","","null","","","null","4","NaN","","","","","","","","","","","","","","",""
"","S2","","html-keyboard-response","31","195824","0.0-1.0-40.0","0","0","45880","","null","","","null","4","","NaN","","","","","","","","","","","","","",""
"","response","","html-keyboard-response","32","196660","0.0-1.0-41.0-0.0","0","0","45880","","835","","","75","4","","","1","4","training","adjacent","CD","3","4","R.jpg","N.jpg","0","1","0","",""
"","feedback","","html-keyboard-response","33","197663","0.0-1.0-42.0-0.0","0","0","45880","","null","","","null","4","","","","","","","","","","","","","","","",""
"","time_out","","html-keyboard-response","34","199665","0.0-1.0-44.0-0.0","0","0","45880","","null","","","null","4","","","","","","","","","","","","","","","",""
"","ITI","","html-keyboard-response","35","200667","0.0-1.0-45.0","0","0","45880","","null","","","null","4","","","","","","","","","","","","","","","NaN",""
"","S1","","html-keyboard-response","36","200920","0.0-1.0-47.0","0","0","45880","","null","","","null","5","","","","","","","","","","","","","","","",""
"","ISI","","html-keyboard-response","37","202922","0.0-1.0-48.0","0","0","45880","","null","","","null","5","NaN","","","","","","","","","","","","","","",""
"","S2","","html-keyboard-response","38","203175","0.0-1.0-49.0","0","0","45880","","null","","","null","5","","NaN","","","","","","","","","","","","","",""
"","response","","html-keyboard-response","39","204045","0.0-1.0-50.0-0.0","0","0","45880","","869","","","68","5","","","1","5","training","adjacent","FG","6","7","Q.jpg","O.jpg","1","1","1","",""
"","feedback","","html-keyboard-response","40","205048","0.0-1.0-51.0-0.0","0","0","45880","","null","","","null","5","","","","","","","","","","","","","","","",""
"","ITI","","html-keyboard-response","41","206052","0.0-1.0-54.0","0","0","45880","","null","","","null","5","","","","","","","","","","","","","","","NaN",""
"","S1","","html-keyboard-response","42","206304","0.0-1.0-56.0","0","0","45880","","null","","","null","6","","","","","","","","","","","","","","","",""
"","ISI","","html-keyboard-response","43","208307","0.0-1.0-57.0","0","0","45880","","null","","","null","6","NaN","","","","","","","","","","","","","","",""
"","S2","","html-keyboard-response","44","208560","0.0-1.0-58.0","0","0","45880","","null","","","null","6","","NaN","","","","","","","","","","","","","",""
"","response","","html-keyboard-response","45","209277","0.0-1.0-59.0-0.0","0","0","45880","","716","","","75","6","","","1","6","training","adjacent","AB","1","2","P.jpg","L.jpg","0","1","0","",""
"","feedback","","html-keyboard-response","46","210280","0.0-1.0-60.0-0.0","0","0","45880","","null","","","null","6","","","","","","","","","","","","","","","",""
"","time_out","","html-keyboard-response","47","212282","0.0-1.0-62.0-0.0","0","0","45880","","null","","","null","6","","","","","","","","","","","","","","","",""
"","ITI","","html-keyboard-response","48","213285","0.0-1.0-63.0","0","0","45880","","null","","","null","6","","","","","","","","","","","","","","","NaN",""
"","S1","","html-keyboard-response","49","213537","0.0-1.0-65.0","0","0","45880","","null","","","null","7","","","","","","","","","","","","","","","",""
"","ISI","","html-keyboard-response","50","215540","0.0-1.0-66.0","0","0","45880","","null","","","null","7","NaN","","","","","","","","","","","","","","",""
"","S2","","html-keyboard-response","51","215793","0.0-1.0-67.0","0","0","45880","","null","","","null","7","","NaN","","","","","","","","","","","","","",""
"","response","","html-keyboard-response","52","216909","0.0-1.0-68.0-0.0","0","0","45880","","1115","","","68","7","","","1","7","training","adjacent","BA","2","1","L.jpg","P.jpg","1","0","0","",""
"","feedback","","html-keyboard-response","53","217912","0.0-1.0-69.0-0.0","0","0","45880","","null","","","null","7","","","","","","","","","","","","","","","",""
"","time_out","","html-keyboard-response","54","219915","0.0-1.0-71.0-0.0","0","0","45880","","null","","","null","7","","","","","","","","","","","","","","","",""
"","ITI","","html-keyboard-response","55","220917","0.0-1.0-72.0","0","0","45880","","null","","","null","7","","","","","","","","","","","","","","","NaN",""
"","S1","","html-keyboard-response","56","221169","0.0-1.0-74.0","0","0","45880","","null","","","null","8","","","","","","","","","","","","","","","",""
"","ISI","","html-keyboard-response","57","223170","0.0-1.0-75.0","0","0","45880","","null","","","null","8","NaN","","","","","","","","","","","","","","",""
"","S2","","html-keyboard-response","58","223423","0.0-1.0-76.0","0","0","45880","","null","","","null","8","","NaN","","","","","","","","","","","","","",""
"","response","","html-keyboard-response","59","224309","0.0-1.0-77.0-0.0","0","0","45880","","884","","","68","8","","","1","8","training","adjacent","ED","5","4","M.jpg","N.jpg","1","0","0","",""
"","feedback","","html-keyboard-response","60","225313","0.0-1.0-78.0-0.0","0","0","45880","","null","","","null","8","","","","","","","","","","","","","","","",""
"","time_out","","html-keyboard-response","61","227315","0.0-1.0-80.0-0.0","0","0","45880","","null","","","null","8","","","","","","","","","","","","","","","",""
"","ITI","","html-keyboard-response","62","228318","0.0-1.0-81.0","0","0","45880","","null","","","null","8","","","","","","","","","","","","","","","NaN",""
"","S1","","html-keyboard-response","63","228569","0.0-1.0-83.0","0","0","45880","","null","","","null","9","","","","","","","","","","","","","","","",""
"","ISI","","html-keyboard-response","64","230572","0.0-1.0-84.0","0","0","45880","","null","","","null","9","NaN","","","","","","","","","","","","","","",""
"","S2","","html-keyboard-response","65","230824","0.0-1.0-85.0","0","0","45880","","null","","","null","9","","NaN","","","","","","","","","","","","","",""
"","response","","html-keyboard-response","66","231637","0.0-1.0-86.0-0.0","0","0","45880","","811","","","75","9","","","1","9","training","adjacent","GF","7","6","O.jpg","Q.jpg","0","0","1","",""
"","feedback","","html-keyboard-response","67","232641","0.0-1.0-87.0-0.0","0","0","45880","","null","","","null","9","","","","","","","","","","","","","","","",""
"","ITI","","html-keyboard-response","68","233643","0.0-1.0-90.0","0","0","45880","","null","","","null","9","","","","","","","","","","","","","","","NaN",""
"","S1","","html-keyboard-response","69","233895","0.0-1.0-92.0","0","0","45880","","null","","","null","10","","","","","","","","","","","","","","","",""
"","ISI","","html-keyboard-response","70","235898","0.0-1.0-93.0","0","0","45880","","null","","","null","10","NaN","","","","","","","","","","","","","","",""
"","S2","","html-keyboard-response","71","236150","0.0-1.0-94.0","0","0","45880","","null","","","null","10","","NaN","","","","","","","","","","","","","",""
"","response","","html-keyboard-response","72","236741","0.0-1.0-95.0-0.0","0","0","45880","","589","","","68","10","","","1","10","training","adjacent","DE","4","5","N.jpg","M.jpg","1","1","1","",""
"","feedback","","html-keyboard-response","73","237744","0.0-1.0-96.0-0.0","0","0","45880","","null","","","null","10","","","","","","","","","","","","","","","",""
"","ITI","","html-keyboard-response","74","238760","0.0-1.0-99.0","0","0","45880","","null","","","null","10","","","","","","","","","","","","","","","NaN",""
"","S1","","html-keyboard-response","75","239013","0.0-1.0-101.0","0","0","45880","","null","","","null","11","","","","","","","","","","","","","","","",""
"","ISI","","html-keyboard-response","76","241015","0.0-1.0-102.0","0","0","45880","","null","","","null","11","NaN","","","","","","","","","","","","","","",""
"","S2","","html-keyboard-response","77","241267","0.0-1.0-103.0","0","0","45880","","null","","","null","11","","NaN","","","","","","","","","","","","","",""
"","response","","html-keyboard-response","78","241789","0.0-1.0-104.0-0.0","0","0","45880","","520","","","68","11","","","1","11","training","adjacent","FG","6","7","Q.jpg","O.jpg","1","1","1","",""
"","feedback","","html-keyboard-response","79","242791","0.0-1.0-105.0-0.0","0","0","45880","","null","","","null","11","","","","","","","","","","","","","","","",""
"","ITI","","html-keyboard-response","80","243794","0.0-1.0-108.0","0","0","45880","","null","","","null","11","","","","","","","","","","","","","","","NaN",""
"","S1","","html-keyboard-response","81","244050","0.0-1.0-110.0","0","0","45880","","null","","","null","12","","","","","","","","","","","","","","","",""
"","ISI","","html-keyboard-response","82","246052","0.0-1.0-111.0","0","0","45880","","null","","","null","12","NaN","","","","","","","","","","","","","","",""
"","S2","","html-keyboard-response","83","246305","0.0-1.0-112.0","0","0","45880","","null","","","null","12","","NaN","","","","","","","","","","","","","",""
"","response","","html-keyboard-response","84","247013","0.0-1.0-113.0-0.0","0","0","45880","","706","","","68","12","","","1","12","training","adjacent","BC","2","3","L.jpg","R.jpg","1","1","1","",""
"","feedback","","html-keyboard-response","85","248015","0.0-1.0-114.0-0.0","0","0","45880","","null","","","null","12","","","","","","","","","","","","","","","",""
"","ITI","","html-keyboard-response","86","249018","0.0-1.0-117.0","0","0","45880","","null","","","null","12","","","","","","","","","","","","","","","NaN",""
"","S1","","html-keyboard-response","87","249269","0.0-1.0-119.0","0","0","45880","","null","","","null","13","","","","","","","","","","","","","","","",""
"","ISI","","html-keyboard-response","88","251272","0.0-1.0-120.0","0","0","45880","","null","","","null","13","NaN","","","","","","","","","","","","","","",""
"","S2","","html-keyboard-response","89","251524","0.0-1.0-121.0","0","0","45880","","null","","","null","13","","NaN","","","","","","","","","","","","","",""
"","response","","html-keyboard-response","90","252077","0.0-1.0-122.0-0.0","0","0","45880","","551","","","68","13","","","1","13","training","adjacent","FE","6","5","Q.jpg","M.jpg","1","0","0","",""
"","feedback","","html-keyboard-response","91","253080","0.0-1.0-123.0-0.0","0","0","45880","","null","","","null","13","","","","","","","","","","","","","","","",""
"","time_out","","html-keyboard-response","92","255082","0.0-1.0-125.0-0.0","0","0","45880","","null","","","null","13","","","","","","","","","","","","","","","",""
"","ITI","","html-keyboard-response","93","256084","0.0-1.0-126.0","0","0","45880","","null","","","null","13","","","","","","","","","","","","","","","NaN",""
"","S1","","html-keyboard-response","94","256337","0.0-1.0-128.0","0","0","45880","","null","","","null","14","","","","","","","","","","","","","","","",""
"","ISI","","html-keyboard-response","95","258340","0.0-1.0-129.0","0","0","45880","","null","","","null","14","NaN","","","","","","","","","","","","","","",""
"","S2","","html-keyboard-response","96","258593","0.0-1.0-130.0","0","0","45880","","null","","","null","14","","NaN","","","","","","","","","","","","","",""
"","response","","html-keyboard-response","97","259349","0.0-1.0-131.0-0.0","0","0","45880","","755","","","75","14","","","1","14","training","adjacent","CD","3","4","R.jpg","N.jpg","0","1","0","",""
"","feedback","","html-keyboard-response","98","260351","0.0-1.0-132.0-0.0","0","0","45880","","null","","","null","14","","","","","","","","","","","","","","","",""
"","time_out","","html-keyboard-response","99","262354","0.0-1.0-134.0-0.0","0","0","45880","","null","","","null","14","","","","","","","","","","","","","","","",""
"","ITI","","html-keyboard-response","100","263355","0.0-1.0-135.0","0","0","45880","","null","","","null","14","","","","","","","","","","","","","","","NaN",""
"","S1","","html-keyboard-response","101","263607","0.0-1.0-137.0","0","0","45880","","null","","","null","15","","","","","","","","","","","","","","","",""
"","ISI","","html-keyboard-response","102","265609","0.0-1.0-138.0","0","0","45880","","null","","","null","15","NaN","","","","","","","","","","","","","","",""
"","S2","","html-keyboard-response","103","265863","0.0-1.0-139.0","0","0","45880","","null","","","null","15","","NaN","","","","","","","","","","","","","",""
"","response","","html-keyboard-response","104","266516","0.0-1.0-140.0-0.0","0","0","45880","","652","","","68","15","","","1","15","training","adjacent","DE","4","5","N.jpg","M.jpg","1","1","1","",""
"","feedback","","html-keyboard-response","105","267518","0.0-1.0-141.0-0.0","0","0","45880","","null","","","null","15","","","","","","","","","","","","","","","",""
"","ITI","","html-keyboard-response","106","268520","0.0-1.0-144.0","0","0","45880","","null","","","null","15","","","","","","","","","","","","","","","NaN",""
"","S1","","html-keyboard-response","107","268772","0.0-1.0-146.0","0","0","45880","","null","","","null","16","","","","","","","","","","","","","","","",""
"","ISI","","html-keyboard-response","108","270775","0.0-1.0-147.0","0","0","45880","","null","","","null","16","NaN","","","","","","","","","","","","","","",""
"","S2","","html-keyboard-response","109","271028","0.0-1.0-148.0","0","0","45880","","null","","","null","16","","NaN","","","","","","","","","","","","","",""
"","response","","html-keyboard-response","110","271685","0.0-1.0-149.0-0.0","0","0","45880","","656","","","75","16","","","1","16","training","adjacent","EF","5","6","M.jpg","Q.jpg","0","1","0","",""
"","feedback","","html-keyboard-response","111","272688","0.0-1.0-150.0-0.0","0","0","45880","","null","","","null","16","","","","","","","","","","","","","","","",""
"","time_out","","html-keyboard-response","112","274690","0.0-1.0-152.0-0.0","0","0","45880","","null","","","null","16","","","","","","","","","","","","","","","",""
"","ITI","","html-keyboard-response","113","275694","0.0-1.0-153.0","0","0","45880","","null","","","null","16","","","","","","","","","","","","","","","NaN",""
"","S1","","html-keyboard-response","114","275946","0.0-1.0-155.0","0","0","45880","","null","","","null","17","","","","","","","","","","","","","","","",""
"","ISI","","html-keyboard-response","115","277948","0.0-1.0-156.0","0","0","45880","","null","","","null","17","NaN","","","","","","","","","","","","","","",""
"","S2","","html-keyboard-response","116","278200","0.0-1.0-157.0","0","0","45880","","null","","","null","17","","NaN","","","","","","","","","","","","","",""
"","response","","html-keyboard-response","117","279173","0.0-1.0-158.0-0.0","0","0","45880","","971","","","68","17","","","1","17","training","adjacent","FE","6","5","Q.jpg","M.jpg","1","0","0","",""
"","feedback","","html-keyboard-response","118","280175","0.0-1.0-159.0-0.0","0","0","45880","","null","","","null","17","","","","","","","","","","","","","","","",""
"","time_out","","html-keyboard-response","119","282178","0.0-1.0-161.0-0.0","0","0","45880","","null","","","null","17","","","","","","","","","","","","","","","",""
"","ITI","","html-keyboard-response","120","283181","0.0-1.0-162.0","0","0","45880","","null","","","null","17","","","","","","","","","","","","","","","NaN",""
"","S1","","html-keyboard-response","121","283432","0.0-1.0-164.0","0","0","45880","","null","","","null","18","","","","","","","","","","","","","","","",""
"","ISI","","html-keyboard-response","122","285434","0.0-1.0-165.0","0","0","45880","","null","","","null","18","NaN","","","","","","","","","","","","","","",""
"","S2","","html-keyboard-response","123","285686","0.0-1.0-166.0","0","0","45880","","null","","","null","18","","NaN","","","","","","","","","","","","","",""
"","response","","html-keyboard-response","124","286373","0.0-1.0-167.0-0.0","0","0","45880","","685","","","75","18","","","1","18","training","adjacent","GF","7","6","O.jpg","Q.jpg","0","0","1","",""
"","feedback","","html-keyboard-response","125","287375","0.0-1.0-168.0-0.0","0","0","45880","","null","","","null","18","","","","","","","","","","","","","","","",""
"","ITI","","html-keyboard-response","126","288378","0.0-1.0-171.0","0","0","45880","","null","","","null","18","","","","","","","","","","","","","","","NaN",""
"","S1","","html-keyboard-response","127","288631","0.0-1.0-173.0","0","0","45880","","null","","","null","19","","","","","","","","","","","","","","","",""
"","ISI","","html-keyboard-response","128","290633","0.0-1.0-174.0","0","0","45880","","null","","","null","19","NaN","","","","","","","","","","","","","","",""
"","S2","","html-keyboard-response","129","290886","0.0-1.0-175.0","0","0","45880","","null","","","null","19","","NaN","","","","","","","","","","","","","",""
"","response","","html-keyboard-response","130","291821","0.0-1.0-176.0-0.0","0","0","45880","","934","","","68","19","","","1","19","training","adjacent","ED","5","4","M.jpg","N.jpg","1","0","0","",""
"","feedback","","html-keyboard-response","131","292824","0.0-1.0-177.0-0.0","0","0","45880","","null","","","null","19","","","","","","","","","","","","","","","",""
"","time_out","","html-keyboard-response","132","294825","0.0-1.0-179.0-0.0","0","0","45880","","null","","","null","19","","","","","","","","","","","","","","","",""
"","ITI","","html-keyboard-response","133","295828","0.0-1.0-180.0","0","0","45880","","null","","","null","19","","","","","","","","","","","","","","","NaN",""
"","S1","","html-keyboard-response","134","296081","0.0-1.0-182.0","0","0","45880","","null","","","null","20","","","","","","","","","","","","","","","",""
"","ISI","","html-keyboard-response","135","298083","0.0-1.0-183.0","0","0","45880","","null","","","null","20","NaN","","","","","","","","","","","","","","",""
"","S2","","html-keyboard-response","136","298336","0.0-1.0-184.0","0","0","45880","","null","","","null","20","","NaN","","","","","","","","","","","","","",""
"","response","","html-keyboard-response","137","298870","0.0-1.0-185.0-0.0","0","0","45880","","532","","","75","20","","","1","20","training","adjacent","EF","5","6","M.jpg","Q.jpg","0","1","0","",""
"","feedback","","html-keyboard-response","138","299872","0.0-1.0-186.0-0.0","0","0","45880","","null","","","null","20","","","","","","","","","","","","","","","",""
"","time_out","","html-keyboard-response","139","301875","0.0-1.0-188.0-0.0","0","0","45880","","null","","","null","20","","","","","","","","","","","","","","","",""
"","ITI","","html-keyboard-response","140","302877","0.0-1.0-189.0","0","0","45880","","null","","","null","20","","","","","","","","","","","","","","","NaN",""
"","S1","","html-keyboard-response","141","303129","0.0-1.0-191.0","0","0","45880","","null","","","null","21","","","","","","","","","","","","","","","",""
"","ISI","","html-keyboard-response","142","305131","0.0-1.0-192.0","0","0","45880","","null","","","null","21","NaN","","","","","","","","","","","","","","",""
"","S2","","html-keyboard-response","143","305384","0.0-1.0-193.0","0","0","45880","","null","","","null","21","","NaN","","","","","","","","","","","","","",""
"","response","","html-keyboard-response","144","305853","0.0-1.0-194.0-0.0","0","0","45880","","468","","","75","21","","","1","21","training","adjacent","AB","1","2","P.jpg","L.jpg","0","1","0","",""
"","feedback","","html-keyboard-response","145","306856","0.0-1.0-195.0-0.0","0","0","45880","","null","","","null","21","","","","","","","","","","","","","","","",""
"","time_out","","html-keyboard-response","146","308858","0.0-1.0-197.0-0.0","0","0","45880","","null","","","null","21","","","","","","","","","","","","","","","",""
"","ITI","","html-keyboard-response","147","309860","0.0-1.0-198.0","0","0","45880","","null","","","null","21","","","","","","","","","","","","","","","NaN",""
"","S1","","html-keyboard-response","148","310113","0.0-1.0-200.0","0","0","45880","","null","","","null","22","","","","","","","","","","","","","","","",""
"","ISI","","html-keyboard-response","149","312115","0.0-1.0-201.0","0","0","45880","","null","","","null","22","NaN","","","","","","","","","","","","","","",""
"","S2","","html-keyboard-response","150","312369","0.0-1.0-202.0","0","0","45880","","null","","","null","22","","NaN","","","","","","","","","","","","","",""
"","response","","html-keyboard-response","151","313045","0.0-1.0-203.0-0.0","0","0","45880","","674","","","68","22","","","1","22","training","adjacent","DC","4","3","N.jpg","R.jpg","1","0","0","",""
"","feedback","","html-keyboard-response","152","314050","0.0-1.0-204.0-0.0","0","0","45880","","null","","","null","22","","","","","","","","","","","","","","","",""
"","time_out","","html-keyboard-response","153","316052","0.0-1.0-206.0-0.0","0","0","45880","","null","","","null","22","","","","","","","","","","","","","","","",""
"","ITI","","html-keyboard-response","154","317055","0.0-1.0-207.0","0","0","45880","","null","","","null","22","","","","","","","","","","","","","","","NaN",""
"","S1","","html-keyboard-response","155","317307","0.0-1.0-209.0","0","0","45880","","null","","","null","23","","","","","","","","","","","","","","","",""
"","ISI","","html-keyboard-response","156","319309","0.0-1.0-210.0","0","0","45880","","null","","","null","23","NaN","","","","","","","","","","","","","","",""
"","S2","","html-keyboard-response","157","319562","0.0-1.0-211.0","0","0","45880","","null","","","null","23","","NaN","","","","","","","","","","","","","",""
"","response","","html-keyboard-response","158","320189","0.0-1.0-212.0-0.0","0","0","45880","","626","","","75","23","","","1","23","training","adjacent","CD","3","4","R.jpg","N.jpg","0","1","0","",""
"","feedback","","html-keyboard-response","159","321192","0.0-1.0-213.0-0.0","0","0","45880","","null","","","null","23","","","","","","","","","","","","","","","",""
"","time_out","","html-keyboard-response","160","323194","0.0-1.0-215.0-0.0","0","0","45880","","null","","","null","23","","","","","","","","","","","","","","","",""
"","ITI","","html-keyboard-response","161","324196","0.0-1.0-216.0","0","0","45880","","null","","","null","23","","","","","","","","","","","","","","","NaN",""
"","S1","","html-keyboard-response","162","324448","0.0-1.0-218.0","0","0","45880","","null","","","null","24","","","","","","","","","","","","","","","",""
"","ISI","","html-keyboard-response","163","326451","0.0-1.0-219.0","0","0","45880","","null","","","null","24","NaN","","","","","","","","","","","","","","",""
"","S2","","html-keyboard-response","164","326704","0.0-1.0-220.0","0","0","45880","","null","","","null","24","","NaN","","","","","","","","","","","","","",""
"","response","","html-keyboard-response","165","327238","0.0-1.0-221.0-0.0","0","0","45880","","532","","","68","24","","","1","24","training","adjacent","BA","2","1","L.jpg","P.jpg","1","0","0","",""
"","feedback","","html-keyboard-response","166","328240","0.0-1.0-222.0-0.0","0","0","45880","","null","","","null","24","","","","","","","","","","","","","","","",""
"","time_out","","html-keyboard-response","167","330243","0.0-1.0-224.0-0.0","0","0","45880","","null","","","null","24","","","","","","","","","","","","","","","",""
"","ITI","","html-keyboard-response","168","331245","0.0-1.0-225.0","0","0","45880","","null","","","null","24","","","","","","","","","","","","","","","NaN",""
"","S1","","html-keyboard-response","169","331498","0.0-1.0-227.0","0","0","45880","","null","","","null","25","","","","","","","","","","","","","","","",""
"","ISI","","html-keyboard-response","170","333501","0.0-1.0-228.0","0","0","45880","","null","","","null","25","NaN","","","","","","","","","","","","","","",""
"","S2","","html-keyboard-response","171","333754","0.0-1.0-229.0","0","0","45880","","null","","","null","25","","NaN","","","","","","","","","","","","","",""
"","response","","html-keyboard-response","172","334429","0.0-1.0-230.0-0.0","0","0","45880","","673","","","68","25","","","1","25","training","adjacent","CB","3","2","R.jpg","L.jpg","1","0","0","",""
"","feedback","","html-keyboard-response","173","335432","0.0-1.0-231.0-0.0","0","0","45880","","null","","","null","25","","","","","","","","","","","","","","","",""
"","time_out","","html-keyboard-response","174","337434","0.0-1.0-233.0-0.0","0","0","45880","","null","","","null","25","","","","","","","","","","","","","","","",""
"","ITI","","html-keyboard-response","175","338435","0.0-1.0-234.0","0","0","45880","","null","","","null","25","","","","","","","","","","","","","","","NaN",""
"","S1","","html-keyboard-response","176","338688","0.0-1.0-236.0","0","0","45880","","null","","","null","26","","","","","","","","","","","","","","","",""
"","ISI","","html-keyboard-response","177","340689","0.0-1.0-237.0","0","0","45880","","null","","","null","26","NaN","","","","","","","","","","","","","","",""
"","S2","","html-keyboard-response","178","340944","0.0-1.0-238.0","0","0","45880","","null","","","null","26","","NaN","","","","","","","","","","","","","",""
"","response","","html-keyboard-response","179","342094","0.0-1.0-239.0-0.0","0","0","45880","","1148","","","68","26","","","1","26","training","adjacent","DC","4","3","N.jpg","R.jpg","1","0","0","",""
"","feedback","","html-keyboard-response","180","343096","0.0-1.0-240.0-0.0","0","0","45880","","null","","","null","26","","","","","","","","","","","","","","","",""
"","time_out","","html-keyboard-response","181","345098","0.0-1.0-242.0-0.0","0","0","45880","","null","","","null","26","","","","","","","","","","","","","","","",""
"","ITI","","html-keyboard-response","182","346101","0.0-1.0-243.0","0","0","45880","","null","","","null","26","","","","","","","","","","","","","","","NaN",""
"","S1","","html-keyboard-response","183","346353","0.0-1.0-245.0","0","0","45880","","null","","","null","27","","","","","","","","","","","","","","","",""
"","ISI","","html-keyboard-response","184","348354","0.0-1.0-246.0","0","0","45880","","null","","","null","27","NaN","","","","","","","","","","","","","","",""
"","S2","","html-keyboard-response","185","348607","0.0-1.0-247.0","0","0","45880","","null","","","null","27","","NaN","","","","","","","","","","","","","",""
"","response","","html-keyboard-response","186","349078","0.0-1.0-248.0-0.0","0","0","45880","","468","","","68","27","","","1","27","training","adjacent","EF","5","6","M.jpg","Q.jpg","1","1","1","",""
"","feedback","","html-keyboard-response","187","350084","0.0-1.0-249.0-0.0","0","0","45880","","null","","","null","27","","","","","","","","","","","","","","","",""
"","ITI","","html-keyboard-response","188","351086","0.0-1.0-252.0","0","0","45880","","null","","","null","27","","","","","","","","","","","","","","","NaN",""
"","S1","","html-keyboard-response","189","351339","0.0-1.0-254.0","0","0","45880","","null","","","null","28","","","","","","","","","","","","","","","",""
"","ISI","","html-keyboard-response","190","353341","0.0-1.0-255.0","0","0","45880","","null","","","null","28","NaN","","","","","","","","","","","","","","",""
"","S2","","html-keyboard-response","191","353594","0.0-1.0-256.0","0","0","45880","","null","","","null","28","","NaN","","","","","","","","","","","","","",""
"","response","","html-keyboard-response","192","354198","0.0-1.0-257.0-0.0","0","0","45880","","603","","","75","28","","","1","28","training","adjacent","GF","7","6","O.jpg","Q.jpg","0","0","1","",""
"","feedback","","html-keyboard-response","193","355201","0.0-1.0-258.0-0.0","0","0","45880","","null","","","null","28","","","","","","","","","","","","","","","",""
"","ITI","","html-keyboard-response","194","356203","0.0-1.0-261.0","0","0","45880","","null","","","null","28","","","","","","","","","","","","","","","NaN",""
"","S1","","html-keyboard-response","195","356455","0.0-1.0-263.0","0","0","45880","","null","","","null","29","","","","","","","","","","","","","","","",""
"","ISI","","html-keyboard-response","196","358457","0.0-1.0-264.0","0","0","45880","","null","","","null","29","NaN","","","","","","","","","","","","","","",""
"","S2","","html-keyboard-response","197","358710","0.0-1.0-265.0","0","0","45880","","null","","","null","29","","NaN","","","","","","","","","","","","","",""
"","response","","html-keyboard-response","198","359270","0.0-1.0-266.0-0.0","0","0","45880","","557","","","68","29","","","1","29","training","adjacent","AB","1","2","P.jpg","L.jpg","1","1","1","",""
"","feedback","","html-keyboard-response","199","360272","0.0-1.0-267.0-0.0","0","0","45880","","null","","","null","29","","","","","","","","","","","","","","","",""
"","ITI","","html-keyboard-response","200","361275","0.0-1.0-270.0","0","0","45880","","null","","","null","29","","","","","","","","","","","","","","","NaN",""
"","S1","","html-keyboard-response","201","361528","0.0-1.0-272.0","0","0","45880","","null","","","null","30","","","","","","","","","","","","","","","",""
"","ISI","","html-keyboard-response","202","363530","0.0-1.0-273.0","0","0","45880","","null","","","null","30","NaN","","","","","","","","","","","","","","",""
"","S2","","html-keyboard-response","203","363782","0.0-1.0-274.0","0","0","45880","","null","","","null","30","","NaN","","","","","","","","","","","","","",""
"","response","","html-keyboard-response","204","364654","0.0-1.0-275.0-0.0","0","0","45880","","869","","","75","30","","","1","30","training","adjacent","DE","4","5","N.jpg","M.jpg","0","1","0","",""
"","feedback","","html-keyboard-response","205","365657","0.0-1.0-276.0-0.0","0","0","45880","","null","","","null","30","","","","","","","","","","","","","","","",""
"","time_out","","html-keyboard-response","206","367659","0.0-1.0-278.0-0.0","0","0","45880","","null","","","null","30","","","","","","","","","","","","","","","",""
"","ITI","","html-keyboard-response","207","368661","0.0-1.0-279.0","0","0","45880","","null","","","null","30","","","","","","","","","","","","","","","NaN",""
"","S1","","html-keyboard-response","208","368914","0.0-1.0-281.0","0","0","45880","","null","","","null","31","","","","","","","","","","","","","","","",""
"","ISI","","html-keyboard-response","209","370916","0.0-1.0-282.0","0","0","45880","","null","","","null","31","NaN","","","","","","","","","","","","","","",""
"","S2","","html-keyboard-response","210","371168","0.0-1.0-283.0","0","0","45880","","null","","","null","31","","NaN","","","","","","","","","","","","","",""
"","response","","html-keyboard-response","211","371782","0.0-1.0-284.0-0.0","0","0","45880","","612","","","75","31","","","1","31","training","adjacent","DC","4","3","N.jpg","R.jpg","0","0","1","",""
"","feedback","","html-keyboard-response","212","372784","0.0-1.0-285.0-0.0","0","0","45880","","null","","","null","31","","","","","","","","","","","","","","","",""
"","ITI","","html-keyboard-response","213","373788","0.0-1.0-288.0","0","0","45880","","null","","","null","31","","","","","","","","","","","","","","","NaN",""
"","S1","","html-keyboard-response","214","374040","0.0-1.0-290.0","0","0","45880","","null","","","null","32","","","","","","","","","","","","","","","",""
"","ISI","","html-keyboard-response","215","376042","0.0-1.0-291.0","0","0","45880","","null","","","null","32","NaN","","","","","","","","","","","","","","",""
"","S2","","html-keyboard-response","216","376295","0.0-1.0-292.0","0","0","45880","","null","","","null","32","","NaN","","","","","","","","","","","","","",""
"","response","","html-keyboard-response","217","376942","0.0-1.0-293.0-0.0","0","0","45880","","646","","","68","32","","","1","32","training","adjacent","BC","2","3","L.jpg","R.jpg","1","1","1","",""
"","feedback","","html-keyboard-response","218","377945","0.0-1.0-294.0-0.0","0","0","45880","","null","","","null","32","","","","","","","","","","","","","","","",""
"","ITI","","html-keyboard-response","219","378948","0.0-1.0-297.0","0","0","45880","","null","","","null","32","","","","","","","","","","","","","","","NaN",""
"","S1","","html-keyboard-response","220","379201","0.0-1.0-299.0","0","0","45880","","null","","","null","33","","","","","","","","","","","","","","","",""
"","ISI","","html-keyboard-response","221","381203","0.0-1.0-300.0","0","0","45880","","null","","","null","33","NaN","","","","","","","","","","","","","","",""
"","S2","","html-keyboard-response","222","381456","0.0-1.0-301.0","0","0","45880","","null","","","null","33","","NaN","","","","","","","","","","","","","",""
"","response","","html-keyboard-response","223","382533","0.0-1.0-302.0-0.0","0","0","45880","","1076","","","75","33","","","1","33","training","adjacent","CD","3","4","R.jpg","N.jpg","0","1","0","",""
"","feedback","","html-keyboard-response","224","383536","0.0-1.0-303.0-0.0","0","0","45880","","null","","","null","33","","","","","","","","","","","","","","","",""
"","time_out","","html-keyboard-response","225","385539","0.0-1.0-305.0-0.0","0","0","45880","","null","","","null","33","","","","","","","","","","","","","","","",""
"","ITI","","html-keyboard-response","226","386541","0.0-1.0-306.0","0","0","45880","","null","","","null","33","","","","","","","","","","","","","","","NaN",""
"","S1","","html-keyboard-response","227","386793","0.0-1.0-308.0","0","0","45880","","null","","","null","34","","","","","","","","","","","","","","","",""
"","ISI","","html-keyboard-response","228","388796","0.0-1.0-309.0","0","0","45880","","null","","","null","34","NaN","","","","","","","","","","","","","","",""
"","S2","","html-keyboard-response","229","389048","0.0-1.0-310.0","0","0","45880","","null","","","null","34","","NaN","","","","","","","","","","","","","",""
"","response","","html-keyboard-response","230","389694","0.0-1.0-311.0-0.0","0","0","45880","","644","","","68","34","","","1","34","training","adjacent","BA","2","1","L.jpg","P.jpg","1","0","0","",""
"","feedback","","html-keyboard-response","231","390696","0.0-1.0-312.0-0.0","0","0","45880","","null","","","null","34","","","","","","","","","","","","","","","",""
"","time_out","","html-keyboard-response","232","392699","0.0-1.0-314.0-0.0","0","0","45880","","null","","","null","34","","","","","","","","","","","","","","","",""
"","ITI","","html-keyboard-response","233","393703","0.0-1.0-315.0","0","0","45880","","null","","","null","34","","","","","","","","","","","","","","","NaN",""
"","S1","","html-keyboard-response","234","393955","0.0-1.0-317.0","0","0","45880","","null","","","null","35","","","","","","","","","","","","","","","",""
"","ISI","","html-keyboard-response","235","395958","0.0-1.0-318.0","0","0","45880","","null","","","null","35","NaN","","","","","","","","","","","","","","",""
"","S2","","html-keyboard-response","236","396211","0.0-1.0-319.0","0","0","45880","","null","","","null","35","","NaN","","","","","","","","","","","","","",""
"","response","","html-keyboard-response","237","397246","0.0-1.0-320.0-0.0","0","0","45880","","1032","","","75","35","","","1","35","training","adjacent","CB","3","2","R.jpg","L.jpg","0","0","1","",""
"","feedback","","html-keyboard-response","238","398249","0.0-1.0-321.0-0.0","0","0","45880","","null","","","null","35","","","","","","","","","","","","","","","",""
"","ITI","","html-keyboard-response","239","399251","0.0-1.0-324.0","0","0","45880","","null","","","null","35","","","","","","","","","","","","","","","NaN",""
"","S1","","html-keyboard-response","240","399504","0.0-1.0-326.0","0","0","45880","","null","","","null","36","","","","","","","","","","","","","","","",""
"","ISI","","html-keyboard-response","241","401506","0.0-1.0-327.0","0","0","45880","","null","","","null","36","NaN","","","","","","","","","","","","","","",""
"","S2","","html-keyboard-response","242","401758","0.0-1.0-328.0","0","0","45880","","null","","","null","36","","NaN","","","","","","","","","","","","","",""
"","response","","html-keyboard-response","243","402406","0.0-1.0-329.0-0.0","0","0","45880","","646","","","75","36","","","1","36","training","adjacent","CB","3","2","R.jpg","L.jpg","0","0","1","",""
"","feedback","","html-keyboard-response","244","403408","0.0-1.0-330.0-0.0","0","0","45880","","null","","","null","36","","","","","","","","","","","","","","","",""
"","ITI","","html-keyboard-response","245","404412","0.0-1.0-333.0","0","0","45880","","null","","","null","36","","","","","","","","","","","","","","","NaN",""
"","S1","","html-keyboard-response","246","404663","0.0-1.0-335.0","0","0","45880","","null","","","null","37","","","","","","","","","","","","","","","",""
"","ISI","","html-keyboard-response","247","406666","0.0-1.0-336.0","0","0","45880","","null","","","null","37","NaN","","","","","","","","","","","","","","",""
"","S2","","html-keyboard-response","248","406918","0.0-1.0-337.0","0","0","45880","","null","","","null","37","","NaN","","","","","","","","","","","","","",""
"","response","","html-keyboard-response","249","407525","0.0-1.0-338.0-0.0","0","0","45880","","605","","","68","37","","","1","37","training","adjacent","FE","6","5","Q.jpg","M.jpg","1","0","0","",""
"","feedback","","html-keyboard-response","250","408528","0.0-1.0-339.0-0.0","0","0","45880","","null","","","null","37","","","","","","","","","","","","","","","",""
"","time_out","","html-keyboard-response","251","410530","0.0-1.0-341.0-0.0","0","0","45880","","null","","","null","37","","","","","","","","","","","","","","","",""
"","ITI","","html-keyboard-response","252","411532","0.0-1.0-342.0","0","0","45880","","null","","","null","37","","","","","","","","","","","","","","","NaN",""
"","S1","","html-keyboard-response","253","411784","0.0-1.0-344.0","0","0","45880","","null","","","null","38","","","","","","","","","","","","","","","",""
"","ISI","","html-keyboard-response","254","413786","0.0-1.0-345.0","0","0","45880","","null","","","null","38","NaN","","","","","","","","","","","","","","",""
"","S2","","html-keyboard-response","255","414039","0.0-1.0-346.0","0","0","45880","","null","","","null","38","","NaN","","","","","","","","","","","","","",""
"","response","","html-keyboard-response","256","414732","0.0-1.0-347.0-0.0","0","0","45880","","693","","","68","38","","","1","38","training","adjacent","FG","6","7","Q.jpg","O.jpg","1","1","1","",""
"","feedback","","html-keyboard-response","257","415734","0.0-1.0-348.0-0.0","0","0","45880","","null","","","null","38","","","","","","","","","","","","","","","",""
"","ITI","","html-keyboard-response","258","416737","0.0-1.0-351.0","0","0","45880","","null","","","null","38","","","","","","","","","","","","","","","NaN",""
"","S1","","html-keyboard-response","259","416989","0.0-1.0-353.0","0","0","45880","","null","","","null","39","","","","","","","","","","","","","","","",""
"","ISI","","html-keyboard-response","260","418991","0.0-1.0-354.0","0","0","45880","","null","","","null","39","NaN","","","","","","","","","","","","","","",""
"","S2","","html-keyboard-response","261","419244","0.0-1.0-355.0","0","0","45880","","null","","","null","39","","NaN","","","","","","","","","","","","","",""
"","response","","html-keyboard-response","262","419932","0.0-1.0-356.0-0.0","0","0","45880","","687","","","75","39","","","1","39","training","adjacent","DC","4","3","N.jpg","R.jpg","0","0","1","",""
"","feedback","","html-keyboard-response","263","420935","0.0-1.0-357.0-0.0","0","0","45880","","null","","","null","39","","","","","","","","","","","","","","","",""
"","ITI","","html-keyboard-response","264","421937","0.0-1.0-360.0","0","0","45880","","null","","","null","39","","","","","","","","","","","","","","","NaN",""
"","S1","","html-keyboard-response","265","422189","0.0-1.0-362.0","0","0","45880","","null","","","null","40","","","","","","","","","","","","","","","",""
"","ISI","","html-keyboard-response","266","424192","0.0-1.0-363.0","0","0","45880","","null","","","null","40","NaN","","","","","","","","","","","","","","",""
"","S2","","html-keyboard-response","267","424444","0.0-1.0-364.0","0","0","45880","","null","","","null","40","","NaN","","","","","","","","","","","","","",""
"","response","","html-keyboard-response","268","425061","0.0-1.0-365.0-0.0","0","0","45880","","615","","","68","40","","","1","40","training","adjacent","DE","4","5","N.jpg","M.jpg","1","1","1","",""
"","feedback","","html-keyboard-response","269","426064","0.0-1.0-366.0-0.0","0","0","45880","","null","","","null","40","","","","","","","","","","","","","","","",""
"","ITI","","html-keyboard-response","270","427067","0.0-1.0-369.0","0","0","45880","","null","","","null","40","","","","","","","","","","","","","","","NaN",""
"","S1","","html-keyboard-response","271","427320","0.0-1.0-371.0","0","0","45880","","null","","","null","41","","","","","","","","","","","","","","","",""
"","ISI","","html-keyboard-response","272","429322","0.0-1.0-372.0","0","0","45880","","null","","","null","41","NaN","","","","","","","","","","","","","","",""
"","S2","","html-keyboard-response","273","429575","0.0-1.0-373.0","0","0","45880","","null","","","null","41","","NaN","","","","","","","","","","","","","",""
"","response","","html-keyboard-response","274","430182","0.0-1.0-374.0-0.0","0","0","45880","","605","","","75","41","","","1","41","training","adjacent","EF","5","6","M.jpg","Q.jpg","0","1","0","",""
"","feedback","","html-keyboard-response","275","431184","0.0-1.0-375.0-0.0","0","0","45880","","null","","","null","41","","","","","","","","","","","","","","","",""
"","time_out","","html-keyboard-response","276","433187","0.0-1.0-377.0-0.0","0","0","45880","","null","","","null","41","","","","","","","","","","","","","","","",""
"","ITI","","html-keyboard-response","277","434189","0.0-1.0-378.0","0","0","45880","","null","","","null","41","","","","","","","","","","","","","","","NaN",""
"","S1","","html-keyboard-response","278","434442","0.0-1.0-380.0","0","0","45880","","null","","","null","42","","","","","","","","","","","","","","","",""
"","ISI","","html-keyboard-response","279","436443","0.0-1.0-381.0","0","0","45880","","null","","","null","42","NaN","","","","","","","","","","","","","","",""
"","S2","","html-keyboard-response","280","436697","0.0-1.0-382.0","0","0","45880","","null","","","null","42","","NaN","","","","","","","","","","","","","",""
"","response","","html-keyboard-response","281","436958","0.0-1.0-383.0-0.0","0","0","45880","","258","","","75","42","","","1","42","training","adjacent","AB","1","2","P.jpg","L.jpg","0","1","0","",""
"","feedback","","html-keyboard-response","282","437960","0.0-1.0-384.0-0.0","0","0","45880","","null","","","null","42","","","","","","","","","","","","","","","",""
"","time_out","","html-keyboard-response","283","439964","0.0-1.0-386.0-0.0","0","0","45880","","null","","","null","42","","","","","","","","","","","","","","","",""
"","ITI","","html-keyboard-response","284","440965","0.0-1.0-387.0","0","0","45880","","null","","","null","42","","","","","","","","","","","","","","","NaN",""
"","S1","","html-keyboard-response","285","441217","0.0-1.0-389.0","0","0","45880","","null","","","null","43","","","","","","","","","","","","","","","",""
"","ISI","","html-keyboard-response","286","443219","0.0-1.0-390.0","0","0","45880","","null","","","null","43","NaN","","","","","","","","","","","","","","",""
"","S2","","html-keyboard-response","287","443472","0.0-1.0-391.0","0","0","45880","","null","","","null","43","","NaN","","","","","","","","","","","","","",""
"","response","","html-keyboard-response","288","444077","0.0-1.0-392.0-0.0","0","0","45880","","603","","","75","43","","","1","43","training","adjacent","ED","5","4","M.jpg","N.jpg","0","0","1","",""
"","feedback","","html-keyboard-response","289","445080","0.0-1.0-393.0-0.0","0","0","45880","","null","","","null","43","","","","","","","","","","","","","","","",""
"","ITI","","html-keyboard-response","290","446083","0.0-1.0-396.0","0","0","45880","","null","","","null","43","","","","","","","","","","","","","","","NaN",""
"","S1","","html-keyboard-response","291","446335","0.0-1.0-398.0","0","0","45880","","null","","","null","44","","","","","","","","","","","","","","","",""
"","ISI","","html-keyboard-response","292","448338","0.0-1.0-399.0","0","0","45880","","null","","","null","44","NaN","","","","","","","","","","","","","","",""
"","S2","","html-keyboard-response","293","448591","0.0-1.0-400.0","0","0","45880","","null","","","null","44","","NaN","","","","","","","","","","","","","",""
"","response","","html-keyboard-response","294","449302","0.0-1.0-401.0-0.0","0","0","45880","","710","","","75","44","","","1","44","training","adjacent","BC","2","3","L.jpg","R.jpg","0","1","0","",""
"","feedback","","html-keyboard-response","295","450304","0.0-1.0-402.0-0.0","0","0","45880","","null","","","null","44","","","","","","","","","","","","","","","",""
"","time_out","","html-keyboard-response","296","452307","0.0-1.0-404.0-0.0","0","0","45880","","null","","","null","44","","","","","","","","","","","","","","","",""
"","ITI","","html-keyboard-response","297","453310","0.0-1.0-405.0","0","0","45880","","null","","","null","44","","","","","","","","","","","","","","","NaN",""
"","S1","","html-keyboard-response","298","453563","0.0-1.0-407.0","0","0","45880","","null","","","null","45","","","","","","","","","","","","","","","",""
"","ISI","","html-keyboard-response","299","455564","0.0-1.0-408.0","0","0","45880","","null","","","null","45","NaN","","","","","","","","","","","","","","",""
"","S2","","html-keyboard-response","300","455816","0.0-1.0-409.0","0","0","45880","","null","","","null","45","","NaN","","","","","","","","","","","","","",""
"","response","","html-keyboard-response","301","457229","0.0-1.0-410.0-0.0","0","0","45880","","1411","","","68","45","","","1","45","training","adjacent","FE","6","5","Q.jpg","M.jpg","1","0","0","",""
"","feedback","","html-keyboard-response","302","458232","0.0-1.0-411.0-0.0","0","0","45880","","null","","","null","45","","","","","","","","","","","","","","","",""
"","time_out","","html-keyboard-response","303","460234","0.0-1.0-413.0-0.0","0","0","45880","","null","","","null","45","","","","","","","","","","","","","","","",""
"","ITI","","html-keyboard-response","304","461237","0.0-1.0-414.0","0","0","45880","","null","","","null","45","","","","","","","","","","","","","","","NaN",""
"","S1","","html-keyboard-response","305","461490","0.0-1.0-416.0","0","0","45880","","null","","","null","46","","","","","","","","","","","","","","","",""
"","ISI","","html-keyboard-response","306","463492","0.0-1.0-417.0","0","0","45880","","null","","","null","46","NaN","","","","","","","","","","","","","","",""
"","S2","","html-keyboard-response","307","463745","0.0-1.0-418.0","0","0","45880","","null","","","null","46","","NaN","","","","","","","","","","","","","",""
"","response","","html-keyboard-response","308","464030","0.0-1.0-419.0-0.0","0","0","45880","","282","","","68","46","","","1","46","training","adjacent","FG","6","7","Q.jpg","O.jpg","1","1","1","",""
"","feedback","","html-keyboard-response","309","465033","0.0-1.0-420.0-0.0","0","0","45880","","null","","","null","46","","","","","","","","","","","","","","","",""
"","ITI","","html-keyboard-response","310","466035","0.0-1.0-423.0","0","0","45880","","null","","","null","46","","","","","","","","","","","","","","","NaN",""
"","S1","","html-keyboard-response","311","466288","0.0-1.0-425.0","0","0","45880","","null","","","null","47","","","","","","","","","","","","","","","",""
"","ISI","","html-keyboard-response","312","468290","0.0-1.0-426.0","0","0","45880","","null","","","null","47","NaN","","","","","","","","","","","","","","",""
"","S2","","html-keyboard-response","313","468543","0.0-1.0-427.0","0","0","45880","","null","","","null","47","","NaN","","","","","","","","","","","","","",""
"","response","","html-keyboard-response","314","469212","0.0-1.0-428.0-0.0","0","0","45880","","668","","","75","47","","","1","47","training","adjacent","BA","2","1","L.jpg","P.jpg","0","0","1","",""
"","feedback","","html-keyboard-response","315","470215","0.0-1.0-429.0-0.0","0","0","45880","","null","","","null","47","","","","","","","","","","","","","","","",""
"","ITI","","html-keyboard-response","316","471218","0.0-1.0-432.0","0","0","45880","","null","","","null","47","","","","","","","","","","","","","","","NaN",""
"","block_over","","html-keyboard-response","317","512893","0.0-1.0-433.0-0.0","0","0","45880","","41673","","","32","47","","","","","","","","","","","","","","","",""
"","S1","","html-keyboard-response","318","513145","0.0-1.0-434.0","0","0","45880","","null","","","null","48","","","","","","","","","","","","","","","",""
"","ISI","","html-keyboard-response","319","515148","0.0-1.0-435.0","0","0","45880","","null","","","null","48","NaN","","","","","","","","","","","","","","",""
"","S2","","html-keyboard-response","320","515400","0.0-1.0-436.0","0","0","45880","","null","","","null","48","","NaN","","","","","","","","","","","","","",""
"","response","","html-keyboard-response","321","516797","0.0-1.0-437.0-0.0","0","0","45880","","1396","","","68","48","","","2","48","training","adjacent","DC","4","3","N.jpg","R.jpg","1","0","0","",""
"","feedback","","html-keyboard-response","322","517800","0.0-1.0-438.0-0.0","0","0","45880","","null","","","null","48","","","","","","","","","","","","","","","",""
"","time_out","","html-keyboard-response","323","519802","0.0-1.0-440.0-0.0","0","0","45880","","null","","","null","48","","","","","","","","","","","","","","","",""
"","ITI","","html-keyboard-response","324","520804","0.0-1.0-441.0","0","0","45880","","null","","","null","48","","","","","","","","","","","","","","","NaN",""
"","S1","","html-keyboard-response","325","521057","0.0-1.0-443.0","0","0","45880","","null","","","null","49","","","","","","","","","","","","","","","",""
"","ISI","","html-keyboard-response","326","523059","0.0-1.0-444.0","0","0","45880","","null","","","null","49","NaN","","","","","","","","","","","","","","",""
"","S2","","html-keyboard-response","327","523312","0.0-1.0-445.0","0","0","45880","","null","","","null","49","","NaN","","","","","","","","","","","","","",""
"","response","","html-keyboard-response","328","523932","0.0-1.0-446.0-0.0","0","0","45880","","620","","","75","49","","","2","49","training","adjacent","GF","7","6","O.jpg","Q.jpg","0","0","1","",""
"","feedback","","html-keyboard-response","329","524934","0.0-1.0-447.0-0.0","0","0","45880","","null","","","null","49","","","","","","","","","","","","","","","",""
"","ITI","","html-keyboard-response","330","525937","0.0-1.0-450.0","0","0","45880","","null","","","null","49","","","","","","","","","","","","","","","NaN",""
"","S1","","html-keyboard-response","331","526189","0.0-1.0-452.0","0","0","45880","","null","","","null","50","","","","","","","","","","","","","","","",""
"","ISI","","html-keyboard-response","332","528191","0.0-1.0-453.0","0","0","45880","","null","","","null","50","NaN","","","","","","","","","","","","","","",""
"","S2","","html-keyboard-response","333","528445","0.0-1.0-454.0","0","0","45880","","null","","","null","50","","NaN","","","","","","","","","","","","","",""
"","response","","html-keyboard-response","334","528878","0.0-1.0-455.0-0.0","0","0","45880","","430","","","68","50","","","2","50","training","adjacent","CD","3","4","R.jpg","N.jpg","1","1","1","",""
"","feedback","","html-keyboard-response","335","529880","0.0-1.0-456.0-0.0","0","0","45880","","null","","","null","50","","","","","","","","","","","","","","","",""
"","ITI","","html-keyboard-response","336","530883","0.0-1.0-459.0","0","0","45880","","null","","","null","50","","","","","","","","","","","","","","","NaN",""
"","S1","","html-keyboard-response","337","531135","0.0-1.0-461.0","0","0","45880","","null","","","null","51","","","","","","","","","","","","","","","",""
"","ISI","","html-keyboard-response","338","533137","0.0-1.0-462.0","0","0","45880","","null","","","null","51","NaN","","","","","","","","","","","","","","",""
"","S2","","html-keyboard-response","339","533390","0.0-1.0-463.0","0","0","45880","","null","","","null","51","","NaN","","","","","","","","","","","","","",""
"","response","","html-keyboard-response","340","534918","0.0-1.0-464.0-0.0","0","0","45880","","1527","","","75","51","","","2","51","training","adjacent","BC","2","3","L.jpg","R.jpg","0","1","0","",""
"","feedback","","html-keyboard-response","341","535920","0.0-1.0-465.0-0.0","0","0","45880","","null","","","null","51","","","","","","","","","","","","","","","",""
"","time_out","","html-keyboard-response","342","537923","0.0-1.0-467.0-0.0","0","0","45880","","null","","","null","51","","","","","","","","","","","","","","","",""
"","ITI","","html-keyboard-response","343","538925","0.0-1.0-468.0","0","0","45880","","null","","","null","51","","","","","","","","","","","","","","","NaN",""
"","S1","","html-keyboard-response","344","539179","0.0-1.0-470.0","0","0","45880","","null","","","null","52","","","","","","","","","","","","","","","",""
"","ISI","","html-keyboard-response","345","541180","0.0-1.0-471.0","0","0","45880","","null","","","null","52","NaN","","","","","","","","","","","","","","",""
"","S2","","html-keyboard-response","346","541433","0.0-1.0-472.0","0","0","45880","","null","","","null","52","","NaN","","","","","","","","","","","","","",""
"","response","","html-keyboard-response","347","541973","0.0-1.0-473.0-0.0","0","0","45880","","538","","","68","52","","","2","52","training","adjacent","FG","6","7","Q.jpg","O.jpg","1","1","1","",""
"","feedback","","html-keyboard-response","348","542977","0.0-1.0-474.0-0.0","0","0","45880","","null","","","null","52","","","","","","","","","","","","","","","",""
"","ITI","","html-keyboard-response","349","543980","0.0-1.0-477.0","0","0","45880","","null","","","null","52","","","","","","","","","","","","","","","NaN",""
"","S1","","html-keyboard-response","350","544232","0.0-1.0-479.0","0","0","45880","","null","","","null","53","","","","","","","","","","","","","","","",""
"","ISI","","html-keyboard-response","351","546235","0.0-1.0-480.0","0","0","45880","","null","","","null","53","NaN","","","","","","","","","","","","","","",""
"","S2","","html-keyboard-response","352","546488","0.0-1.0-481.0","0","0","45880","","null","","","null","53","","NaN","","","","","","","","","","","","","",""
"","response","","html-keyboard-response","353","547013","0.0-1.0-482.0-0.0","0","0","45880","","524","","","75","53","","","2","53","training","adjacent","ED","5","4","M.jpg","N.jpg","0","0","1","",""
"","feedback","","html-keyboard-response","354","548015","0.0-1.0-483.0-0.0","0","0","45880","","null","","","null","53","","","","","","","","","","","","","","","",""
"","ITI","","html-keyboard-response","355","549017","0.0-1.0-486.0","0","0","45880","","null","","","null","53","","","","","","","","","","","","","","","NaN",""
"","S1","","html-keyboard-response","356","549270","0.0-1.0-488.0","0","0","45880","","null","","","null","54","","","","","","","","","","","","","","","",""
"","ISI","","html-keyboard-response","357","551273","0.0-1.0-489.0","0","0","45880","","null","","","null","54","NaN","","","","","","","","","","","","","","",""
"","S2","","html-keyboard-response","358","551526","0.0-1.0-490.0","0","0","45880","","null","","","null","54","","NaN","","","","","","","","","","","","","",""
"","response","","html-keyboard-response","359","552038","0.0-1.0-491.0-0.0","0","0","45880","","510","","","68","54","","","2","54","training","adjacent","AB","1","2","P.jpg","L.jpg","1","1","1","",""
"","feedback","","html-keyboard-response","360","553041","0.0-1.0-492.0-0.0","0","0","45880","","null","","","null","54","","","","","","","","","","","","","","","",""
"","ITI","","html-keyboard-response","361","554043","0.0-1.0-495.0","0","0","45880","","null","","","null","54","","","","","","","","","","","","","","","NaN",""
"","S1","","html-keyboard-response","362","554296","0.0-1.0-497.0","0","0","45880","","null","","","null","55","","","","","","","","","","","","","","","",""
"","ISI","","html-keyboard-response","363","556298","0.0-1.0-498.0","0","0","45880","","null","","","null","55","NaN","","","","","","","","","","","","","","",""
"","S2","","html-keyboard-response","364","556550","0.0-1.0-499.0","0","0","45880","","null","","","null","55","","NaN","","","","","","","","","","","","","",""
"","response","","html-keyboard-response","365","557590","0.0-1.0-500.0-0.0","0","0","45880","","1038","","","68","55","","","2","55","training","adjacent","CD","3","4","R.jpg","N.jpg","1","1","1","",""
"","feedback","","html-keyboard-response","366","558593","0.0-1.0-501.0-0.0","0","0","45880","","null","","","null","55","","","","","","","","","","","","","","","",""
"","ITI","","html-keyboard-response","367","559596","0.0-1.0-504.0","0","0","45880","","null","","","null","55","","","","","","","","","","","","","","","NaN",""
"","S1","","html-keyboard-response","368","559848","0.0-1.0-506.0","0","0","45880","","null","","","null","56","","","","","","","","","","","","","","","",""
"","ISI","","html-keyboard-response","369","561852","0.0-1.0-507.0","0","0","45880","","null","","","null","56","NaN","","","","","","","","","","","","","","",""
"","S2","","html-keyboard-response","370","562104","0.0-1.0-508.0","0","0","45880","","null","","","null","56","","NaN","","","","","","","","","","","","","",""
"","response","","html-keyboard-response","371","562949","0.0-1.0-509.0-0.0","0","0","45880","","843","","","68","56","","","2","56","training","adjacent","DE","4","5","N.jpg","M.jpg","1","1","1","",""
"","feedback","","html-keyboard-response","372","563952","0.0-1.0-510.0-0.0","0","0","45880","","null","","","null","56","","","","","","","","","","","","","","","",""
"","ITI","","html-keyboard-response","373","564955","0.0-1.0-513.0","0","0","45880","","null","","","null","56","","","","","","","","","","","","","","","NaN",""
"","S1","","html-keyboard-response","374","565208","0.0-1.0-515.0","0","0","45880","","null","","","null","57","","","","","","","","","","","","","","","",""
"","ISI","","html-keyboard-response","375","567211","0.0-1.0-516.0","0","0","45880","","null","","","null","57","NaN","","","","","","","","","","","","","","",""
"","S2","","html-keyboard-response","376","567464","0.0-1.0-517.0","0","0","45880","","null","","","null","57","","NaN","","","","","","","","","","","","","",""
"","response","","html-keyboard-response","377","569086","0.0-1.0-518.0-0.0","0","0","45880","","1620","","","68","57","","","2","57","training","adjacent","DC","4","3","N.jpg","R.jpg","1","0","0","",""
"","feedback","","html-keyboard-response","378","570088","0.0-1.0-519.0-0.0","0","0","45880","","null","","","null","57","","","","","","","","","","","","","","","",""
"","time_out","","html-keyboard-response","379","572090","0.0-1.0-521.0-0.0","0","0","45880","","null","","","null","57","","","","","","","","","","","","","","","",""
"","ITI","","html-keyboard-response","380","573093","0.0-1.0-522.0","0","0","45880","","null","","","null","57","","","","","","","","","","","","","","","NaN",""
"","S1","","html-keyboard-response","381","573346","0.0-1.0-524.0","0","0","45880","","null","","","null","58","","","","","","","","","","","","","","","",""
"","ISI","","html-keyboard-response","382","575348","0.0-1.0-525.0","0","0","45880","","null","","","null","58","NaN","","","","","","","","","","","","","","",""
"","S2","","html-keyboard-response","383","575601","0.0-1.0-526.0","0","0","45880","","null","","","null","58","","NaN","","","","","","","","","","","","","",""
"","response","","html-keyboard-response","384","576142","0.0-1.0-527.0-0.0","0","0","45880","","539","","","75","58","","","2","58","training","adjacent","ED","5","4","M.jpg","N.jpg","0","0","1","",""
"","feedback","","html-keyboard-response","385","577144","0.0-1.0-528.0-0.0","0","0","45880","","null","","","null","58","","","","","","","","","","","","","","","",""
"","ITI","","html-keyboard-response","386","578148","0.0-1.0-531.0","0","0","45880","","null","","","null","58","","","","","","","","","","","","","","","NaN",""
"","S1","","html-keyboard-response","387","578400","0.0-1.0-533.0","0","0","45880","","null","","","null","59","","","","","","","","","","","","","","","",""
"","ISI","","html-keyboard-response","388","580403","0.0-1.0-534.0","0","0","45880","","null","","","null","59","NaN","","","","","","","","","","","","","","",""
"","S2","","html-keyboard-response","389","580655","0.0-1.0-535.0","0","0","45880","","null","","","null","59","","NaN","","","","","","","","","","","","","",""
"","response","","html-keyboard-response","390","581558","0.0-1.0-536.0-0.0","0","0","45880","","902","","","68","59","","","2","59","training","adjacent","AB","1","2","P.jpg","L.jpg","1","1","1","",""
"","feedback","","html-keyboard-response","391","582562","0.0-1.0-537.0-0.0","0","0","45880","","null","","","null","59","","","","","","","","","","","","","","","",""
"","ITI","","html-keyboard-response","392","583564","0.0-1.0-540.0","0","0","45880","","null","","","null","59","","","","","","","","","","","","","","","NaN",""
"","S1","","html-keyboard-response","393","583816","0.0-1.0-542.0","0","0","45880","","null","","","null","60","","","","","","","","","","","","","","","",""
"","ISI","","html-keyboard-response","394","585818","0.0-1.0-543.0","0","0","45880","","null","","","null","60","NaN","","","","","","","","","","","","","","",""
"","S2","","html-keyboard-response","395","586071","0.0-1.0-544.0","0","0","45880","","null","","","null","60","","NaN","","","","","","","","","","","","","",""
"","response","","html-keyboard-response","396","586573","0.0-1.0-545.0-0.0","0","0","45880","","500","","","68","60","","","2","60","training","adjacent","FG","6","7","Q.jpg","O.jpg","1","1","1","",""
"","feedback","","html-keyboard-response","397","587576","0.0-1.0-546.0-0.0","0","0","45880","","null","","","null","60","","","","","","","","","","","","","","","",""
"","ITI","","html-keyboard-response","398","588578","0.0-1.0-549.0","0","0","45880","","null","","","null","60","","","","","","","","","","","","","","","NaN",""
"","S1","","html-keyboard-response","399","588831","0.0-1.0-551.0","0","0","45880","","null","","","null","61","","","","","","","","","","","","","","","",""
"","ISI","","html-keyboard-response","400","590833","0.0-1.0-552.0","0","0","45880","","null","","","null","61","NaN","","","","","","","","","","","","","","",""
"","S2","","html-keyboard-response","401","591086","0.0-1.0-553.0","0","0","45880","","null","","","null","61","","NaN","","","","","","","","","","","","","",""
"","response","","html-keyboard-response","402","592246","0.0-1.0-554.0-0.0","0","0","45880","","1159","","","75","61","","","2","61","training","adjacent","CB","3","2","R.jpg","L.jpg","0","0","1","",""
"","feedback","","html-keyboard-response","403","593249","0.0-1.0-555.0-0.0","0","0","45880","","null","","","null","61","","","","","","","","","","","","","","","",""
"","ITI","","html-keyboard-response","404","594252","0.0-1.0-558.0","0","0","45880","","null","","","null","61","","","","","","","","","","","","","","","NaN",""
"","S1","","html-keyboard-response","405","594505","0.0-1.0-560.0","0","0","45880","","null","","","null","62","","","","","","","","","","","","","","","",""
"","ISI","","html-keyboard-response","406","596508","0.0-1.0-561.0","0","0","45880","","null","","","null","62","NaN","","","","","","","","","","","","","","",""
"","S2","","html-keyboard-response","407","596761","0.0-1.0-562.0","0","0","45880","","null","","","null","62","","NaN","","","","","","","","","","","","","",""
"","response","","html-keyboard-response","408","598094","0.0-1.0-563.0-0.0","0","0","45880","","1330","","","75","62","","","2","62","training","adjacent","CB","3","2","R.jpg","L.jpg","0","0","1","",""
"","feedback","","html-keyboard-response","409","599098","0.0-1.0-564.0-0.0","0","0","45880","","null","","","null","62","","","","","","","","","","","","","","","",""
"","ITI","","html-keyboard-response","410","600100","0.0-1.0-567.0","0","0","45880","","null","","","null","62","","","","","","","","","","","","","","","NaN",""
"","S1","","html-keyboard-response","411","600353","0.0-1.0-569.0","0","0","45880","","null","","","null","63","","","","","","","","","","","","","","","",""
"","ISI","","html-keyboard-response","412","602355","0.0-1.0-570.0","0","0","45880","","null","","","null","63","NaN","","","","","","","","","","","","","","",""
"","S2","","html-keyboard-response","413","602608","0.0-1.0-571.0","0","0","45880","","null","","","null","63","","NaN","","","","","","","","","","","","","",""
"","response","","html-keyboard-response","414","603110","0.0-1.0-572.0-0.0","0","0","45880","","500","","","68","63","","","2","63","training","adjacent","AB","1","2","P.jpg","L.jpg","1","1","1","",""
"","feedback","","html-keyboard-response","415","604113","0.0-1.0-573.0-0.0","0","0","45880","","null","","","null","63","","","","","","","","","","","","","","","",""
"","ITI","","html-keyboard-response","416","605116","0.0-1.0-576.0","0","0","45880","","null","","","null","63","","","","","","","","","","","","","","","NaN",""
"","S1","","html-keyboard-response","417","605368","0.0-1.0-578.0","0","0","45880","","null","","","null","64","","","","","","","","","","","","","","","",""
"","ISI","","html-keyboard-response","418","607370","0.0-1.0-579.0","0","0","45880","","null","","","null","64","NaN","","","","","","","","","","","","","","",""
"","S2","","html-keyboard-response","419","607623","0.0-1.0-580.0","0","0","45880","","null","","","null","64","","NaN","","","","","","","","","","","","","",""
"","response","","html-keyboard-response","420","608629","0.0-1.0-581.0-0.0","0","0","45880","","1004","","","75","64","","","2","64","training","adjacent","CB","3","2","R.jpg","L.jpg","0","0","1","",""
"","feedback","","html-keyboard-response","421","609633","0.0-1.0-582.0-0.0","0","0","45880","","null","","","null","64","","","","","","","","","","","","","","","",""
"","ITI","","html-keyboard-response","422","610636","0.0-1.0-585.0","0","0","45880","","null","","","null","64","","","","","","","","","","","","","","","NaN",""
"","S1","","html-keyboard-response","423","610890","0.0-1.0-587.0","0","0","45880","","null","","","null","65","","","","","","","","","","","","","","","",""
"","ISI","","html-keyboard-response","424","612893","0.0-1.0-588.0","0","0","45880","","null","","","null","65","NaN","","","","","","","","","","","","","","",""
"","S2","","html-keyboard-response","425","613146","0.0-1.0-589.0","0","0","45880","","null","","","null","65","","NaN","","","","","","","","","","","","","",""
"","response","","html-keyboard-response","426","614422","0.0-1.0-590.0-0.0","0","0","45880","","1273","","","75","65","","","2","65","training","adjacent","BA","2","1","L.jpg","P.jpg","0","0","1","",""
"","feedback","","html-keyboard-response","427","615424","0.0-1.0-591.0-0.0","0","0","45880","","null","","","null","65","","","","","","","","","","","","","","","",""
"","ITI","","html-keyboard-response","428","616428","0.0-1.0-594.0","0","0","45880","","null","","","null","65","","","","","","","","","","","","","","","NaN",""
"","S1","","html-keyboard-response","429","616680","0.0-1.0-596.0","0","0","45880","","null","","","null","66","","","","","","","","","","","","","","","",""
"","ISI","","html-keyboard-response","430","618682","0.0-1.0-597.0","0","0","45880","","null","","","null","66","NaN","","","","","","","","","","","","","","",""
"","S2","","html-keyboard-response","431","618935","0.0-1.0-598.0","0","0","45880","","null","","","null","66","","NaN","","","","","","","","","","","","","",""
"","response","","html-keyboard-response","432","619486","0.0-1.0-599.0-0.0","0","0","45880","","550","","","68","66","","","2","66","training","adjacent","DE","4","5","N.jpg","M.jpg","1","1","1","",""
"","feedback","","html-keyboard-response","433","620489","0.0-1.0-600.0-0.0","0","0","45880","","null","","","null","66","","","","","","","","","","","","","","","",""
"","ITI","","html-keyboard-response","434","621490","0.0-1.0-603.0","0","0","45880","","null","","","null","66","","","","","","","","","","","","","","","NaN",""
"","S1","","html-keyboard-response","435","621742","0.0-1.0-605.0","0","0","45880","","null","","","null","67","","","","","","","","","","","","","","","",""
"","ISI","","html-keyboard-response","436","623744","0.0-1.0-606.0","0","0","45880","","null","","","null","67","NaN","","","","","","","","","","","","","","",""
"","S2","","html-keyboard-response","437","623997","0.0-1.0-607.0","0","0","45880","","null","","","null","67","","NaN","","","","","","","","","","","","","",""
"","response","","html-keyboard-response","438","624574","0.0-1.0-608.0-0.0","0","0","45880","","575","","","68","67","","","2","67","training","adjacent","FE","6","5","Q.jpg","M.jpg","1","0","0","",""
"","feedback","","html-keyboard-response","439","625577","0.0-1.0-609.0-0.0","0","0","45880","","null","","","null","67","","","","","","","","","","","","","","","",""
"","time_out","","html-keyboard-response","440","627579","0.0-1.0-611.0-0.0","0","0","45880","","null","","","null","67","","","","","","","","","","","","","","","",""
"","ITI","","html-keyboard-response","441","628582","0.0-1.0-612.0","0","0","45880","","null","","","null","67","","","","","","","","","","","","","","","NaN",""
"","S1","","html-keyboard-response","442","628834","0.0-1.0-614.0","0","0","45880","","null","","","null","68","","","","","","","","","","","","","","","",""
"","ISI","","html-keyboard-response","443","630836","0.0-1.0-615.0","0","0","45880","","null","","","null","68","NaN","","","","","","","","","","","","","","",""
"","S2","","html-keyboard-response","444","631089","0.0-1.0-616.0","0","0","45880","","null","","","null","68","","NaN","","","","","","","","","","","","","",""
"","response","","html-keyboard-response","445","631726","0.0-1.0-617.0-0.0","0","0","45880","","634","","","75","68","","","2","68","training","adjacent","ED","5","4","M.jpg","N.jpg","0","0","1","",""
"","feedback","","html-keyboard-response","446","632729","0.0-1.0-618.0-0.0","0","0","45880","","null","","","null","68","","","","","","","","","","","","","","","",""
"","ITI","","html-keyboard-response","447","633731","0.0-1.0-621.0","0","0","45880","","null","","","null","68","","","","","","","","","","","","","","","NaN",""
"","S1","","html-keyboard-response","448","633984","0.0-1.0-623.0","0","0","45880","","null","","","null","69","","","","","","","","","","","","","","","",""
"","ISI","","html-keyboard-response","449","635988","0.0-1.0-624.0","0","0","45880","","null","","","null","69","NaN","","","","","","","","","","","","","","",""
"","S2","","html-keyboard-response","450","636240","0.0-1.0-625.0","0","0","45880","","null","","","null","69","","NaN","","","","","","","","","","","","","",""
"","response","","html-keyboard-response","451","637957","0.0-1.0-626.0-0.0","0","0","45880","","1715","","","68","69","","","2","69","training","adjacent","BC","2","3","L.jpg","R.jpg","1","1","1","",""
"","feedback","","html-keyboard-response","452","638961","0.0-1.0-627.0-0.0","0","0","45880","","null","","","null","69","","","","","","","","","","","","","","","",""
"","ITI","","html-keyboard-response","453","639964","0.0-1.0-630.0","0","0","45880","","null","","","null","69","","","","","","","","","","","","","","","NaN",""
"","S1","","html-keyboard-response","454","640216","0.0-1.0-632.0","0","0","45880","","null","","","null","70","","","","","","","","","","","","","","","",""
"","ISI","","html-keyboard-response","455","642219","0.0-1.0-633.0","0","0","45880","","null","","","null","70","NaN","","","","","","","","","","","","","","",""
"","S2","","html-keyboard-response","456","642472","0.0-1.0-634.0","0","0","45880","","null","","","null","70","","NaN","","","","","","","","","","","","","",""
"","response","","html-keyboard-response","457","642742","0.0-1.0-635.0-0.0","0","0","45880","","268","","","68","70","","","2","70","training","adjacent","CD","3","4","R.jpg","N.jpg","1","1","1","",""
"","feedback","","html-keyboard-response","458","643744","0.0-1.0-636.0-0.0","0","0","45880","","null","","","null","70","","","","","","","","","","","","","","","",""
"","ITI","","html-keyboard-response","459","644747","0.0-1.0-639.0","0","0","45880","","null","","","null","70","","","","","","","","","","","","","","","NaN",""
"","S1","","html-keyboard-response","460","645000","0.0-1.0-641.0","0","0","45880","","null","","","null","71","","","","","","","","","","","","","","","",""
"","ISI","","html-keyboard-response","461","647002","0.0-1.0-642.0","0","0","45880","","null","","","null","71","NaN","","","","","","","","","","","","","","",""
"","S2","","html-keyboard-response","462","647255","0.0-1.0-643.0","0","0","45880","","null","","","null","71","","NaN","","","","","","","","","","","","","",""
"","response","","html-keyboard-response","463","647709","0.0-1.0-644.0-0.0","0","0","45880","","452","","","68","71","","","2","71","training","adjacent","EF","5","6","M.jpg","Q.jpg","1","1","1","",""
"","feedback","","html-keyboard-response","464","648713","0.0-1.0-645.0-0.0","0","0","45880","","null","","","null","71","","","","","","","","","","","","","","","",""
"","ITI","","html-keyboard-response","465","649715","0.0-1.0-648.0","0","0","45880","","null","","","null","71","","","","","","","","","","","","","","","NaN",""
"","S1","","html-keyboard-response","466","649967","0.0-1.0-650.0","0","0","45880","","null","","","null","72","","","","","","","","","","","","","","","",""
"","ISI","","html-keyboard-response","467","651970","0.0-1.0-651.0","0","0","45880","","null","","","null","72","NaN","","","","","","","","","","","","","","",""
"","S2","","html-keyboard-response","468","652223","0.0-1.0-652.0","0","0","45880","","null","","","null","72","","NaN","","","","","","","","","","","","","",""
"","response","","html-keyboard-response","469","652614","0.0-1.0-653.0-0.0","0","0","45880","","390","","","75","72","","","2","72","training","adjacent","GF","7","6","O.jpg","Q.jpg","0","0","1","",""
"","feedback","","html-keyboard-response","470","653617","0.0-1.0-654.0-0.0","0","0","45880","","null","","","null","72","","","","","","","","","","","","","","","",""
"","ITI","","html-keyboard-response","471","654620","0.0-1.0-657.0","0","0","45880","","null","","","null","72","","","","","","","","","","","","","","","NaN",""
"","S1","","html-keyboard-response","472","654873","0.0-1.0-659.0","0","0","45880","","null","","","null","73","","","","","","","","","","","","","","","",""
"","ISI","","html-keyboard-response","473","656875","0.0-1.0-660.0","0","0","45880","","null","","","null","73","NaN","","","","","","","","","","","","","","",""
"","S2","","html-keyboard-response","474","657128","0.0-1.0-661.0","0","0","45880","","null","","","null","73","","NaN","","","","","","","","","","","","","",""
"","response","","html-keyboard-response","475","657357","0.0-1.0-662.0-0.0","0","0","45880","","227","","","75","73","","","2","73","training","adjacent","FE","6","5","Q.jpg","M.jpg","0","0","1","",""
"","feedback","","html-keyboard-response","476","658360","0.0-1.0-663.0-0.0","0","0","45880","","null","","","null","73","","","","","","","","","","","","","","","",""
"","ITI","","html-keyboard-response","477","659363","0.0-1.0-666.0","0","0","45880","","null","","","null","73","","","","","","","","","","","","","","","NaN",""
"","S1","","html-keyboard-response","478","659616","0.0-1.0-668.0","0","0","45880","","null","","","null","74","","","","","","","","","","","","","","","",""
"","ISI","","html-keyboard-response","479","661619","0.0-1.0-669.0","0","0","45880","","null","","","null","74","NaN","","","","","","","","","","","","","","",""
"","S2","","html-keyboard-response","480","661871","0.0-1.0-670.0","0","0","45880","","null","","","null","74","","NaN","","","","","","","","","","","","","",""
"","response","","html-keyboard-response","481","663293","0.0-1.0-671.0-0.0","0","0","45880","","1420","","","68","74","","","2","74","training","adjacent","EF","5","6","M.jpg","Q.jpg","1","1","1","",""
"","feedback","","html-keyboard-response","482","664295","0.0-1.0-672.0-0.0","0","0","45880","","null","","","null","74","","","","","","","","","","","","","","","",""
"","ITI","","html-keyboard-response","483","665298","0.0-1.0-675.0","0","0","45880","","null","","","null","74","","","","","","","","","","","","","","","NaN",""
"","S1","","html-keyboard-response","484","665551","0.0-1.0-677.0","0","0","45880","","null","","","null","75","","","","","","","","","","","","","","","",""
"","ISI","","html-keyboard-response","485","667553","0.0-1.0-678.0","0","0","45880","","null","","","null","75","NaN","","","","","","","","","","","","","","",""
"","S2","","html-keyboard-response","486","667806","0.0-1.0-679.0","0","0","45880","","null","","","null","75","","NaN","","","","","","","","","","","","","",""
"","response","","html-keyboard-response","487","668893","0.0-1.0-680.0-0.0","0","0","45880","","1085","","","75","75","","","2","75","training","adjacent","GF","7","6","O.jpg","Q.jpg","0","0","1","",""
"","feedback","","html-keyboard-response","488","669897","0.0-1.0-681.0-0.0","0","0","45880","","null","","","null","75","","","","","","","","","","","","","","","",""
"","ITI","","html-keyboard-response","489","670899","0.0-1.0-684.0","0","0","45880","","null","","","null","75","","","","","","","","","","","","","","","NaN",""
"","S1","","html-keyboard-response","490","671151","0.0-1.0-686.0","0","0","45880","","null","","","null","76","","","","","","","","","","","","","","","",""
"","ISI","","html-keyboard-response","491","673154","0.0-1.0-687.0","0","0","45880","","null","","","null","76","NaN","","","","","","","","","","","","","","",""
"","S2","","html-keyboard-response","492","673408","0.0-1.0-688.0","0","0","45880","","null","","","null","76","","NaN","","","","","","","","","","","","","",""
"","response","","html-keyboard-response","493","674190","0.0-1.0-689.0-0.0","0","0","45880","","781","","","68","76","","","2","76","training","adjacent","FG","6","7","Q.jpg","O.jpg","1","1","1","",""
"","feedback","","html-keyboard-response","494","675193","0.0-1.0-690.0-0.0","0","0","45880","","null","","","null","76","","","","","","","","","","","","","","","",""
"","ITI","","html-keyboard-response","495","676195","0.0-1.0-693.0","0","0","45880","","null","","","null","76","","","","","","","","","","","","","","","NaN",""
"","S1","","html-keyboard-response","496","676448","0.0-1.0-695.0","0","0","45880","","null","","","null","77","","","","","","","","","","","","","","","",""
"","ISI","","html-keyboard-response","497","678450","0.0-1.0-696.0","0","0","45880","","null","","","null","77","NaN","","","","","","","","","","","","","","",""
"","S2","","html-keyboard-response","498","678703","0.0-1.0-697.0","0","0","45880","","null","","","null","77","","NaN","","","","","","","","","","","","","",""
"","response","","html-keyboard-response","499","679750","0.0-1.0-698.0-0.0","0","0","45880","","1044","","","75","77","","","2","77","training","adjacent","GF","7","6","O.jpg","Q.jpg","0","0","1","",""
"","feedback","","html-keyboard-response","500","680752","0.0-1.0-699.0-0.0","0","0","45880","","null","","","null","77","","","","","","","","","","","","","","","",""
"","ITI","","html-keyboard-response","501","681755","0.0-1.0-702.0","0","0","45880","","null","","","null","77","","","","","","","","","","","","","","","NaN",""
"","S1","","html-keyboard-response","502","682008","0.0-1.0-704.0","0","0","45880","","null","","","null","78","","","","","","","","","","","","","","","",""
"","ISI","","html-keyboard-response","503","684010","0.0-1.0-705.0","0","0","45880","","null","","","null","78","NaN","","","","","","","","","","","","","","",""
"","S2","","html-keyboard-response","504","684262","0.0-1.0-706.0","0","0","45880","","null","","","null","78","","NaN","","","","","","","","","","","","","",""
"","response","","html-keyboard-response","505","684718","0.0-1.0-707.0-0.0","0","0","45880","","454","","","75","78","","","2","78","training","adjacent","ED","5","4","M.jpg","N.jpg","0","0","1","",""
"","feedback","","html-keyboard-response","506","685721","0.0-1.0-708.0-0.0","0","0","45880","","null","","","null","78","","","","","","","","","","","","","","","",""
"","ITI","","html-keyboard-response","507","686724","0.0-1.0-711.0","0","0","45880","","null","","","null","78","","","","","","","","","","","","","","","NaN",""
"","S1","","html-keyboard-response","508","686976","0.0-1.0-713.0","0","0","45880","","null","","","null","79","","","","","","","","","","","","","","","",""
"","ISI","","html-keyboard-response","509","688978","0.0-1.0-714.0","0","0","45880","","null","","","null","79","NaN","","","","","","","","","","","","","","",""
"","S2","","html-keyboard-response","510","689232","0.0-1.0-715.0","0","0","45880","","null","","","null","79","","NaN","","","","","","","","","","","","","",""
"","response","","html-keyboard-response","511","690174","0.0-1.0-716.0-0.0","0","0","45880","","939","","","75","79","","","2","79","training","adjacent","CD","3","4","R.jpg","N.jpg","0","1","0","",""
"","feedback","","html-keyboard-response","512","691176","0.0-1.0-717.0-0.0","0","0","45880","","null","","","null","79","","","","","","","","","","","","","","","",""
"","time_out","","html-keyboard-response","513","693180","0.0-1.0-719.0-0.0","0","0","45880","","null","","","null","79","","","","","","","","","","","","","","","",""
"","ITI","","html-keyboard-response","514","694182","0.0-1.0-720.0","0","0","45880","","null","","","null","79","","","","","","","","","","","","","","","NaN",""
"","S1","","html-keyboard-response","515","694435","0.0-1.0-722.0","0","0","45880","","null","","","null","80","","","","","","","","","","","","","","","",""
"","ISI","","html-keyboard-response","516","696438","0.0-1.0-723.0","0","0","45880","","null","","","null","80","NaN","","","","","","","","","","","","","","",""
"","S2","","html-keyboard-response","517","696690","0.0-1.0-724.0","0","0","45880","","null","","","null","80","","NaN","","","","","","","","","","","","","",""
"","response","","html-keyboard-response","518","697814","0.0-1.0-725.0-0.0","0","0","45880","","1122","","","75","80","","","2","80","training","adjacent","BA","2","1","L.jpg","P.jpg","0","0","1","",""
"","feedback","","html-keyboard-response","519","698818","0.0-1.0-726.0-0.0","0","0","45880","","null","","","null","80","","","","","","","","","","","","","","","",""
"","ITI","","html-keyboard-response","520","699820","0.0-1.0-729.0","0","0","45880","","null","","","null","80","","","","","","","","","","","","","","","NaN",""
"","S1","","html-keyboard-response","521","700074","0.0-1.0-731.0","0","0","45880","","null","","","null","81","","","","","","","","","","","","","","","",""
"","ISI","","html-keyboard-response","522","702076","0.0-1.0-732.0","0","0","45880","","null","","","null","81","NaN","","","","","","","","","","","","","","",""
"","S2","","html-keyboard-response","523","702328","0.0-1.0-733.0","0","0","45880","","null","","","null","81","","NaN","","","","","","","","","","","","","",""
"","response","","html-keyboard-response","524","702950","0.0-1.0-734.0-0.0","0","0","45880","","619","","","75","81","","","2","81","training","adjacent","DC","4","3","N.jpg","R.jpg","0","0","1","",""
"","feedback","","html-keyboard-response","525","703953","0.0-1.0-735.0-0.0","0","0","45880","","null","","","null","81","","","","","","","","","","","","","","","",""
"","ITI","","html-keyboard-response","526","704955","0.0-1.0-738.0","0","0","45880","","null","","","null","81","","","","","","","","","","","","","","","NaN",""
"","S1","","html-keyboard-response","527","705208","0.0-1.0-740.0","0","0","45880","","null","","","null","82","","","","","","","","","","","","","","","",""
"","ISI","","html-keyboard-response","528","707210","0.0-1.0-741.0","0","0","45880","","null","","","null","82","NaN","","","","","","","","","","","","","","",""
"","S2","","html-keyboard-response","529","707463","0.0-1.0-742.0","0","0","45880","","null","","","null","82","","NaN","","","","","","","","","","","","","",""
"","response","","html-keyboard-response","530","707950","0.0-1.0-743.0-0.0","0","0","45880","","485","","","68","82","","","2","82","training","adjacent","DE","4","5","N.jpg","M.jpg","1","1","1","",""
"","feedback","","html-keyboard-response","531","708953","0.0-1.0-744.0-0.0","0","0","45880","","null","","","null","82","","","","","","","","","","","","","","","",""
"","ITI","","html-keyboard-response","532","709956","0.0-1.0-747.0","0","0","45880","","null","","","null","82","","","","","","","","","","","","","","","NaN",""
"","S1","","html-keyboard-response","533","710209","0.0-1.0-749.0","0","0","45880","","null","","","null","83","","","","","","","","","","","","","","","",""
"","ISI","","html-keyboard-response","534","712211","0.0-1.0-750.0","0","0","45880","","null","","","null","83","NaN","","","","","","","","","","","","","","",""
"","S2","","html-keyboard-response","535","712465","0.0-1.0-751.0","0","0","45880","","null","","","null","83","","NaN","","","","","","","","","","","","","",""
"","response","","html-keyboard-response","536","713149","0.0-1.0-752.0-0.0","0","0","45880","","682","","","75","83","","","2","83","training","adjacent","CB","3","2","R.jpg","L.jpg","0","0","1","",""
"","feedback","","html-keyboard-response","537","714153","0.0-1.0-753.0-0.0","0","0","45880","","null","","","null","83","","","","","","","","","","","","","","","",""
"","ITI","","html-keyboard-response","538","715154","0.0-1.0-756.0","0","0","45880","","null","","","null","83","","","","","","","","","","","","","","","NaN",""
"","S1","","html-keyboard-response","539","715407","0.0-1.0-758.0","0","0","45880","","null","","","null","84","","","","","","","","","","","","","","","",""
"","ISI","","html-keyboard-response","540","717409","0.0-1.0-759.0","0","0","45880","","null","","","null","84","NaN","","","","","","","","","","","","","","",""
"","S2","","html-keyboard-response","541","717662","0.0-1.0-760.0","0","0","45880","","null","","","null","84","","NaN","","","","","","","","","","","","","",""
"","response","","html-keyboard-response","542","718237","0.0-1.0-761.0-0.0","0","0","45880","","573","","","68","84","","","2","84","training","adjacent","FG","6","7","Q.jpg","O.jpg","1","1","1","",""
"","feedback","","html-keyboard-response","543","719240","0.0-1.0-762.0-0.0","0","0","45880","","null","","","null","84","","","","","","","","","","","","","","","",""
"","ITI","","html-keyboard-response","544","720243","0.0-1.0-765.0","0","0","45880","","null","","","null","84","","","","","","","","","","","","","","","NaN",""
"","S1","","html-keyboard-response","545","720496","0.0-1.0-767.0","0","0","45880","","null","","","null","85","","","","","","","","","","","","","","","",""
"","ISI","","html-keyboard-response","546","722497","0.0-1.0-768.0","0","0","45880","","null","","","null","85","NaN","","","","","","","","","","","","","","",""
"","S2","","html-keyboard-response","547","722749","0.0-1.0-769.0","0","0","45880","","null","","","null","85","","NaN","","","","","","","","","","","","","",""
"","response","","html-keyboard-response","548","723093","0.0-1.0-770.0-0.0","0","0","45880","","342","","","75","85","","","2","85","training","adjacent","DC","4","3","N.jpg","R.jpg","0","0","1","",""
"","feedback","","html-keyboard-response","549","724096","0.0-1.0-771.0-0.0","0","0","45880","","null","","","null","85","","","","","","","","","","","","","","","",""
"","ITI","","html-keyboard-response","550","725099","0.0-1.0-774.0","0","0","45880","","null","","","null","85","","","","","","","","","","","","","","","NaN",""
"","S1","","html-keyboard-response","551","725352","0.0-1.0-776.0","0","0","45880","","null","","","null","86","","","","","","","","","","","","","","","",""
"","ISI","","html-keyboard-response","552","727355","0.0-1.0-777.0","0","0","45880","","null","","","null","86","NaN","","","","","","","","","","","","","","",""
"","S2","","html-keyboard-response","553","727608","0.0-1.0-778.0","0","0","45880","","null","","","null","86","","NaN","","","","","","","","","","","","","",""
"","response","","html-keyboard-response","554","729085","0.0-1.0-779.0-0.0","0","0","45880","","1475","","","68","86","","","2","86","training","adjacent","BC","2","3","L.jpg","R.jpg","1","1","1","",""
"","feedback","","html-keyboard-response","555","730088","0.0-1.0-780.0-0.0","0","0","45880","","null","","","null","86","","","","","","","","","","","","","","","",""
"","ITI","","html-keyboard-response","556","731092","0.0-1.0-783.0","0","0","45880","","null","","","null","86","","","","","","","","","","","","","","","NaN",""
"","S1","","html-keyboard-response","557","731344","0.0-1.0-785.0","0","0","45880","","null","","","null","87","","","","","","","","","","","","","","","",""
"","ISI","","html-keyboard-response","558","733347","0.0-1.0-786.0","0","0","45880","","null","","","null","87","NaN","","","","","","","","","","","","","","",""
"","S2","","html-keyboard-response","559","733600","0.0-1.0-787.0","0","0","45880","","null","","","null","87","","NaN","","","","","","","","","","","","","",""
"","response","","html-keyboard-response","560","735029","0.0-1.0-788.0-0.0","0","0","45880","","1427","","","75","87","","","2","87","training","adjacent","BA","2","1","L.jpg","P.jpg","0","0","1","",""
"","feedback","","html-keyboard-response","561","736032","0.0-1.0-789.0-0.0","0","0","45880","","null","","","null","87","","","","","","","","","","","","","","","",""
"","ITI","","html-keyboard-response","562","737034","0.0-1.0-792.0","0","0","45880","","null","","","null","87","","","","","","","","","","","","","","","NaN",""
"","S1","","html-keyboard-response","563","737288","0.0-1.0-794.0","0","0","45880","","null","","","null","88","","","","","","","","","","","","","","","",""
"","ISI","","html-keyboard-response","564","739290","0.0-1.0-795.0","0","0","45880","","null","","","null","88","NaN","","","","","","","","","","","","","","",""
"","S2","","html-keyboard-response","565","739543","0.0-1.0-796.0","0","0","45880","","null","","","null","88","","NaN","","","","","","","","","","","","","",""
"","response","","html-keyboard-response","566","740102","0.0-1.0-797.0-0.0","0","0","45880","","557","","","68","88","","","2","88","training","adjacent","EF","5","6","M.jpg","Q.jpg","1","1","1","",""
"","feedback","","html-keyboard-response","567","741104","0.0-1.0-798.0-0.0","0","0","45880","","null","","","null","88","","","","","","","","","","","","","","","",""
"","ITI","","html-keyboard-response","568","742108","0.0-1.0-801.0","0","0","45880","","null","","","null","88","","","","","","","","","","","","","","","NaN",""
"","S1","","html-keyboard-response","569","742361","0.0-1.0-803.0","0","0","45880","","null","","","null","89","","","","","","","","","","","","","","","",""
"","ISI","","html-keyboard-response","570","744364","0.0-1.0-804.0","0","0","45880","","null","","","null","89","NaN","","","","","","","","","","","","","","",""
"","S2","","html-keyboard-response","571","744617","0.0-1.0-805.0","0","0","45880","","null","","","null","89","","NaN","","","","","","","","","","","","","",""
"","response","","html-keyboard-response","572","745861","0.0-1.0-806.0-0.0","0","0","45880","","1243","","","75","89","","","2","89","training","adjacent","FE","6","5","Q.jpg","M.jpg","0","0","1","",""
"","feedback","","html-keyboard-response","573","746864","0.0-1.0-807.0-0.0","0","0","45880","","null","","","null","89","","","","","","","","","","","","","","","",""
"","ITI","","html-keyboard-response","574","747878","0.0-1.0-810.0","0","0","45880","","null","","","null","89","","","","","","","","","","","","","","","NaN",""
"","S1","","html-keyboard-response","575","748132","0.0-1.0-812.0","0","0","45880","","null","","","null","90","","","","","","","","","","","","","","","",""
"","ISI","","html-keyboard-response","576","750135","0.0-1.0-813.0","0","0","45880","","null","","","null","90","NaN","","","","","","","","","","","","","","",""
"","S2","","html-keyboard-response","577","750388","0.0-1.0-814.0","0","0","45880","","null","","","null","90","","NaN","","","","","","","","","","","","","",""
"","response","","html-keyboard-response","578","751661","0.0-1.0-815.0-0.0","0","0","45880","","1272","","","68","90","","","2","90","training","adjacent","BC","2","3","L.jpg","R.jpg","1","1","1","",""
"","feedback","","html-keyboard-response","579","752664","0.0-1.0-816.0-0.0","0","0","45880","","null","","","null","90","","","","","","","","","","","","","","","",""
"","ITI","","html-keyboard-response","580","753668","0.0-1.0-819.0","0","0","45880","","null","","","null","90","","","","","","","","","","","","","","","NaN",""
"","S1","","html-keyboard-response","581","753921","0.0-1.0-821.0","0","0","45880","","null","","","null","91","","","","","","","","","","","","","","","",""
"","ISI","","html-keyboard-response","582","755923","0.0-1.0-822.0","0","0","45880","","null","","","null","91","NaN","","","","","","","","","","","","","","",""
