"success","ttype","start_time","trial_type","trial_index","time_elapsed","internal_node_id","warning","missed_checkup","PID","view_history","rt","responses","repeat_instructions","key_press","index","keypress_isi","keypress_S2","block","trial_num","phase","group_type","pair_type","S1_stim","S2_stim","S1_img","S2_img","S1_chosen","S1_higher","accuracy","keypress_iti","total_bonus_tally"
"true","full_screen","d04062023hr1943","fullscreen","0","6085","0.0-0.0","0","0","34742","","","","","","","","","","","","","","","","","","","","","",""
"","instructions","","instructions","1","40549","0.0-1.0-0.0-0.0","0","0","34742","[{""page_index"":0,""viewing_time"":4341},{""page_index"":1,""viewing_time"":19691},{""page_index"":2,""viewing_time"":8702},{""page_index"":3,""viewing_time"":1727}]","34461","","","","","","","","","","","","","","","","","","","",""
"","comprehension_check","","survey-multi-choice","2","58740","0.0-1.0-0.0-1.0","0","0","34742","","18184","{""Q0"":""True"",""Q1"":""D"",""Q2"":""Once the second image appears and while the screen 'MAKE A CHOICE' is shown"",""Q3"":""Green mark"",""Q4"":""either D or K""}","0","","","","","","","","","","","","","","","","","",""
"","start_exp","","html-keyboard-response","3","60479","0.0-1.0-1.0","0","0","34742","","1737","","","32","","","","","","","","","","","","","","","","",""
"","S1","","html-keyboard-response","4","60637","0.0-1.0-2.0","0","0","34742","","null","","","null","0","","","","","","","","","","","","","","","",""
"","ISI","","html-keyboard-response","5","62641","0.0-1.0-3.0","0","0","34742","","null","","","null","0","NaN","","","","","","","","","","","","","","",""
"","S2","","html-keyboard-response","6","62803","0.0-1.0-4.0","0","0","34742","","null","","","null","0","","NaN","","","","","","","","","","","","","",""
"","response","","html-keyboard-response","7","63774","0.0-1.0-5.0-0.0","0","0","34742","","969","","","68","0","","","1","0","training","adjacent","FG","6","7","M.jpg","L.jpg","1","1","1","",""
"","feedback","","html-keyboard-response","8","64789","0.0-1.0-6.0-0.0","0","0","34742","","null","","","null","0","","","","","","","","","","","","","","","",""
"","ITI","","html-keyboard-response","9","65793","0.0-1.0-9.0","0","0","34742","","null","","","null","0","","","","","","","","","","","","","","","NaN",""
"","S1","","html-keyboard-response","10","65954","0.0-1.0-11.0","0","0","34742","","null","","","null","1","","","","","","","","","","","","","","","",""
"","ISI","","html-keyboard-response","11","67964","0.0-1.0-12.0","0","0","34742","","null","","","null","1","NaN","","","","","","","","","","","","","","",""
"","S2","","html-keyboard-response","12","68126","0.0-1.0-13.0","0","0","34742","","null","","","null","1","","NaN","","","","","","","","","","","","","",""
"","response","","html-keyboard-response","13","69158","0.0-1.0-14.0-0.0","0","0","34742","","1029","","","68","1","","","1","1","training","adjacent","BC","2","3","Q.jpg","N.jpg","1","1","1","",""
"","feedback","","html-keyboard-response","14","70170","0.0-1.0-15.0-0.0","0","0","34742","","null","","","null","1","","","","","","","","","","","","","","","",""
"","ITI","","html-keyboard-response","15","71180","0.0-1.0-18.0","0","0","34742","","null","","","null","1","","","","","","","","","","","","","","","NaN",""
"","S1","","html-keyboard-response","16","71342","0.0-1.0-20.0","0","0","34742","","null","","","null","2","","","","","","","","","","","","","","","",""
"","ISI","","html-keyboard-response","17","73356","0.0-1.0-21.0","0","0","34742","","null","","","null","2","NaN","","","","","","","","","","","","","","",""
"","S2","","html-keyboard-response","18","73513","0.0-1.0-22.0","0","0","34742","","null","","","null","2","","NaN","","","","","","","","","","","","","",""
"","response","","html-keyboard-response","19","74542","0.0-1.0-23.0-0.0","0","0","34742","","1026","","","68","2","","","1","2","training","adjacent","AB","1","2","O.jpg","Q.jpg","1","1","1","",""
"","feedback","","html-keyboard-response","20","75556","0.0-1.0-24.0-0.0","0","0","34742","","null","","","null","2","","","","","","","","","","","","","","","",""
"","ITI","","html-keyboard-response","21","76562","0.0-1.0-27.0","0","0","34742","","null","","","null","2","","","","","","","","","","","","","","","NaN",""
"","S1","","html-keyboard-response","22","76723","0.0-1.0-29.0","0","0","34742","","null","","","null","3","","","","","","","","","","","","","","","",""
"","ISI","","html-keyboard-response","23","78732","0.0-1.0-30.0","0","0","34742","","null","","","null","3","NaN","","","","","","","","","","","","","","",""
"","S2","","html-keyboard-response","24","78889","0.0-1.0-31.0","0","0","34742","","null","","","null","3","","NaN","","","","","","","","","","","","","",""
"","response","","html-keyboard-response","25","79575","0.0-1.0-32.0-0.0","0","0","34742","","683","","","75","3","","","1","3","training","adjacent","DC","4","3","R.jpg","N.jpg","0","0","1","",""
"","feedback","","html-keyboard-response","26","80589","0.0-1.0-33.0-0.0","0","0","34742","","null","","","null","3","","","","","","","","","","","","","","","",""
"","ITI","","html-keyboard-response","27","81593","0.0-1.0-36.0","0","0","34742","","null","","","null","3","","","","","","","","","","","","","","","NaN",""
"","S1","","html-keyboard-response","28","81756","0.0-1.0-38.0","0","0","34742","","null","","","null","4","","","","","","","","","","","","","","","",""
"","ISI","","html-keyboard-response","29","83764","0.0-1.0-39.0","0","0","34742","","null","","","null","4","NaN","","","","","","","","","","","","","","",""
"","S2","","html-keyboard-response","30","83921","0.0-1.0-40.0","0","0","34742","","null","","","null","4","","NaN","","","","","","","","","","","","","",""
"","response","","html-keyboard-response","31","84762","0.0-1.0-41.0-0.0","0","0","34742","","838","","","68","4","","","1","4","training","adjacent","CB","3","2","N.jpg","Q.jpg","1","0","0","",""
"","feedback","","html-keyboard-response","32","85773","0.0-1.0-42.0-0.0","0","0","34742","","null","","","null","4","","","","","","","","","","","","","","","",""
"","time_out","","html-keyboard-response","33","87781","0.0-1.0-44.0-0.0","0","0","34742","","null","","","null","4","","","","","","","","","","","","","","","",""
"","ITI","","html-keyboard-response","34","88798","0.0-1.0-45.0","0","0","34742","","null","","","null","4","","","","","","","","","","","","","","","NaN",""
"","S1","","html-keyboard-response","35","88954","0.0-1.0-47.0","0","0","34742","","null","","","null","5","","","","","","","","","","","","","","","",""
"","ISI","","html-keyboard-response","36","90962","0.0-1.0-48.0","0","0","34742","","null","","","null","5","NaN","","","","","","","","","","","","","","",""
"","S2","","html-keyboard-response","37","91125","0.0-1.0-49.0","0","0","34742","","null","","","null","5","","NaN","","","","","","","","","","","","","",""
"","response","","html-keyboard-response","38","91687","0.0-1.0-50.0-0.0","0","0","34742","","559","","","75","5","","","1","5","training","adjacent","EF","5","6","P.jpg","M.jpg","0","1","0","",""
"","feedback","","html-keyboard-response","39","92698","0.0-1.0-51.0-0.0","0","0","34742","","null","","","null","5","","","","","","","","","","","","","","","",""
"","time_out","","html-keyboard-response","40","94706","0.0-1.0-53.0-0.0","0","0","34742","","null","","","null","5","","","","","","","","","","","","","","","",""
"","ITI","","html-keyboard-response","41","95717","0.0-1.0-54.0","0","0","34742","","null","","","null","5","","","","","","","","","","","","","","","NaN",""
"","S1","","html-keyboard-response","42","95873","0.0-1.0-56.0","0","0","34742","","null","","","null","6","","","","","","","","","","","","","","","",""
"","ISI","","html-keyboard-response","43","97882","0.0-1.0-57.0","0","0","34742","","null","","","null","6","NaN","","","","","","","","","","","","","","",""
"","S2","","html-keyboard-response","44","98044","0.0-1.0-58.0","0","0","34742","","null","","","null","6","","NaN","","","","","","","","","","","","","",""
"","response","","html-keyboard-response","45","98566","0.0-1.0-59.0-0.0","0","0","34742","","520","","","75","6","","","1","6","training","adjacent","EF","5","6","P.jpg","M.jpg","0","1","0","",""
"","feedback","","html-keyboard-response","46","99577","0.0-1.0-60.0-0.0","0","0","34742","","null","","","null","6","","","","","","","","","","","","","","","",""
"","time_out","","html-keyboard-response","47","101585","0.0-1.0-62.0-0.0","0","0","34742","","null","","","null","6","","","","","","","","","","","","","","","",""
"","ITI","","html-keyboard-response","48","102595","0.0-1.0-63.0","0","0","34742","","null","","","null","6","","","","","","","","","","","","","","","NaN",""
"","S1","","html-keyboard-response","49","102752","0.0-1.0-65.0","0","0","34742","","null","","","null","7","","","","","","","","","","","","","","","",""
"","ISI","","html-keyboard-response","50","104760","0.0-1.0-66.0","0","0","34742","","null","","","null","7","NaN","","","","","","","","","","","","","","",""
"","S2","","html-keyboard-response","51","104923","0.0-1.0-67.0","0","0","34742","","null","","","null","7","","NaN","","","","","","","","","","","","","",""
"","response","","html-keyboard-response","52","105323","0.0-1.0-68.0-0.0","0","0","34742","","397","","","68","7","","","1","7","training","adjacent","DE","4","5","R.jpg","P.jpg","1","1","1","",""
"","feedback","","html-keyboard-response","53","106329","0.0-1.0-69.0-0.0","0","0","34742","","null","","","null","7","","","","","","","","","","","","","","","",""
"","ITI","","html-keyboard-response","54","107338","0.0-1.0-72.0","0","0","34742","","null","","","null","7","","","","","","","","","","","","","","","NaN",""
"","S1","","html-keyboard-response","55","107500","0.0-1.0-74.0","0","0","34742","","null","","","null","8","","","","","","","","","","","","","","","",""
"","ISI","","html-keyboard-response","56","109504","0.0-1.0-75.0","0","0","34742","","null","","","null","8","NaN","","","","","","","","","","","","","","",""
"","S2","","html-keyboard-response","57","109666","0.0-1.0-76.0","0","0","34742","","null","","","null","8","","NaN","","","","","","","","","","","","","",""
"","response","","html-keyboard-response","58","110028","0.0-1.0-77.0-0.0","0","0","34742","","361","","","68","8","","","1","8","training","adjacent","FE","6","5","M.jpg","P.jpg","1","0","0","",""
"","feedback","","html-keyboard-response","59","111036","0.0-1.0-78.0-0.0","0","0","34742","","null","","","null","8","","","","","","","","","","","","","","","",""
"","time_out","","html-keyboard-response","60","113044","0.0-1.0-80.0-0.0","0","0","34742","","null","","","null","8","","","","","","","","","","","","","","","",""
"","ITI","","html-keyboard-response","61","114048","0.0-1.0-81.0","0","0","34742","","null","","","null","8","","","","","","","","","","","","","","","NaN",""
"","S1","","html-keyboard-response","62","114210","0.0-1.0-83.0","0","0","34742","","null","","","null","9","","","","","","","","","","","","","","","",""
"","ISI","","html-keyboard-response","63","116219","0.0-1.0-84.0","0","0","34742","","null","","","null","9","NaN","","","","","","","","","","","","","","",""
"","S2","","html-keyboard-response","64","116376","0.0-1.0-85.0","0","0","34742","","null","","","null","9","","NaN","","","","","","","","","","","","","",""
"","response","","html-keyboard-response","65","117075","0.0-1.0-86.0-0.0","0","0","34742","","696","","","68","9","","","1","9","training","adjacent","AB","1","2","O.jpg","Q.jpg","1","1","1","",""
"","feedback","","html-keyboard-response","66","118083","0.0-1.0-87.0-0.0","0","0","34742","","null","","","null","9","","","","","","","","","","","","","","","",""
"","ITI","","html-keyboard-response","67","119089","0.0-1.0-90.0","0","0","34742","","null","","","null","9","","","","","","","","","","","","","","","NaN",""
"","S1","","html-keyboard-response","68","119249","0.0-1.0-92.0","0","0","34742","","null","","","null","10","","","","","","","","","","","","","","","",""
"","ISI","","html-keyboard-response","69","121258","0.0-1.0-93.0","0","0","34742","","null","","","null","10","NaN","","","","","","","","","","","","","","",""
"","S2","","html-keyboard-response","70","121421","0.0-1.0-94.0","0","0","34742","","null","","","null","10","","NaN","","","","","","","","","","","","","",""
"","response","","html-keyboard-response","71","122181","0.0-1.0-95.0-0.0","0","0","34742","","758","","","68","10","","","1","10","training","adjacent","EF","5","6","P.jpg","M.jpg","1","1","1","",""
"","feedback","","html-keyboard-response","72","123192","0.0-1.0-96.0-0.0","0","0","34742","","null","","","null","10","","","","","","","","","","","","","","","",""
"","ITI","","html-keyboard-response","73","124200","0.0-1.0-99.0","0","0","34742","","null","","","null","10","","","","","","","","","","","","","","","NaN",""
"","S1","","html-keyboard-response","74","124364","0.0-1.0-101.0","0","0","34742","","null","","","null","11","","","","","","","","","","","","","","","",""
"","ISI","","html-keyboard-response","75","126372","0.0-1.0-102.0","0","0","34742","","null","","","null","11","NaN","","","","","","","","","","","","","","",""
"","S2","","html-keyboard-response","76","126529","0.0-1.0-103.0","0","0","34742","","null","","","null","11","","NaN","","","","","","","","","","","","","",""
"","response","","html-keyboard-response","77","127327","0.0-1.0-104.0-0.0","0","0","34742","","797","","","68","11","","","1","11","training","adjacent","DC","4","3","R.jpg","N.jpg","1","0","0","",""
"","feedback","","html-keyboard-response","78","128340","0.0-1.0-105.0-0.0","0","0","34742","","null","","","null","11","","","","","","","","","","","","","","","",""
"","time_out","","html-keyboard-response","79","130348","0.0-1.0-107.0-0.0","0","0","34742","","null","","","null","11","","","","","","","","","","","","","","","",""
"","ITI","","html-keyboard-response","80","131352","0.0-1.0-108.0","0","0","34742","","null","","","null","11","","","","","","","","","","","","","","","NaN",""
"","S1","","html-keyboard-response","81","131515","0.0-1.0-110.0","0","0","34742","","null","","","null","12","","","","","","","","","","","","","","","",""
"","ISI","","html-keyboard-response","82","133524","0.0-1.0-111.0","0","0","34742","","null","","","null","12","NaN","","","","","","","","","","","","","","",""
"","S2","","html-keyboard-response","83","133680","0.0-1.0-112.0","0","0","34742","","null","","","null","12","","NaN","","","","","","","","","","","","","",""
"","response","","html-keyboard-response","84","134152","0.0-1.0-113.0-0.0","0","0","34742","","469","","","75","12","","","1","12","training","adjacent","DE","4","5","R.jpg","P.jpg","0","1","0","",""
"","feedback","","html-keyboard-response","85","135160","0.0-1.0-114.0-0.0","0","0","34742","","null","","","null","12","","","","","","","","","","","","","","","",""
"","time_out","","html-keyboard-response","86","137169","0.0-1.0-116.0-0.0","0","0","34742","","null","","","null","12","","","","","","","","","","","","","","","",""
"","ITI","","html-keyboard-response","87","138179","0.0-1.0-117.0","0","0","34742","","null","","","null","12","","","","","","","","","","","","","","","NaN",""
"","S1","","html-keyboard-response","88","138335","0.0-1.0-119.0","0","0","34742","","null","","","null","13","","","","","","","","","","","","","","","",""
"","ISI","","html-keyboard-response","89","140344","0.0-1.0-120.0","0","0","34742","","null","","","null","13","NaN","","","","","","","","","","","","","","",""
"","S2","","html-keyboard-response","90","140507","0.0-1.0-121.0","0","0","34742","","null","","","null","13","","NaN","","","","","","","","","","","","","",""
"","response","","html-keyboard-response","91","140984","0.0-1.0-122.0-0.0","0","0","34742","","474","","","75","13","","","1","13","training","adjacent","AB","1","2","O.jpg","Q.jpg","0","1","0","",""
"","feedback","","html-keyboard-response","92","141993","0.0-1.0-123.0-0.0","0","0","34742","","null","","","null","13","","","","","","","","","","","","","","","",""
"","time_out","","html-keyboard-response","93","144001","0.0-1.0-125.0-0.0","0","0","34742","","null","","","null","13","","","","","","","","","","","","","","","",""
"","ITI","","html-keyboard-response","94","145011","0.0-1.0-126.0","0","0","34742","","null","","","null","13","","","","","","","","","","","","","","","NaN",""
"","S1","","html-keyboard-response","95","145168","0.0-1.0-128.0","0","0","34742","","null","","","null","14","","","","","","","","","","","","","","","",""
"","ISI","","html-keyboard-response","96","147176","0.0-1.0-129.0","0","0","34742","","null","","","null","14","NaN","","","","","","","","","","","","","","",""
"","S2","","html-keyboard-response","97","147339","0.0-1.0-130.0","0","0","34742","","null","","","null","14","","NaN","","","","","","","","","","","","","",""
"","response","","html-keyboard-response","98","147840","0.0-1.0-131.0-0.0","0","0","34742","","499","","","68","14","","","1","14","training","adjacent","ED","5","4","P.jpg","R.jpg","1","0","0","",""
"","feedback","","html-keyboard-response","99","148848","0.0-1.0-132.0-0.0","0","0","34742","","null","","","null","14","","","","","","","","","","","","","","","",""
"","time_out","","html-keyboard-response","100","150857","0.0-1.0-134.0-0.0","0","0","34742","","null","","","null","14","","","","","","","","","","","","","","","",""
"","ITI","","html-keyboard-response","101","151867","0.0-1.0-135.0","0","0","34742","","null","","","null","14","","","","","","","","","","","","","","","NaN",""
"","S1","","html-keyboard-response","102","152024","0.0-1.0-137.0","0","0","34742","","null","","","null","15","","","","","","","","","","","","","","","",""
"","ISI","","html-keyboard-response","103","154032","0.0-1.0-138.0","0","0","34742","","null","","","null","15","NaN","","","","","","","","","","","","","","",""
"","S2","","html-keyboard-response","104","154195","0.0-1.0-139.0","0","0","34742","","null","","","null","15","","NaN","","","","","","","","","","","","","",""
"","response","","html-keyboard-response","105","154711","0.0-1.0-140.0-0.0","0","0","34742","","514","","","68","15","","","1","15","training","adjacent","EF","5","6","P.jpg","M.jpg","1","1","1","",""
"","feedback","","html-keyboard-response","106","155721","0.0-1.0-141.0-0.0","0","0","34742","","null","","","null","15","","","","","","","","","","","","","","","",""
"","ITI","","html-keyboard-response","107","156731","0.0-1.0-144.0","0","0","34742","","null","","","null","15","","","","","","","","","","","","","","","NaN",""
"","S1","","html-keyboard-response","108","156888","0.0-1.0-146.0","0","0","34742","","null","","","null","16","","","","","","","","","","","","","","","",""
"","ISI","","html-keyboard-response","109","158897","0.0-1.0-147.0","0","0","34742","","null","","","null","16","NaN","","","","","","","","","","","","","","",""
"","S2","","html-keyboard-response","110","159059","0.0-1.0-148.0","0","0","34742","","null","","","null","16","","NaN","","","","","","","","","","","","","",""
"","response","","html-keyboard-response","111","160017","0.0-1.0-149.0-0.0","0","0","34742","","956","","","75","16","","","1","16","training","adjacent","BC","2","3","Q.jpg","N.jpg","0","1","0","",""
"","feedback","","html-keyboard-response","112","161026","0.0-1.0-150.0-0.0","0","0","34742","","null","","","null","16","","","","","","","","","","","","","","","",""
"","time_out","","html-keyboard-response","113","163035","0.0-1.0-152.0-0.0","0","0","34742","","null","","","null","16","","","","","","","","","","","","","","","",""
"","ITI","","html-keyboard-response","114","164040","0.0-1.0-153.0","0","0","34742","","null","","","null","16","","","","","","","","","","","","","","","NaN",""
"","S1","","html-keyboard-response","115","164202","0.0-1.0-155.0","0","0","34742","","null","","","null","17","","","","","","","","","","","","","","","",""
"","ISI","","html-keyboard-response","116","166210","0.0-1.0-156.0","0","0","34742","","null","","","null","17","NaN","","","","","","","","","","","","","","",""
"","S2","","html-keyboard-response","117","166367","0.0-1.0-157.0","0","0","34742","","null","","","null","17","","NaN","","","","","","","","","","","","","",""
"","response","","html-keyboard-response","118","167430","0.0-1.0-158.0-0.0","0","0","34742","","1061","","","68","17","","","1","17","training","adjacent","CD","3","4","N.jpg","R.jpg","1","1","1","",""
"","feedback","","html-keyboard-response","119","168440","0.0-1.0-159.0-0.0","0","0","34742","","null","","","null","17","","","","","","","","","","","","","","","",""
"","ITI","","html-keyboard-response","120","169450","0.0-1.0-162.0","0","0","34742","","null","","","null","17","","","","","","","","","","","","","","","NaN",""
"","S1","","html-keyboard-response","121","169606","0.0-1.0-164.0","0","0","34742","","null","","","null","18","","","","","","","","","","","","","","","",""
"","ISI","","html-keyboard-response","122","171615","0.0-1.0-165.0","0","0","34742","","null","","","null","18","NaN","","","","","","","","","","","","","","",""
"","S2","","html-keyboard-response","123","171777","0.0-1.0-166.0","0","0","34742","","null","","","null","18","","NaN","","","","","","","","","","","","","",""
"","response","","html-keyboard-response","124","172848","0.0-1.0-167.0-0.0","0","0","34742","","1068","","","68","18","","","1","18","training","adjacent","DC","4","3","R.jpg","N.jpg","1","0","0","",""
"","feedback","","html-keyboard-response","125","173855","0.0-1.0-168.0-0.0","0","0","34742","","null","","","null","18","","","","","","","","","","","","","","","",""
"","time_out","","html-keyboard-response","126","175864","0.0-1.0-170.0-0.0","0","0","34742","","null","","","null","18","","","","","","","","","","","","","","","",""
"","ITI","","html-keyboard-response","127","176874","0.0-1.0-171.0","0","0","34742","","null","","","null","18","","","","","","","","","","","","","","","NaN",""
"","S1","","html-keyboard-response","128","177031","0.0-1.0-173.0","0","0","34742","","null","","","null","19","","","","","","","","","","","","","","","",""
"","ISI","","html-keyboard-response","129","179039","0.0-1.0-174.0","0","0","34742","","null","","","null","19","NaN","","","","","","","","","","","","","","",""
"","S2","","html-keyboard-response","130","179202","0.0-1.0-175.0","0","0","34742","","null","","","null","19","","NaN","","","","","","","","","","","","","",""
"","response","","html-keyboard-response","131","179828","0.0-1.0-176.0-0.0","0","0","34742","","624","","","75","19","","","1","19","training","adjacent","BC","2","3","Q.jpg","N.jpg","0","1","0","",""
"","feedback","","html-keyboard-response","132","180839","0.0-1.0-177.0-0.0","0","0","34742","","null","","","null","19","","","","","","","","","","","","","","","",""
"","time_out","","html-keyboard-response","133","182847","0.0-1.0-179.0-0.0","0","0","34742","","null","","","null","19","","","","","","","","","","","","","","","",""
"","ITI","","html-keyboard-response","134","183857","0.0-1.0-180.0","0","0","34742","","null","","","null","19","","","","","","","","","","","","","","","NaN",""
"","S1","","html-keyboard-response","135","184014","0.0-1.0-182.0","0","0","34742","","null","","","null","20","","","","","","","","","","","","","","","",""
"","ISI","","html-keyboard-response","136","186023","0.0-1.0-183.0","0","0","34742","","null","","","null","20","NaN","","","","","","","","","","","","","","",""
"","S2","","html-keyboard-response","137","186185","0.0-1.0-184.0","0","0","34742","","null","","","null","20","","NaN","","","","","","","","","","","","","",""
"","response","","html-keyboard-response","138","186685","0.0-1.0-185.0-0.0","0","0","34742","","498","","","75","20","","","1","20","training","adjacent","FE","6","5","M.jpg","P.jpg","0","0","1","",""
"","feedback","","html-keyboard-response","139","187694","0.0-1.0-186.0-0.0","0","0","34742","","null","","","null","20","","","","","","","","","","","","","","","",""
"","ITI","","html-keyboard-response","140","188704","0.0-1.0-189.0","0","0","34742","","null","","","null","20","","","","","","","","","","","","","","","NaN",""
"","S1","","html-keyboard-response","141","188867","0.0-1.0-191.0","0","0","34742","","null","","","null","21","","","","","","","","","","","","","","","",""
"","ISI","","html-keyboard-response","142","190875","0.0-1.0-192.0","0","0","34742","","null","","","null","21","NaN","","","","","","","","","","","","","","",""
"","S2","","html-keyboard-response","143","191032","0.0-1.0-193.0","0","0","34742","","null","","","null","21","","NaN","","","","","","","","","","","","","",""
"","response","","html-keyboard-response","144","192206","0.0-1.0-194.0-0.0","0","0","34742","","1172","","","75","21","","","1","21","training","adjacent","GF","7","6","L.jpg","M.jpg","0","0","1","",""
"","feedback","","html-keyboard-response","145","193215","0.0-1.0-195.0-0.0","0","0","34742","","null","","","null","21","","","","","","","","","","","","","","","",""
"","ITI","","html-keyboard-response","146","194225","0.0-1.0-198.0","0","0","34742","","null","","","null","21","","","","","","","","","","","","","","","NaN",""
"","S1","","html-keyboard-response","147","194382","0.0-1.0-200.0","0","0","34742","","null","","","null","22","","","","","","","","","","","","","","","",""
"","ISI","","html-keyboard-response","148","196390","0.0-1.0-201.0","0","0","34742","","null","","","null","22","NaN","","","","","","","","","","","","","","",""
"","S2","","html-keyboard-response","149","196553","0.0-1.0-202.0","0","0","34742","","null","","","null","22","","NaN","","","","","","","","","","","","","",""
"","response","","html-keyboard-response","150","197210","0.0-1.0-203.0-0.0","0","0","34742","","656","","","75","22","","","1","22","training","adjacent","CD","3","4","N.jpg","R.jpg","0","1","0","",""
"","feedback","","html-keyboard-response","151","198219","0.0-1.0-204.0-0.0","0","0","34742","","null","","","null","22","","","","","","","","","","","","","","","",""
"","time_out","","html-keyboard-response","152","200233","0.0-1.0-206.0-0.0","0","0","34742","","null","","","null","22","","","","","","","","","","","","","","","",""
"","ITI","","html-keyboard-response","153","201240","0.0-1.0-207.0","0","0","34742","","null","","","null","22","","","","","","","","","","","","","","","NaN",""
"","S1","","html-keyboard-response","154","201400","0.0-1.0-209.0","0","0","34742","","null","","","null","23","","","","","","","","","","","","","","","",""
"","ISI","","html-keyboard-response","155","203408","0.0-1.0-210.0","0","0","34742","","null","","","null","23","NaN","","","","","","","","","","","","","","",""
"","S2","","html-keyboard-response","156","203571","0.0-1.0-211.0","0","0","34742","","null","","","null","23","","NaN","","","","","","","","","","","","","",""
"","response","","html-keyboard-response","157","204586","0.0-1.0-212.0-0.0","0","0","34742","","1013","","","68","23","","","1","23","training","adjacent","AB","1","2","O.jpg","Q.jpg","1","1","1","",""
"","feedback","","html-keyboard-response","158","205591","0.0-1.0-213.0-0.0","0","0","34742","","null","","","null","23","","","","","","","","","","","","","","","",""
"","ITI","","html-keyboard-response","159","206601","0.0-1.0-216.0","0","0","34742","","null","","","null","23","","","","","","","","","","","","","","","NaN",""
"","S1","","html-keyboard-response","160","206758","0.0-1.0-218.0","0","0","34742","","null","","","null","24","","","","","","","","","","","","","","","",""
"","ISI","","html-keyboard-response","161","208765","0.0-1.0-219.0","0","0","34742","","null","","","null","24","NaN","","","","","","","","","","","","","","",""
"","S2","","html-keyboard-response","162","208929","0.0-1.0-220.0","0","0","34742","","null","","","null","24","","NaN","","","","","","","","","","","","","",""
"","response","","html-keyboard-response","163","210274","0.0-1.0-221.0-0.0","0","0","34742","","1343","","","75","24","","","1","24","training","adjacent","CB","3","2","N.jpg","Q.jpg","0","0","1","",""
"","feedback","","html-keyboard-response","164","211280","0.0-1.0-222.0-0.0","0","0","34742","","null","","","null","24","","","","","","","","","","","","","","","",""
"","ITI","","html-keyboard-response","165","212289","0.0-1.0-225.0","0","0","34742","","null","","","null","24","","","","","","","","","","","","","","","NaN",""
"","S1","","html-keyboard-response","166","212446","0.0-1.0-227.0","0","0","34742","","null","","","null","25","","","","","","","","","","","","","","","",""
"","ISI","","html-keyboard-response","167","214455","0.0-1.0-228.0","0","0","34742","","null","","","null","25","NaN","","","","","","","","","","","","","","",""
"","S2","","html-keyboard-response","168","214617","0.0-1.0-229.0","0","0","34742","","null","","","null","25","","NaN","","","","","","","","","","","","","",""
"","response","","html-keyboard-response","169","216010","0.0-1.0-230.0-0.0","0","0","34742","","1390","","","75","25","","","1","25","training","adjacent","BA","2","1","Q.jpg","O.jpg","0","0","1","",""
"","feedback","","html-keyboard-response","170","217014","0.0-1.0-231.0-0.0","0","0","34742","","null","","","null","25","","","","","","","","","","","","","","","",""
"","ITI","","html-keyboard-response","171","218025","0.0-1.0-234.0","0","0","34742","","null","","","null","25","","","","","","","","","","","","","","","NaN",""
"","S1","","html-keyboard-response","172","218182","0.0-1.0-236.0","0","0","34742","","null","","","null","26","","","","","","","","","","","","","","","",""
"","ISI","","html-keyboard-response","173","220190","0.0-1.0-237.0","0","0","34742","","null","","","null","26","NaN","","","","","","","","","","","","","","",""
"","S2","","html-keyboard-response","174","220353","0.0-1.0-238.0","0","0","34742","","null","","","null","26","","NaN","","","","","","","","","","","","","",""
"","response","","html-keyboard-response","175","221285","0.0-1.0-239.0-0.0","0","0","34742","","931","","","75","26","","","1","26","training","adjacent","BA","2","1","Q.jpg","O.jpg","0","0","1","",""
"","feedback","","html-keyboard-response","176","222297","0.0-1.0-240.0-0.0","0","0","34742","","null","","","null","26","","","","","","","","","","","","","","","",""
"","ITI","","html-keyboard-response","177","223301","0.0-1.0-243.0","0","0","34742","","null","","","null","26","","","","","","","","","","","","","","","NaN",""
"","S1","","html-keyboard-response","178","223464","0.0-1.0-245.0","0","0","34742","","null","","","null","27","","","","","","","","","","","","","","","",""
"","ISI","","html-keyboard-response","179","225472","0.0-1.0-246.0","0","0","34742","","null","","","null","27","NaN","","","","","","","","","","","","","","",""
"","S2","","html-keyboard-response","180","225629","0.0-1.0-247.0","0","0","34742","","null","","","null","27","","NaN","","","","","","","","","","","","","",""
"","response","","html-keyboard-response","181","226175","0.0-1.0-248.0-0.0","0","0","34742","","543","","","75","27","","","1","27","training","adjacent","FE","6","5","M.jpg","P.jpg","0","0","1","",""
"","feedback","","html-keyboard-response","182","227185","0.0-1.0-249.0-0.0","0","0","34742","","null","","","null","27","","","","","","","","","","","","","","","",""
"","ITI","","html-keyboard-response","183","228189","0.0-1.0-252.0","0","0","34742","","null","","","null","27","","","","","","","","","","","","","","","NaN",""
"","S1","","html-keyboard-response","184","228352","0.0-1.0-254.0","0","0","34742","","null","","","null","28","","","","","","","","","","","","","","","",""
"","ISI","","html-keyboard-response","185","230360","0.0-1.0-255.0","0","0","34742","","null","","","null","28","NaN","","","","","","","","","","","","","","",""
"","S2","","html-keyboard-response","186","230517","0.0-1.0-256.0","0","0","34742","","null","","","null","28","","NaN","","","","","","","","","","","","","",""
"","response","","html-keyboard-response","187","231542","0.0-1.0-257.0-0.0","0","0","34742","","1023","","","68","28","","","1","28","training","adjacent","CD","3","4","N.jpg","R.jpg","1","1","1","",""
"","feedback","","html-keyboard-response","188","232549","0.0-1.0-258.0-0.0","0","0","34742","","null","","","null","28","","","","","","","","","","","","","","","",""
"","ITI","","html-keyboard-response","189","233558","0.0-1.0-261.0","0","0","34742","","null","","","null","28","","","","","","","","","","","","","","","NaN",""
"","S1","","html-keyboard-response","190","233721","0.0-1.0-263.0","0","0","34742","","null","","","null","29","","","","","","","","","","","","","","","",""
"","ISI","","html-keyboard-response","191","235729","0.0-1.0-264.0","0","0","34742","","null","","","null","29","NaN","","","","","","","","","","","","","","",""
"","S2","","html-keyboard-response","192","235886","0.0-1.0-265.0","0","0","34742","","null","","","null","29","","NaN","","","","","","","","","","","","","",""
"","response","","html-keyboard-response","193","236966","0.0-1.0-266.0-0.0","0","0","34742","","1078","","","75","29","","","1","29","training","adjacent","CB","3","2","N.jpg","Q.jpg","0","0","1","",""
"","feedback","","html-keyboard-response","194","237976","0.0-1.0-267.0-0.0","0","0","34742","","null","","","null","29","","","","","","","","","","","","","","","",""
"","ITI","","html-keyboard-response","195","238983","0.0-1.0-270.0","0","0","34742","","null","","","null","29","","","","","","","","","","","","","","","NaN",""
"","S1","","html-keyboard-response","196","239142","0.0-1.0-272.0","0","0","34742","","null","","","null","30","","","","","","","","","","","","","","","",""
"","ISI","","html-keyboard-response","197","241151","0.0-1.0-273.0","0","0","34742","","null","","","null","30","NaN","","","","","","","","","","","","","","",""
"","S2","","html-keyboard-response","198","241308","0.0-1.0-274.0","0","0","34742","","null","","","null","30","","NaN","","","","","","","","","","","","","",""
"","response","","html-keyboard-response","199","242395","0.0-1.0-275.0-0.0","0","0","34742","","1085","","","68","30","","","1","30","training","adjacent","FG","6","7","M.jpg","L.jpg","1","1","1","",""
"","feedback","","html-keyboard-response","200","243409","0.0-1.0-276.0-0.0","0","0","34742","","null","","","null","30","","","","","","","","","","","","","","","",""
"","ITI","","html-keyboard-response","201","244414","0.0-1.0-279.0","0","0","34742","","null","","","null","30","","","","","","","","","","","","","","","NaN",""
"","S1","","html-keyboard-response","202","244575","0.0-1.0-281.0","0","0","34742","","null","","","null","31","","","","","","","","","","","","","","","",""
"","ISI","","html-keyboard-response","203","246584","0.0-1.0-282.0","0","0","34742","","null","","","null","31","NaN","","","","","","","","","","","","","","",""
"","S2","","html-keyboard-response","204","246741","0.0-1.0-283.0","0","0","34742","","null","","","null","31","","NaN","","","","","","","","","","","","","",""
"","response","","html-keyboard-response","205","248050","0.0-1.0-284.0-0.0","0","0","34742","","1306","","","75","31","","","1","31","training","adjacent","FG","6","7","M.jpg","L.jpg","0","1","0","",""
"","feedback","","html-keyboard-response","206","249063","0.0-1.0-285.0-0.0","0","0","34742","","null","","","null","31","","","","","","","","","","","","","","","",""
"","time_out","","html-keyboard-response","207","251071","0.0-1.0-287.0-0.0","0","0","34742","","null","","","null","31","","","","","","","","","","","","","","","",""
"","ITI","","html-keyboard-response","208","252078","0.0-1.0-288.0","0","0","34742","","null","","","null","31","","","","","","","","","","","","","","","NaN",""
"","S1","","html-keyboard-response","209","252238","0.0-1.0-290.0","0","0","34742","","null","","","null","32","","","","","","","","","","","","","","","",""
"","ISI","","html-keyboard-response","210","254246","0.0-1.0-291.0","0","0","34742","","null","","","null","32","NaN","","","","","","","","","","","","","","",""
"","S2","","html-keyboard-response","211","254404","0.0-1.0-292.0","0","0","34742","","null","","","null","32","","NaN","","","","","","","","","","","","","",""
"","response","","html-keyboard-response","212","256180","0.0-1.0-293.0-0.0","0","0","34742","","1773","","","75","32","","","1","32","training","adjacent","GF","7","6","L.jpg","M.jpg","0","0","1","",""
"","feedback","","html-keyboard-response","213","257190","0.0-1.0-294.0-0.0","0","0","34742","","null","","","null","32","","","","","","","","","","","","","","","",""
"","ITI","","html-keyboard-response","214","258199","0.0-1.0-297.0","0","0","34742","","null","","","null","32","","","","","","","","","","","","","","","NaN",""
"","S1","","html-keyboard-response","215","258356","0.0-1.0-299.0","0","0","34742","","null","","","null","33","","","","","","","","","","","","","","","",""
"","ISI","","html-keyboard-response","216","260366","0.0-1.0-300.0","0","0","34742","","null","","","null","33","NaN","","","","","","","","","","","","","","",""
"","S2","","html-keyboard-response","217","260528","0.0-1.0-301.0","0","0","34742","","null","","","null","33","","NaN","","","","","","","","","","","","","",""
"","response","","html-keyboard-response","218","261164","0.0-1.0-302.0-0.0","0","0","34742","","633","","","75","33","","","1","33","training","adjacent","FE","6","5","M.jpg","P.jpg","0","0","1","",""
"","feedback","","html-keyboard-response","219","262176","0.0-1.0-303.0-0.0","0","0","34742","","null","","","null","33","","","","","","","","","","","","","","","",""
"","ITI","","html-keyboard-response","220","263181","0.0-1.0-306.0","0","0","34742","","null","","","null","33","","","","","","","","","","","","","","","NaN",""
"","S1","","html-keyboard-response","221","263343","0.0-1.0-308.0","0","0","34742","","null","","","null","34","","","","","","","","","","","","","","","",""
"","ISI","","html-keyboard-response","222","265352","0.0-1.0-309.0","0","0","34742","","null","","","null","34","NaN","","","","","","","","","","","","","","",""
"","S2","","html-keyboard-response","223","265509","0.0-1.0-310.0","0","0","34742","","null","","","null","34","","NaN","","","","","","","","","","","","","",""
"","response","","html-keyboard-response","224","266051","0.0-1.0-311.0-0.0","0","0","34742","","540","","","68","34","","","1","34","training","adjacent","ED","5","4","P.jpg","R.jpg","1","0","0","",""
"","feedback","","html-keyboard-response","225","267064","0.0-1.0-312.0-0.0","0","0","34742","","null","","","null","34","","","","","","","","","","","","","","","",""
"","time_out","","html-keyboard-response","226","269072","0.0-1.0-314.0-0.0","0","0","34742","","null","","","null","34","","","","","","","","","","","","","","","",""
"","ITI","","html-keyboard-response","227","270077","0.0-1.0-315.0","0","0","34742","","null","","","null","34","","","","","","","","","","","","","","","NaN",""
"","S1","","html-keyboard-response","228","270239","0.0-1.0-317.0","0","0","34742","","null","","","null","35","","","","","","","","","","","","","","","",""
"","ISI","","html-keyboard-response","229","272248","0.0-1.0-318.0","0","0","34742","","null","","","null","35","NaN","","","","","","","","","","","","","","",""
"","S2","","html-keyboard-response","230","272404","0.0-1.0-319.0","0","0","34742","","null","","","null","35","","NaN","","","","","","","","","","","","","",""
"","response","","html-keyboard-response","231","273032","0.0-1.0-320.0-0.0","0","0","34742","","626","","","68","35","","","1","35","training","adjacent","ED","5","4","P.jpg","R.jpg","1","0","0","",""
"","feedback","","html-keyboard-response","232","274036","0.0-1.0-321.0-0.0","0","0","34742","","null","","","null","35","","","","","","","","","","","","","","","",""
"","time_out","","html-keyboard-response","233","276044","0.0-1.0-323.0-0.0","0","0","34742","","null","","","null","35","","","","","","","","","","","","","","","",""
"","ITI","","html-keyboard-response","234","277054","0.0-1.0-324.0","0","0","34742","","null","","","null","35","","","","","","","","","","","","","","","NaN",""
"","S1","","html-keyboard-response","235","277217","0.0-1.0-326.0","0","0","34742","","null","","","null","36","","","","","","","","","","","","","","","",""
"","ISI","","html-keyboard-response","236","279220","0.0-1.0-327.0","0","0","34742","","null","","","null","36","NaN","","","","","","","","","","","","","","",""
"","S2","","html-keyboard-response","237","279382","0.0-1.0-328.0","0","0","34742","","null","","","null","36","","NaN","","","","","","","","","","","","","",""
"","response","","html-keyboard-response","238","280916","0.0-1.0-329.0-0.0","0","0","34742","","1531","","","75","36","","","1","36","training","adjacent","GF","7","6","L.jpg","M.jpg","0","0","1","",""
"","feedback","","html-keyboard-response","239","281924","0.0-1.0-330.0-0.0","0","0","34742","","null","","","null","36","","","","","","","","","","","","","","","",""
"","ITI","","html-keyboard-response","240","282934","0.0-1.0-333.0","0","0","34742","","null","","","null","36","","","","","","","","","","","","","","","NaN",""
"","S1","","html-keyboard-response","241","283092","0.0-1.0-335.0","0","0","34742","","null","","","null","37","","","","","","","","","","","","","","","",""
"","ISI","","html-keyboard-response","242","285100","0.0-1.0-336.0","0","0","34742","","null","","","null","37","NaN","","","","","","","","","","","","","","",""
"","S2","","html-keyboard-response","243","285262","0.0-1.0-337.0","0","0","34742","","null","","","null","37","","NaN","","","","","","","","","","","","","",""
"","response","","html-keyboard-response","244","285990","0.0-1.0-338.0-0.0","0","0","34742","","726","","","68","37","","","1","37","training","adjacent","FG","6","7","M.jpg","L.jpg","1","1","1","",""
"","feedback","","html-keyboard-response","245","286998","0.0-1.0-339.0-0.0","0","0","34742","","null","","","null","37","","","","","","","","","","","","","","","",""
"","ITI","","html-keyboard-response","246","288008","0.0-1.0-342.0","0","0","34742","","null","","","null","37","","","","","","","","","","","","","","","NaN",""
"","S1","","html-keyboard-response","247","288165","0.0-1.0-344.0","0","0","34742","","null","","","null","38","","","","","","","","","","","","","","","",""
"","ISI","","html-keyboard-response","248","290173","0.0-1.0-345.0","0","0","34742","","null","","","null","38","NaN","","","","","","","","","","","","","","",""
"","S2","","html-keyboard-response","249","290336","0.0-1.0-346.0","0","0","34742","","null","","","null","38","","NaN","","","","","","","","","","","","","",""
"","response","","html-keyboard-response","250","291418","0.0-1.0-347.0-0.0","0","0","34742","","1080","","","75","38","","","1","38","training","adjacent","CD","3","4","N.jpg","R.jpg","0","1","0","",""
"","feedback","","html-keyboard-response","251","292431","0.0-1.0-348.0-0.0","0","0","34742","","null","","","null","38","","","","","","","","","","","","","","","",""
"","time_out","","html-keyboard-response","252","294439","0.0-1.0-350.0-0.0","0","0","34742","","null","","","null","38","","","","","","","","","","","","","","","",""
"","ITI","","html-keyboard-response","253","295444","0.0-1.0-351.0","0","0","34742","","null","","","null","38","","","","","","","","","","","","","","","NaN",""
"","S1","","html-keyboard-response","254","295606","0.0-1.0-353.0","0","0","34742","","null","","","null","39","","","","","","","","","","","","","","","",""
"","ISI","","html-keyboard-response","255","297615","0.0-1.0-354.0","0","0","34742","","null","","","null","39","NaN","","","","","","","","","","","","","","",""
"","S2","","html-keyboard-response","256","297772","0.0-1.0-355.0","0","0","34742","","null","","","null","39","","NaN","","","","","","","","","","","","","",""
"","response","","html-keyboard-response","257","298197","0.0-1.0-356.0-0.0","0","0","34742","","424","","","75","39","","","1","39","training","adjacent","BA","2","1","Q.jpg","O.jpg","0","0","1","",""
"","feedback","","html-keyboard-response","258","299205","0.0-1.0-357.0-0.0","0","0","34742","","null","","","null","39","","","","","","","","","","","","","","","",""
"","ITI","","html-keyboard-response","259","300216","0.0-1.0-360.0","0","0","34742","","null","","","null","39","","","","","","","","","","","","","","","NaN",""
"","S1","","html-keyboard-response","260","300372","0.0-1.0-362.0","0","0","34742","","null","","","null","40","","","","","","","","","","","","","","","",""
"","ISI","","html-keyboard-response","261","302381","0.0-1.0-363.0","0","0","34742","","null","","","null","40","NaN","","","","","","","","","","","","","","",""
"","S2","","html-keyboard-response","262","302543","0.0-1.0-364.0","0","0","34742","","null","","","null","40","","NaN","","","","","","","","","","","","","",""
"","response","","html-keyboard-response","263","303629","0.0-1.0-365.0-0.0","0","0","34742","","1084","","","75","40","","","1","40","training","adjacent","BC","2","3","Q.jpg","N.jpg","0","1","0","",""
"","feedback","","html-keyboard-response","264","304639","0.0-1.0-366.0-0.0","0","0","34742","","null","","","null","40","","","","","","","","","","","","","","","",""
"","time_out","","html-keyboard-response","265","306647","0.0-1.0-368.0-0.0","0","0","34742","","null","","","null","40","","","","","","","","","","","","","","","",""
"","ITI","","html-keyboard-response","266","307652","0.0-1.0-369.0","0","0","34742","","null","","","null","40","","","","","","","","","","","","","","","NaN",""
"","S1","","html-keyboard-response","267","307814","0.0-1.0-371.0","0","0","34742","","null","","","null","41","","","","","","","","","","","","","","","",""
"","ISI","","html-keyboard-response","268","309823","0.0-1.0-372.0","0","0","34742","","null","","","null","41","NaN","","","","","","","","","","","","","","",""
"","S2","","html-keyboard-response","269","309979","0.0-1.0-373.0","0","0","34742","","null","","","null","41","","NaN","","","","","","","","","","","","","",""
"","response","","html-keyboard-response","270","310635","0.0-1.0-374.0-0.0","0","0","34742","","654","","","75","41","","","1","41","training","adjacent","BA","2","1","Q.jpg","O.jpg","0","0","1","",""
"","feedback","","html-keyboard-response","271","311645","0.0-1.0-375.0-0.0","0","0","34742","","null","","","null","41","","","","","","","","","","","","","","","",""
"","ITI","","html-keyboard-response","272","312655","0.0-1.0-378.0","0","0","34742","","null","","","null","41","","","","","","","","","","","","","","","NaN",""
"","S1","","html-keyboard-response","273","312812","0.0-1.0-380.0","0","0","34742","","null","","","null","42","","","","","","","","","","","","","","","",""
"","ISI","","html-keyboard-response","274","314820","0.0-1.0-381.0","0","0","34742","","null","","","null","42","NaN","","","","","","","","","","","","","","",""
"","S2","","html-keyboard-response","275","314983","0.0-1.0-382.0","0","0","34742","","null","","","null","42","","NaN","","","","","","","","","","","","","",""
"","response","","html-keyboard-response","276","315811","0.0-1.0-383.0-0.0","0","0","34742","","825","","","75","42","","","1","42","training","adjacent","GF","7","6","L.jpg","M.jpg","0","0","1","",""
"","feedback","","html-keyboard-response","277","316823","0.0-1.0-384.0-0.0","0","0","34742","","null","","","null","42","","","","","","","","","","","","","","","",""
"","ITI","","html-keyboard-response","278","317828","0.0-1.0-387.0","0","0","34742","","null","","","null","42","","","","","","","","","","","","","","","NaN",""
"","S1","","html-keyboard-response","279","317989","0.0-1.0-389.0","0","0","34742","","null","","","null","43","","","","","","","","","","","","","","","",""
"","ISI","","html-keyboard-response","280","319998","0.0-1.0-390.0","0","0","34742","","null","","","null","43","NaN","","","","","","","","","","","","","","",""
"","S2","","html-keyboard-response","281","320155","0.0-1.0-391.0","0","0","34742","","null","","","null","43","","NaN","","","","","","","","","","","","","",""
"","response","","html-keyboard-response","282","321251","0.0-1.0-392.0-0.0","0","0","34742","","1094","","","68","43","","","1","43","training","adjacent","CB","3","2","N.jpg","Q.jpg","1","0","0","",""
"","feedback","","html-keyboard-response","283","322262","0.0-1.0-393.0-0.0","0","0","34742","","null","","","null","43","","","","","","","","","","","","","","","",""
"","time_out","","html-keyboard-response","284","324271","0.0-1.0-395.0-0.0","0","0","34742","","null","","","null","43","","","","","","","","","","","","","","","",""
"","ITI","","html-keyboard-response","285","325275","0.0-1.0-396.0","0","0","34742","","null","","","null","43","","","","","","","","","","","","","","","NaN",""
"","S1","","html-keyboard-response","286","325438","0.0-1.0-398.0","0","0","34742","","null","","","null","44","","","","","","","","","","","","","","","",""
"","ISI","","html-keyboard-response","287","327446","0.0-1.0-399.0","0","0","34742","","null","","","null","44","NaN","","","","","","","","","","","","","","",""
"","S2","","html-keyboard-response","288","327603","0.0-1.0-400.0","0","0","34742","","null","","","null","44","","NaN","","","","","","","","","","","","","",""
"","response","","html-keyboard-response","289","328467","0.0-1.0-401.0-0.0","0","0","34742","","861","","","75","44","","","1","44","training","adjacent","DE","4","5","R.jpg","P.jpg","0","1","0","",""
"","feedback","","html-keyboard-response","290","329474","0.0-1.0-402.0-0.0","0","0","34742","","null","","","null","44","","","","","","","","","","","","","","","",""
"","time_out","","html-keyboard-response","291","331487","0.0-1.0-404.0-0.0","0","0","34742","","null","","","null","44","","","","","","","","","","","","","","","",""
"","ITI","","html-keyboard-response","292","332491","0.0-1.0-405.0","0","0","34742","","null","","","null","44","","","","","","","","","","","","","","","NaN",""
"","S1","","html-keyboard-response","293","332653","0.0-1.0-407.0","0","0","34742","","null","","","null","45","","","","","","","","","","","","","","","",""
"","ISI","","html-keyboard-response","294","334661","0.0-1.0-408.0","0","0","34742","","null","","","null","45","NaN","","","","","","","","","","","","","","",""
"","S2","","html-keyboard-response","295","334818","0.0-1.0-409.0","0","0","34742","","null","","","null","45","","NaN","","","","","","","","","","","","","",""
"","response","","html-keyboard-response","296","336235","0.0-1.0-410.0-0.0","0","0","34742","","1414","","","68","45","","","1","45","training","adjacent","DC","4","3","R.jpg","N.jpg","1","0","0","",""
"","feedback","","html-keyboard-response","297","337244","0.0-1.0-411.0-0.0","0","0","34742","","null","","","null","45","","","","","","","","","","","","","","","",""
"","time_out","","html-keyboard-response","298","339253","0.0-1.0-413.0-0.0","0","0","34742","","null","","","null","45","","","","","","","","","","","","","","","",""
"","ITI","","html-keyboard-response","299","340263","0.0-1.0-414.0","0","0","34742","","null","","","null","45","","","","","","","","","","","","","","","NaN",""
"","S1","","html-keyboard-response","300","340420","0.0-1.0-416.0","0","0","34742","","null","","","null","46","","","","","","","","","","","","","","","",""
"","ISI","","html-keyboard-response","301","342428","0.0-1.0-417.0","0","0","34742","","null","","","null","46","NaN","","","","","","","","","","","","","","",""
"","S2","","html-keyboard-response","302","342591","0.0-1.0-418.0","0","0","34742","","null","","","null","46","","NaN","","","","","","","","","","","","","",""
"","response","","html-keyboard-response","303","343234","0.0-1.0-419.0-0.0","0","0","34742","","640","","","68","46","","","1","46","training","adjacent","ED","5","4","P.jpg","R.jpg","1","0","0","",""
"","feedback","","html-keyboard-response","304","344245","0.0-1.0-420.0-0.0","0","0","34742","","null","","","null","46","","","","","","","","","","","","","","","",""
"","time_out","","html-keyboard-response","305","346253","0.0-1.0-422.0-0.0","0","0","34742","","null","","","null","46","","","","","","","","","","","","","","","",""
"","ITI","","html-keyboard-response","306","347260","0.0-1.0-423.0","0","0","34742","","null","","","null","46","","","","","","","","","","","","","","","NaN",""
"","S1","","html-keyboard-response","307","347420","0.0-1.0-425.0","0","0","34742","","null","","","null","47","","","","","","","","","","","","","","","",""
"","ISI","","html-keyboard-response","308","349429","0.0-1.0-426.0","0","0","34742","","null","","","null","47","NaN","","","","","","","","","","","","","","",""
"","S2","","html-keyboard-response","309","349591","0.0-1.0-427.0","0","0","34742","","null","","","null","47","","NaN","","","","","","","","","","","","","",""
"","response","","html-keyboard-response","310","350015","0.0-1.0-428.0-0.0","0","0","34742","","421","","","75","47","","","1","47","training","adjacent","DE","4","5","R.jpg","P.jpg","0","1","0","",""
"","feedback","","html-keyboard-response","311","351020","0.0-1.0-429.0-0.0","0","0","34742","","null","","","null","47","","","","","","","","","","","","","","","",""
"","time_out","","html-keyboard-response","312","353028","0.0-1.0-431.0-0.0","0","0","34742","","null","","","null","47","","","","","","","","","","","","","","","",""
"","ITI","","html-keyboard-response","313","354038","0.0-1.0-432.0","0","0","34742","","null","","","null","47","","","","","","","","","","","","","","","NaN",""
"","block_over","","html-keyboard-response","314","358308","0.0-1.0-433.0-0.0","0","0","34742","","4266","","","32","47","","","","","","","","","","","","","","","",""
"","S1","","html-keyboard-response","315","358467","0.0-1.0-434.0","0","0","34742","","null","","","null","48","","","","","","","","","","","","","","","",""
"","ISI","","html-keyboard-response","316","360476","0.0-1.0-435.0","0","0","34742","","null","","","null","48","NaN","","","","","","","","","","","","","","",""
"","S2","","html-keyboard-response","317","360638","0.0-1.0-436.0","0","0","34742","","null","","","null","48","","NaN","","","","","","","","","","","","","",""
"","response","","html-keyboard-response","318","361644","0.0-1.0-437.0-0.0","0","0","34742","","1003","","","68","48","","","2","48","training","adjacent","GF","7","6","L.jpg","M.jpg","1","0","0","",""
"","feedback","","html-keyboard-response","319","362652","0.0-1.0-438.0-0.0","0","0","34742","","null","","","null","48","","","","","","","","","","","","","","","",""
"","time_out","","html-keyboard-response","320","364661","0.0-1.0-440.0-0.0","0","0","34742","","null","","","null","48","","","","","","","","","","","","","","","",""
"","ITI","","html-keyboard-response","321","365668","0.0-1.0-441.0","0","0","34742","","null","","","null","48","","","","","","","","","","","","","","","NaN",""
"","S1","","html-keyboard-response","322","365828","0.0-1.0-443.0","0","0","34742","","null","","","null","49","","","","","","","","","","","","","","","",""
"","ISI","","html-keyboard-response","323","367836","0.0-1.0-444.0","0","0","34742","","null","","","null","49","NaN","","","","","","","","","","","","","","",""
"","S2","","html-keyboard-response","324","367999","0.0-1.0-445.0","0","0","34742","","null","","","null","49","","NaN","","","","","","","","","","","","","",""
"","response","","html-keyboard-response","325","368349","0.0-1.0-446.0-0.0","0","0","34742","","348","","","75","49","","","2","49","training","adjacent","DE","4","5","R.jpg","P.jpg","0","1","0","",""
"","feedback","","html-keyboard-response","326","369357","0.0-1.0-447.0-0.0","0","0","34742","","null","","","null","49","","","","","","","","","","","","","","","",""
"","time_out","","html-keyboard-response","327","371366","0.0-1.0-449.0-0.0","0","0","34742","","null","","","null","49","","","","","","","","","","","","","","","",""
"","ITI","","html-keyboard-response","328","372370","0.0-1.0-450.0","0","0","34742","","null","","","null","49","","","","","","","","","","","","","","","NaN",""
"","S1","","html-keyboard-response","329","372532","0.0-1.0-452.0","0","0","34742","","null","","","null","50","","","","","","","","","","","","","","","",""
"","ISI","","html-keyboard-response","330","374541","0.0-1.0-453.0","0","0","34742","","null","","","null","50","NaN","","","","","","","","","","","","","","",""
"","S2","","html-keyboard-response","331","374702","0.0-1.0-454.0","0","0","34742","","null","","","null","50","","NaN","","","","","","","","","","","","","",""
"","response","","html-keyboard-response","332","375594","0.0-1.0-455.0-0.0","0","0","34742","","890","","","68","50","","","2","50","training","adjacent","CB","3","2","N.jpg","Q.jpg","1","0","0","",""
"","feedback","","html-keyboard-response","333","376602","0.0-1.0-456.0-0.0","0","0","34742","","null","","","null","50","","","","","","","","","","","","","","","",""
"","time_out","","html-keyboard-response","334","378610","0.0-1.0-458.0-0.0","0","0","34742","","null","","","null","50","","","","","","","","","","","","","","","",""
"","ITI","","html-keyboard-response","335","379620","0.0-1.0-459.0","0","0","34742","","null","","","null","50","","","","","","","","","","","","","","","NaN",""
"","S1","","html-keyboard-response","336","379777","0.0-1.0-461.0","0","0","34742","","null","","","null","51","","","","","","","","","","","","","","","",""
"","ISI","","html-keyboard-response","337","381785","0.0-1.0-462.0","0","0","34742","","null","","","null","51","NaN","","","","","","","","","","","","","","",""
"","S2","","html-keyboard-response","338","381948","0.0-1.0-463.0","0","0","34742","","null","","","null","51","","NaN","","","","","","","","","","","","","",""
"","response","","html-keyboard-response","339","382829","0.0-1.0-464.0-0.0","0","0","34742","","878","","","75","51","","","2","51","training","adjacent","FG","6","7","M.jpg","L.jpg","0","1","0","",""
"","feedback","","html-keyboard-response","340","383834","0.0-1.0-465.0-0.0","0","0","34742","","null","","","null","51","","","","","","","","","","","","","","","",""
"","time_out","","html-keyboard-response","341","385843","0.0-1.0-467.0-0.0","0","0","34742","","null","","","null","51","","","","","","","","","","","","","","","",""
"","ITI","","html-keyboard-response","342","386853","0.0-1.0-468.0","0","0","34742","","null","","","null","51","","","","","","","","","","","","","","","NaN",""
"","S1","","html-keyboard-response","343","387009","0.0-1.0-470.0","0","0","34742","","null","","","null","52","","","","","","","","","","","","","","","",""
"","ISI","","html-keyboard-response","344","389018","0.0-1.0-471.0","0","0","34742","","null","","","null","52","NaN","","","","","","","","","","","","","","",""
"","S2","","html-keyboard-response","345","389181","0.0-1.0-472.0","0","0","34742","","null","","","null","52","","NaN","","","","","","","","","","","","","",""
"","response","","html-keyboard-response","346","389620","0.0-1.0-473.0-0.0","0","0","34742","","437","","","75","52","","","2","52","training","adjacent","FE","6","5","M.jpg","P.jpg","0","0","1","",""
"","feedback","","html-keyboard-response","347","390626","0.0-1.0-474.0-0.0","0","0","34742","","null","","","null","52","","","","","","","","","","","","","","","",""
"","ITI","","html-keyboard-response","348","391636","0.0-1.0-477.0","0","0","34742","","null","","","null","52","","","","","","","","","","","","","","","NaN",""
"","S1","","html-keyboard-response","349","391793","0.0-1.0-479.0","0","0","34742","","null","","","null","53","","","","","","","","","","","","","","","",""
"","ISI","","html-keyboard-response","350","393801","0.0-1.0-480.0","0","0","34742","","null","","","null","53","NaN","","","","","","","","","","","","","","",""
"","S2","","html-keyboard-response","351","393964","0.0-1.0-481.0","0","0","34742","","null","","","null","53","","NaN","","","","","","","","","","","","","",""
"","response","","html-keyboard-response","352","394921","0.0-1.0-482.0-0.0","0","0","34742","","955","","","75","53","","","2","53","training","adjacent","GF","7","6","L.jpg","M.jpg","0","0","1","",""
"","feedback","","html-keyboard-response","353","395932","0.0-1.0-483.0-0.0","0","0","34742","","null","","","null","53","","","","","","","","","","","","","","","",""
"","ITI","","html-keyboard-response","354","396942","0.0-1.0-486.0","0","0","34742","","null","","","null","53","","","","","","","","","","","","","","","NaN",""
"","S1","","html-keyboard-response","355","397098","0.0-1.0-488.0","0","0","34742","","null","","","null","54","","","","","","","","","","","","","","","",""
"","ISI","","html-keyboard-response","356","399107","0.0-1.0-489.0","0","0","34742","","null","","","null","54","NaN","","","","","","","","","","","","","","",""
"","S2","","html-keyboard-response","357","399270","0.0-1.0-490.0","0","0","34742","","null","","","null","54","","NaN","","","","","","","","","","","","","",""
"","response","","html-keyboard-response","358","400106","0.0-1.0-491.0-0.0","0","0","34742","","834","","","68","54","","","2","54","training","adjacent","CB","3","2","N.jpg","Q.jpg","1","0","0","",""
"","feedback","","html-keyboard-response","359","401114","0.0-1.0-492.0-0.0","0","0","34742","","null","","","null","54","","","","","","","","","","","","","","","",""
"","time_out","","html-keyboard-response","360","403124","0.0-1.0-494.0-0.0","0","0","34742","","null","","","null","54","","","","","","","","","","","","","","","",""
"","ITI","","html-keyboard-response","361","404134","0.0-1.0-495.0","0","0","34742","","null","","","null","54","","","","","","","","","","","","","","","NaN",""
"","S1","","html-keyboard-response","362","404290","0.0-1.0-497.0","0","0","34742","","null","","","null","55","","","","","","","","","","","","","","","",""
"","ISI","","html-keyboard-response","363","406293","0.0-1.0-498.0","0","0","34742","","null","","","null","55","NaN","","","","","","","","","","","","","","",""
"","S2","","html-keyboard-response","364","406450","0.0-1.0-499.0","0","0","34742","","null","","","null","55","","NaN","","","","","","","","","","","","","",""
"","response","","html-keyboard-response","365","406975","0.0-1.0-500.0-0.0","0","0","34742","","522","","","75","55","","","2","55","training","adjacent","DE","4","5","R.jpg","P.jpg","0","1","0","",""
"","feedback","","html-keyboard-response","366","407988","0.0-1.0-501.0-0.0","0","0","34742","","null","","","null","55","","","","","","","","","","","","","","","",""
"","time_out","","html-keyboard-response","367","409997","0.0-1.0-503.0-0.0","0","0","34742","","null","","","null","55","","","","","","","","","","","","","","","",""
"","ITI","","html-keyboard-response","368","411001","0.0-1.0-504.0","0","0","34742","","null","","","null","55","","","","","","","","","","","","","","","NaN",""
"","S1","","html-keyboard-response","369","411164","0.0-1.0-506.0","0","0","34742","","null","","","null","56","","","","","","","","","","","","","","","",""
"","ISI","","html-keyboard-response","370","413172","0.0-1.0-507.0","0","0","34742","","null","","","null","56","NaN","","","","","","","","","","","","","","",""
"","S2","","html-keyboard-response","371","413329","0.0-1.0-508.0","0","0","34742","","null","","","null","56","","NaN","","","","","","","","","","","","","",""
"","response","","html-keyboard-response","372","414041","0.0-1.0-509.0-0.0","0","0","34742","","710","","","68","56","","","2","56","training","adjacent","CB","3","2","N.jpg","Q.jpg","1","0","0","",""
"","feedback","","html-keyboard-response","373","415052","0.0-1.0-510.0-0.0","0","0","34742","","null","","","null","56","","","","","","","","","","","","","","","",""
"","time_out","","html-keyboard-response","374","417061","0.0-1.0-512.0-0.0","0","0","34742","","null","","","null","56","","","","","","","","","","","","","","","",""
"","ITI","","html-keyboard-response","375","418076","0.0-1.0-513.0","0","0","34742","","null","","","null","56","","","","","","","","","","","","","","","NaN",""
"","S1","","html-keyboard-response","376","418234","0.0-1.0-515.0","0","0","34742","","null","","","null","57","","","","","","","","","","","","","","","",""
"","ISI","","html-keyboard-response","377","420242","0.0-1.0-516.0","0","0","34742","","null","","","null","57","NaN","","","","","","","","","","","","","","",""
"","S2","","html-keyboard-response","378","420405","0.0-1.0-517.0","0","0","34742","","null","","","null","57","","NaN","","","","","","","","","","","","","",""
"","response","","html-keyboard-response","379","421610","0.0-1.0-518.0-0.0","0","0","34742","","1203","","","68","57","","","2","57","training","adjacent","DC","4","3","R.jpg","N.jpg","1","0","0","",""
"","feedback","","html-keyboard-response","380","422617","0.0-1.0-519.0-0.0","0","0","34742","","null","","","null","57","","","","","","","","","","","","","","","",""
"","time_out","","html-keyboard-response","381","424625","0.0-1.0-521.0-0.0","0","0","34742","","null","","","null","57","","","","","","","","","","","","","","","",""
"","ITI","","html-keyboard-response","382","425635","0.0-1.0-522.0","0","0","34742","","null","","","null","57","","","","","","","","","","","","","","","NaN",""
"","S1","","html-keyboard-response","383","425792","0.0-1.0-524.0","0","0","34742","","null","","","null","58","","","","","","","","","","","","","","","",""
"","ISI","","html-keyboard-response","384","427800","0.0-1.0-525.0","0","0","34742","","1909","","","68","58","d","","","","","","","","","","","","","","",""
"","S2","","html-keyboard-response","385","428061","0.0-1.0-526.0","0","0","34742","","null","","","null","58","","NaN","","","","","","","","","","","","","",""
"","response","","html-keyboard-response","386","428271","0.0-1.0-527.0-0.0","0","0","34742","","208","","","75","58","","","2","58","training","adjacent","BA","2","1","Q.jpg","O.jpg","0","0","1","",""
"","feedback","","html-keyboard-response","387","429280","0.0-1.0-528.0-0.0","0","0","34742","","null","","","null","58","","","","","","","","","","","","","","","",""
"","ITI","","html-keyboard-response","388","430290","0.0-1.0-531.0","0","0","34742","","null","","","null","58","","","","","","","","","","","","","","","NaN",""
"","S1","","html-keyboard-response","389","430453","0.0-1.0-533.0","0","0","34742","","null","","","null","59","","","","","","","","","","","","","","","",""
"","ISI","","html-keyboard-response","390","432467","0.0-1.0-534.0","0","0","34742","","null","","","null","59","NaN","","","","","","","","","","","","","","",""
"","S2","","html-keyboard-response","391","432624","0.0-1.0-535.0","0","0","34742","","null","","","null","59","","NaN","","","","","","","","","","","","","",""
"","response","","html-keyboard-response","392","433254","0.0-1.0-536.0-0.0","0","0","34742","","627","","","68","59","","","2","59","training","adjacent","EF","5","6","P.jpg","M.jpg","1","1","1","",""
"","feedback","","html-keyboard-response","393","434267","0.0-1.0-537.0-0.0","0","0","34742","","null","","","null","59","","","","","","","","","","","","","","","",""
"","ITI","","html-keyboard-response","394","435274","0.0-1.0-540.0","0","0","34742","","null","","","null","59","","","","","","","","","","","","","","","NaN",""
"","S1","","html-keyboard-response","395","435434","0.0-1.0-542.0","0","0","34742","","null","","","null","60","","","","","","","","","","","","","","","",""
"","ISI","","html-keyboard-response","396","437443","0.0-1.0-543.0","0","0","34742","","null","","","null","60","NaN","","","","","","","","","","","","","","",""
"","S2","","html-keyboard-response","397","437605","0.0-1.0-544.0","0","0","34742","","null","","","null","60","","NaN","","","","","","","","","","","","","",""
"","response","","html-keyboard-response","398","438345","0.0-1.0-545.0-0.0","0","0","34742","","738","","","75","60","","","2","60","training","adjacent","ED","5","4","P.jpg","R.jpg","0","0","1","",""
"","feedback","","html-keyboard-response","399","439352","0.0-1.0-546.0-0.0","0","0","34742","","null","","","null","60","","","","","","","","","","","","","","","",""
"","ITI","","html-keyboard-response","400","440361","0.0-1.0-549.0","0","0","34742","","null","","","null","60","","","","","","","","","","","","","","","NaN",""
"","S1","","html-keyboard-response","401","440524","0.0-1.0-551.0","0","0","34742","","null","","","null","61","","","","","","","","","","","","","","","",""
"","ISI","","html-keyboard-response","402","442529","0.0-1.0-552.0","0","0","34742","","null","","","null","61","NaN","","","","","","","","","","","","","","",""
"","S2","","html-keyboard-response","403","442690","0.0-1.0-553.0","0","0","34742","","null","","","null","61","","NaN","","","","","","","","","","","","","",""
"","response","","html-keyboard-response","404","443924","0.0-1.0-554.0-0.0","0","0","34742","","1232","","","75","61","","","2","61","training","adjacent","BC","2","3","Q.jpg","N.jpg","0","1","0","",""
"","feedback","","html-keyboard-response","405","444931","0.0-1.0-555.0-0.0","0","0","34742","","null","","","null","61","","","","","","","","","","","","","","","",""
"","time_out","","html-keyboard-response","406","446939","0.0-1.0-557.0-0.0","0","0","34742","","null","","","null","61","","","","","","","","","","","","","","","",""
"","ITI","","html-keyboard-response","407","447943","0.0-1.0-558.0","0","0","34742","","null","","","null","61","","","","","","","","","","","","","","","NaN",""
"","S1","","html-keyboard-response","408","448105","0.0-1.0-560.0","0","0","34742","","null","","","null","62","","","","","","","","","","","","","","","",""
"","ISI","","html-keyboard-response","409","450114","0.0-1.0-561.0","0","0","34742","","null","","","null","62","NaN","","","","","","","","","","","","","","",""
"","S2","","html-keyboard-response","410","450276","0.0-1.0-562.0","0","0","34742","","null","","","null","62","","NaN","","","","","","","","","","","","","",""
"","response","","html-keyboard-response","411","451279","0.0-1.0-563.0-0.0","0","0","34742","","1000","","","75","62","","","2","62","training","adjacent","FG","6","7","M.jpg","L.jpg","0","1","0","",""
"","feedback","","html-keyboard-response","412","452291","0.0-1.0-564.0-0.0","0","0","34742","","null","","","null","62","","","","","","","","","","","","","","","",""
"","time_out","","html-keyboard-response","413","454299","0.0-1.0-566.0-0.0","0","0","34742","","null","","","null","62","","","","","","","","","","","","","","","",""
"","ITI","","html-keyboard-response","414","455304","0.0-1.0-567.0","0","0","34742","","null","","","null","62","","","","","","","","","","","","","","","NaN",""
"","S1","","html-keyboard-response","415","455466","0.0-1.0-569.0","0","0","34742","","null","","","null","63","","","","","","","","","","","","","","","",""
"","ISI","","html-keyboard-response","416","457475","0.0-1.0-570.0","0","0","34742","","null","","","null","63","NaN","","","","","","","","","","","","","","",""
"","S2","","html-keyboard-response","417","457631","0.0-1.0-571.0","0","0","34742","","null","","","null","63","","NaN","","","","","","","","","","","","","",""
"","response","","html-keyboard-response","418","458682","0.0-1.0-572.0-0.0","0","0","34742","","1048","","","68","63","","","2","63","training","adjacent","BA","2","1","Q.jpg","O.jpg","1","0","0","",""
"","feedback","","html-keyboard-response","419","459691","0.0-1.0-573.0-0.0","0","0","34742","","null","","","null","63","","","","","","","","","","","","","","","",""
"","time_out","","html-keyboard-response","420","461700","0.0-1.0-575.0-0.0","0","0","34742","","null","","","null","63","","","","","","","","","","","","","","","",""
"","ITI","","html-keyboard-response","421","462716","0.0-1.0-576.0","0","0","34742","","null","","","null","63","","","","","","","","","","","","","","","NaN",""
"","S1","","html-keyboard-response","422","462873","0.0-1.0-578.0","0","0","34742","","null","","","null","64","","","","","","","","","","","","","","","",""
"","ISI","","html-keyboard-response","423","464882","0.0-1.0-579.0","0","0","34742","","null","","","null","64","NaN","","","","","","","","","","","","","","",""
"","S2","","html-keyboard-response","424","465044","0.0-1.0-580.0","0","0","34742","","null","","","null","64","","NaN","","","","","","","","","","","","","",""
"","response","","html-keyboard-response","425","466004","0.0-1.0-581.0-0.0","0","0","34742","","958","","","75","64","","","2","64","training","adjacent","CB","3","2","N.jpg","Q.jpg","0","0","1","",""
"","feedback","","html-keyboard-response","426","467018","0.0-1.0-582.0-0.0","0","0","34742","","null","","","null","64","","","","","","","","","","","","","","","",""
"","ITI","","html-keyboard-response","427","468028","0.0-1.0-585.0","0","0","34742","","null","","","null","64","","","","","","","","","","","","","","","NaN",""
"","S1","","html-keyboard-response","428","468185","0.0-1.0-587.0","0","0","34742","","null","","","null","65","","","","","","","","","","","","","","","",""
"","ISI","","html-keyboard-response","429","470192","0.0-1.0-588.0","0","0","34742","","null","","","null","65","NaN","","","","","","","","","","","","","","",""
"","S2","","html-keyboard-response","430","470356","0.0-1.0-589.0","0","0","34742","","null","","","null","65","","NaN","","","","","","","","","","","","","",""
"","response","","html-keyboard-response","431","471045","0.0-1.0-590.0-0.0","0","0","34742","","686","","","75","65","","","2","65","training","adjacent","AB","1","2","O.jpg","Q.jpg","0","1","0","",""
"","feedback","","html-keyboard-response","432","472056","0.0-1.0-591.0-0.0","0","0","34742","","null","","","null","65","","","","","","","","","","","","","","","",""
"","time_out","","html-keyboard-response","433","474065","0.0-1.0-593.0-0.0","0","0","34742","","null","","","null","65","","","","","","","","","","","","","","","",""
"","ITI","","html-keyboard-response","434","475074","0.0-1.0-594.0","0","0","34742","","null","","","null","65","","","","","","","","","","","","","","","NaN",""
"","S1","","html-keyboard-response","435","475232","0.0-1.0-596.0","0","0","34742","","null","","","null","66","","","","","","","","","","","","","","","",""
"","ISI","","html-keyboard-response","436","477240","0.0-1.0-597.0","0","0","34742","","null","","","null","66","NaN","","","","","","","","","","","","","","",""
"","S2","","html-keyboard-response","437","477403","0.0-1.0-598.0","0","0","34742","","null","","","null","66","","NaN","","","","","","","","","","","","","",""
"","response","","html-keyboard-response","438","478767","0.0-1.0-599.0-0.0","0","0","34742","","1362","","","68","66","","","2","66","training","adjacent","BC","2","3","Q.jpg","N.jpg","1","1","1","",""
"","feedback","","html-keyboard-response","439","479777","0.0-1.0-600.0-0.0","0","0","34742","","null","","","null","66","","","","","","","","","","","","","","","",""
"","ITI","","html-keyboard-response","440","480786","0.0-1.0-603.0","0","0","34742","","null","","","null","66","","","","","","","","","","","","","","","NaN",""
"","S1","","html-keyboard-response","441","480944","0.0-1.0-605.0","0","0","34742","","null","","","null","67","","","","","","","","","","","","","","","",""
"","ISI","","html-keyboard-response","442","482952","0.0-1.0-606.0","0","0","34742","","null","","","null","67","NaN","","","","","","","","","","","","","","",""
"","S2","","html-keyboard-response","443","483115","0.0-1.0-607.0","0","0","34742","","null","","","null","67","","NaN","","","","","","","","","","","","","",""
"","response","","html-keyboard-response","444","484096","0.0-1.0-608.0-0.0","0","0","34742","","980","","","68","67","","","2","67","training","adjacent","FE","6","5","M.jpg","P.jpg","1","0","0","",""
"","feedback","","html-keyboard-response","445","485106","0.0-1.0-609.0-0.0","0","0","34742","","null","","","null","67","","","","","","","","","","","","","","","",""
"","time_out","","html-keyboard-response","446","487114","0.0-1.0-611.0-0.0","0","0","34742","","null","","","null","67","","","","","","","","","","","","","","","",""
"","ITI","","html-keyboard-response","447","488118","0.0-1.0-612.0","0","0","34742","","null","","","null","67","","","","","","","","","","","","","","","NaN",""
"","S1","","html-keyboard-response","448","488281","0.0-1.0-614.0","0","0","34742","","null","","","null","68","","","","","","","","","","","","","","","",""
"","ISI","","html-keyboard-response","449","490289","0.0-1.0-615.0","0","0","34742","","null","","","null","68","NaN","","","","","","","","","","","","","","",""
"","S2","","html-keyboard-response","450","490446","0.0-1.0-616.0","0","0","34742","","null","","","null","68","","NaN","","","","","","","","","","","","","",""
"","response","","html-keyboard-response","451","491741","0.0-1.0-617.0-0.0","0","0","34742","","1293","","","68","68","","","2","68","training","adjacent","FG","6","7","M.jpg","L.jpg","1","1","1","",""
"","feedback","","html-keyboard-response","452","492750","0.0-1.0-618.0-0.0","0","0","34742","","null","","","null","68","","","","","","","","","","","","","","","",""
"","ITI","","html-keyboard-response","453","493761","0.0-1.0-621.0","0","0","34742","","null","","","null","68","","","","","","","","","","","","","","","NaN",""
"","S1","","html-keyboard-response","454","493923","0.0-1.0-623.0","0","0","34742","","null","","","null","69","","","","","","","","","","","","","","","",""
"","ISI","","html-keyboard-response","455","495931","0.0-1.0-624.0","0","0","34742","","null","","","null","69","NaN","","","","","","","","","","","","","","",""
"","S2","","html-keyboard-response","456","496088","0.0-1.0-625.0","0","0","34742","","null","","","null","69","","NaN","","","","","","","","","","","","","",""
"","response","","html-keyboard-response","457","497552","0.0-1.0-626.0-0.0","0","0","34742","","1462","","","68","69","","","2","69","training","adjacent","ED","5","4","P.jpg","R.jpg","1","0","0","",""
"","feedback","","html-keyboard-response","458","498561","0.0-1.0-627.0-0.0","0","0","34742","","null","","","null","69","","","","","","","","","","","","","","","",""
"","time_out","","html-keyboard-response","459","500570","0.0-1.0-629.0-0.0","0","0","34742","","null","","","null","69","","","","","","","","","","","","","","","",""
"","ITI","","html-keyboard-response","460","501576","0.0-1.0-630.0","0","0","34742","","null","","","null","69","","","","","","","","","","","","","","","NaN",""
"","S1","","html-keyboard-response","461","501737","0.0-1.0-632.0","0","0","34742","","null","","","null","70","","","","","","","","","","","","","","","",""
"","ISI","","html-keyboard-response","462","503745","0.0-1.0-633.0","0","0","34742","","null","","","null","70","NaN","","","","","","","","","","","","","","",""
"","S2","","html-keyboard-response","463","503902","0.0-1.0-634.0","0","0","34742","","null","","","null","70","","NaN","","","","","","","","","","","","","",""
"","response","","html-keyboard-response","464","504937","0.0-1.0-635.0-0.0","0","0","34742","","1033","","","75","70","","","2","70","training","adjacent","ED","5","4","P.jpg","R.jpg","0","0","1","",""
"","feedback","","html-keyboard-response","465","505945","0.0-1.0-636.0-0.0","0","0","34742","","null","","","null","70","","","","","","","","","","","","","","","",""
"","ITI","","html-keyboard-response","466","506955","0.0-1.0-639.0","0","0","34742","","null","","","null","70","","","","","","","","","","","","","","","NaN",""
"","S1","","html-keyboard-response","467","507111","0.0-1.0-641.0","0","0","34742","","null","","","null","71","","","","","","","","","","","","","","","",""
"","ISI","","html-keyboard-response","468","509120","0.0-1.0-642.0","0","0","34742","","null","","","null","71","NaN","","","","","","","","","","","","","","",""
"","S2","","html-keyboard-response","469","509283","0.0-1.0-643.0","0","0","34742","","null","","","null","71","","NaN","","","","","","","","","","","","","",""
"","response","","html-keyboard-response","470","510136","0.0-1.0-644.0-0.0","0","0","34742","","851","","","68","71","","","2","71","training","adjacent","CD","3","4","N.jpg","R.jpg","1","1","1","",""
"","feedback","","html-keyboard-response","471","511142","0.0-1.0-645.0-0.0","0","0","34742","","null","","","null","71","","","","","","","","","","","","","","","",""
"","ITI","","html-keyboard-response","472","512150","0.0-1.0-648.0","0","0","34742","","null","","","null","71","","","","","","","","","","","","","","","NaN",""
"","S1","","html-keyboard-response","473","512313","0.0-1.0-650.0","0","0","34742","","null","","","null","72","","","","","","","","","","","","","","","",""
"","ISI","","html-keyboard-response","474","514321","0.0-1.0-651.0","0","0","34742","","null","","","null","72","NaN","","","","","","","","","","","","","","",""
"","S2","","html-keyboard-response","475","514478","0.0-1.0-652.0","0","0","34742","","null","","","null","72","","NaN","","","","","","","","","","","","","",""
"","response","","html-keyboard-response","476","516051","0.0-1.0-653.0-0.0","0","0","34742","","1570","","","75","72","","","2","72","training","adjacent","GF","7","6","L.jpg","M.jpg","0","0","1","",""
"","feedback","","html-keyboard-response","477","517062","0.0-1.0-654.0-0.0","0","0","34742","","null","","","null","72","","","","","","","","","","","","","","","",""
"","ITI","","html-keyboard-response","478","518071","0.0-1.0-657.0","0","0","34742","","null","","","null","72","","","","","","","","","","","","","","","NaN",""
"","S1","","html-keyboard-response","479","518234","0.0-1.0-659.0","0","0","34742","","null","","","null","73","","","","","","","","","","","","","","","",""
"","ISI","","html-keyboard-response","480","520242","0.0-1.0-660.0","0","0","34742","","null","","","null","73","NaN","","","","","","","","","","","","","","",""
"","S2","","html-keyboard-response","481","520401","0.0-1.0-661.0","0","0","34742","","null","","","null","73","","NaN","","","","","","","","","","","","","",""
"","response","","html-keyboard-response","482","522234","0.0-1.0-662.0-0.0","0","0","34742","","1831","","","68","73","","","2","73","training","adjacent","CD","3","4","N.jpg","R.jpg","1","1","1","",""
"","feedback","","html-keyboard-response","483","523238","0.0-1.0-663.0-0.0","0","0","34742","","null","","","null","73","","","","","","","","","","","","","","","",""
"","ITI","","html-keyboard-response","484","524248","0.0-1.0-666.0","0","0","34742","","null","","","null","73","","","","","","","","","","","","","","","NaN",""
"","S1","","html-keyboard-response","485","524409","0.0-1.0-668.0","0","0","34742","","null","","","null","74","","","","","","","","","","","","","","","",""
"","ISI","","html-keyboard-response","486","526419","0.0-1.0-669.0","0","0","34742","","null","","","null","74","NaN","","","","","","","","","","","","","","",""
"","S2","","html-keyboard-response","487","526575","0.0-1.0-670.0","0","0","34742","","null","","","null","74","","NaN","","","","","","","","","","","","","",""
"","response","","html-keyboard-response","488","528093","0.0-1.0-671.0-0.0","0","0","34742","","1516","","","68","74","","","2","74","training","adjacent","ED","5","4","P.jpg","R.jpg","1","0","0","",""
"","feedback","","html-keyboard-response","489","529106","0.0-1.0-672.0-0.0","0","0","34742","","null","","","null","74","","","","","","","","","","","","","","","",""
"","time_out","","html-keyboard-response","490","531121","0.0-1.0-674.0-0.0","0","0","34742","","null","","","null","74","","","","","","","","","","","","","","","",""
"","ITI","","html-keyboard-response","491","532125","0.0-1.0-675.0","0","0","34742","","null","","","null","74","","","","","","","","","","","","","","","NaN",""
"","S1","","html-keyboard-response","492","532288","0.0-1.0-677.0","0","0","34742","","null","","","null","75","","","","","","","","","","","","","","","",""
"","ISI","","html-keyboard-response","493","534296","0.0-1.0-678.0","0","0","34742","","null","","","null","75","NaN","","","","","","","","","","","","","","",""
"","S2","","html-keyboard-response","494","534458","0.0-1.0-679.0","0","0","34742","","null","","","null","75","","NaN","","","","","","","","","","","","","",""
"","response","","html-keyboard-response","495","535548","0.0-1.0-680.0-0.0","0","0","34742","","1088","","","68","75","","","2","75","training","adjacent","DE","4","5","R.jpg","P.jpg","1","1","1","",""
"","feedback","","html-keyboard-response","496","536560","0.0-1.0-681.0-0.0","0","0","34742","","null","","","null","75","","","","","","","","","","","","","","","",""
"","ITI","","html-keyboard-response","497","537570","0.0-1.0-684.0","0","0","34742","","null","","","null","75","","","","","","","","","","","","","","","NaN",""
"","S1","","html-keyboard-response","498","537727","0.0-1.0-686.0","0","0","34742","","null","","","null","76","","","","","","","","","","","","","","","",""
"","ISI","","html-keyboard-response","499","539735","0.0-1.0-687.0","0","0","34742","","null","","","null","76","NaN","","","","","","","","","","","","","","",""
"","S2","","html-keyboard-response","500","539898","0.0-1.0-688.0","0","0","34742","","null","","","null","76","","NaN","","","","","","","","","","","","","",""
"","response","","html-keyboard-response","501","540779","0.0-1.0-689.0-0.0","0","0","34742","","879","","","75","76","","","2","76","training","adjacent","AB","1","2","O.jpg","Q.jpg","0","1","0","",""
"","feedback","","html-keyboard-response","502","541790","0.0-1.0-690.0-0.0","0","0","34742","","null","","","null","76","","","","","","","","","","","","","","","",""
"","time_out","","html-keyboard-response","503","543798","0.0-1.0-692.0-0.0","0","0","34742","","null","","","null","76","","","","","","","","","","","","","","","",""
"","ITI","","html-keyboard-response","504","544808","0.0-1.0-693.0","0","0","34742","","null","","","null","76","","","","","","","","","","","","","","","NaN",""
"","S1","","html-keyboard-response","505","544965","0.0-1.0-695.0","0","0","34742","","null","","","null","77","","","","","","","","","","","","","","","",""
"","ISI","","html-keyboard-response","506","546973","0.0-1.0-696.0","0","0","34742","","null","","","null","77","NaN","","","","","","","","","","","","","","",""
"","S2","","html-keyboard-response","507","547136","0.0-1.0-697.0","0","0","34742","","null","","","null","77","","NaN","","","","","","","","","","","","","",""
"","response","","html-keyboard-response","508","548369","0.0-1.0-698.0-0.0","0","0","34742","","1231","","","75","77","","","2","77","training","adjacent","EF","5","6","P.jpg","M.jpg","0","1","0","",""
"","feedback","","html-keyboard-response","509","549377","0.0-1.0-699.0-0.0","0","0","34742","","null","","","null","77","","","","","","","","","","","","","","","",""
"","time_out","","html-keyboard-response","510","551385","0.0-1.0-701.0-0.0","0","0","34742","","null","","","null","77","","","","","","","","","","","","","","","",""
"","ITI","","html-keyboard-response","511","552390","0.0-1.0-702.0","0","0","34742","","null","","","null","77","","","","","","","","","","","","","","","NaN",""
"","S1","","html-keyboard-response","512","552552","0.0-1.0-704.0","0","0","34742","","null","","","null","78","","","","","","","","","","","","","","","",""
"","ISI","","html-keyboard-response","513","554561","0.0-1.0-705.0","0","0","34742","","null","","","null","78","NaN","","","","","","","","","","","","","","",""
"","S2","","html-keyboard-response","514","554717","0.0-1.0-706.0","0","0","34742","","null","","","null","78","","NaN","","","","","","","","","","","","","",""
"","response","","html-keyboard-response","515","555571","0.0-1.0-707.0-0.0","0","0","34742","","852","","","75","78","","","2","78","training","adjacent","EF","5","6","P.jpg","M.jpg","0","1","0","",""
"","feedback","","html-keyboard-response","516","556581","0.0-1.0-708.0-0.0","0","0","34742","","null","","","null","78","","","","","","","","","","","","","","","",""
"","time_out","","html-keyboard-response","517","558589","0.0-1.0-710.0-0.0","0","0","34742","","null","","","null","78","","","","","","","","","","","","","","","",""
"","ITI","","html-keyboard-response","518","559599","0.0-1.0-711.0","0","0","34742","","null","","","null","78","","","","","","","","","","","","","","","NaN",""
"","S1","","html-keyboard-response","519","559762","0.0-1.0-713.0","0","0","34742","","null","","","null","79","","","","","","","","","","","","","","","",""
"","ISI","","html-keyboard-response","520","561776","0.0-1.0-714.0","0","0","34742","","null","","","null","79","NaN","","","","","","","","","","","","","","",""
"","S2","","html-keyboard-response","521","561932","0.0-1.0-715.0","0","0","34742","","null","","","null","79","","NaN","","","","","","","","","","","","","",""
"","response","","html-keyboard-response","522","563371","0.0-1.0-716.0-0.0","0","0","34742","","1436","","","68","79","","","2","79","training","adjacent","FE","6","5","M.jpg","P.jpg","1","0","0","",""
"","feedback","","html-keyboard-response","523","564382","0.0-1.0-717.0-0.0","0","0","34742","","null","","","null","79","","","","","","","","","","","","","","","",""
"","time_out","","html-keyboard-response","524","566391","0.0-1.0-719.0-0.0","0","0","34742","","null","","","null","79","","","","","","","","","","","","","","","",""
"","ITI","","html-keyboard-response","525","567401","0.0-1.0-720.0","0","0","34742","","null","","","null","79","","","","","","","","","","","","","","","NaN",""
"","S1","","html-keyboard-response","526","567558","0.0-1.0-722.0","0","0","34742","","null","","","null","80","","","","","","","","","","","","","","","",""
"","ISI","","html-keyboard-response","527","569566","0.0-1.0-723.0","0","0","34742","","null","","","null","80","NaN","","","","","","","","","","","","","","",""
"","S2","","html-keyboard-response","528","569729","0.0-1.0-724.0","0","0","34742","","null","","","null","80","","NaN","","","","","","","","","","","","","",""
"","response","","html-keyboard-response","529","570459","0.0-1.0-725.0-0.0","0","0","34742","","727","","","75","80","","","2","80","training","adjacent","AB","1","2","O.jpg","Q.jpg","0","1","0","",""
"","feedback","","html-keyboard-response","530","571470","0.0-1.0-726.0-0.0","0","0","34742","","null","","","null","80","","","","","","","","","","","","","","","",""
"","time_out","","html-keyboard-response","531","573479","0.0-1.0-728.0-0.0","0","0","34742","","null","","","null","80","","","","","","","","","","","","","","","",""
"","ITI","","html-keyboard-response","532","574489","0.0-1.0-729.0","0","0","34742","","null","","","null","80","","","","","","","","","","","","","","","NaN",""
"","S1","","html-keyboard-response","533","574645","0.0-1.0-731.0","0","0","34742","","null","","","null","81","","","","","","","","","","","","","","","",""
"","ISI","","html-keyboard-response","534","576654","0.0-1.0-732.0","0","0","34742","","null","","","null","81","NaN","","","","","","","","","","","","","","",""
"","S2","","html-keyboard-response","535","576816","0.0-1.0-733.0","0","0","34742","","null","","","null","81","","NaN","","","","","","","","","","","","","",""
"","response","","html-keyboard-response","536","578264","0.0-1.0-734.0-0.0","0","0","34742","","1446","","","75","81","","","2","81","training","adjacent","CD","3","4","N.jpg","R.jpg","0","1","0","",""
"","feedback","","html-keyboard-response","537","579271","0.0-1.0-735.0-0.0","0","0","34742","","null","","","null","81","","","","","","","","","","","","","","","",""
"","time_out","","html-keyboard-response","538","581280","0.0-1.0-737.0-0.0","0","0","34742","","null","","","null","81","","","","","","","","","","","","","","","",""
"","ITI","","html-keyboard-response","539","582285","0.0-1.0-738.0","0","0","34742","","null","","","null","81","","","","","","","","","","","","","","","NaN",""
"","S1","","html-keyboard-response","540","582447","0.0-1.0-740.0","0","0","34742","","null","","","null","82","","","","","","","","","","","","","","","",""
"","ISI","","html-keyboard-response","541","584456","0.0-1.0-741.0","0","0","34742","","null","","","null","82","NaN","","","","","","","","","","","","","","",""
"","S2","","html-keyboard-response","542","584612","0.0-1.0-742.0","0","0","34742","","null","","","null","82","","NaN","","","","","","","","","","","","","",""
"","response","","html-keyboard-response","543","585296","0.0-1.0-743.0-0.0","0","0","34742","","681","","","75","82","","","2","82","training","adjacent","AB","1","2","O.jpg","Q.jpg","0","1","0","",""
"","feedback","","html-keyboard-response","544","586301","0.0-1.0-744.0-0.0","0","0","34742","","null","","","null","82","","","","","","","","","","","","","","","",""
"","time_out","","html-keyboard-response","545","588310","0.0-1.0-746.0-0.0","0","0","34742","","null","","","null","82","","","","","","","","","","","","","","","",""
"","ITI","","html-keyboard-response","546","589320","0.0-1.0-747.0","0","0","34742","","null","","","null","82","","","","","","","","","","","","","","","NaN",""
"","S1","","html-keyboard-response","547","589477","0.0-1.0-749.0","0","0","34742","","null","","","null","83","","","","","","","","","","","","","","","",""
"","ISI","","html-keyboard-response","548","591485","0.0-1.0-750.0","0","0","34742","","null","","","null","83","NaN","","","","","","","","","","","","","","",""
"","S2","","html-keyboard-response","549","591648","0.0-1.0-751.0","0","0","34742","","null","","","null","83","","NaN","","","","","","","","","","","","","",""
"","response","","html-keyboard-response","550","592880","0.0-1.0-752.0-0.0","0","0","34742","","1229","","","68","83","","","2","83","training","adjacent","FE","6","5","M.jpg","P.jpg","1","0","0","",""
"","feedback","","html-keyboard-response","551","593888","0.0-1.0-753.0-0.0","0","0","34742","","null","","","null","83","","","","","","","","","","","","","","","",""
"","time_out","","html-keyboard-response","552","595902","0.0-1.0-755.0-0.0","0","0","34742","","null","","","null","83","","","","","","","","","","","","","","","",""
"","ITI","","html-keyboard-response","553","596912","0.0-1.0-756.0","0","0","34742","","null","","","null","83","","","","","","","","","","","","","","","NaN",""
"","S1","","html-keyboard-response","554","597069","0.0-1.0-758.0","0","0","34742","","null","","","null","84","","","","","","","","","","","","","","","",""
"","ISI","","html-keyboard-response","555","599078","0.0-1.0-759.0","0","0","34742","","null","","","null","84","NaN","","","","","","","","","","","","","","",""
"","S2","","html-keyboard-response","556","599240","0.0-1.0-760.0","0","0","34742","","null","","","null","84","","NaN","","","","","","","","","","","","","",""
"","response","","html-keyboard-response","557","600594","0.0-1.0-761.0-0.0","0","0","34742","","1352","","","68","84","","","2","84","training","adjacent","CD","3","4","N.jpg","R.jpg","1","1","1","",""
"","feedback","","html-keyboard-response","558","601607","0.0-1.0-762.0-0.0","0","0","34742","","null","","","null","84","","","","","","","","","","","","","","","",""
"","ITI","","html-keyboard-response","559","602615","0.0-1.0-765.0","0","0","34742","","null","","","null","84","","","","","","","","","","","","","","","NaN",""
"","S1","","html-keyboard-response","560","602775","0.0-1.0-767.0","0","0","34742","","null","","","null","85","","","","","","","","","","","","","","","",""
"","ISI","","html-keyboard-response","561","604782","0.0-1.0-768.0","0","0","34742","","null","","","null","85","NaN","","","","","","","","","","","","","","",""
"","S2","","html-keyboard-response","562","604940","0.0-1.0-769.0","0","0","34742","","null","","","null","85","","NaN","","","","","","","","","","","","","",""
"","response","","html-keyboard-response","563","606651","0.0-1.0-770.0-0.0","0","0","34742","","1708","","","75","85","","","2","85","training","adjacent","DC","4","3","R.jpg","N.jpg","0","0","1","",""
"","feedback","","html-keyboard-response","564","607664","0.0-1.0-771.0-0.0","0","0","34742","","null","","","null","85","","","","","","","","","","","","","","","",""
"","ITI","","html-keyboard-response","565","608670","0.0-1.0-774.0","0","0","34742","","null","","","null","85","","","","","","","","","","","","","","","NaN",""
"","S1","","html-keyboard-response","566","608829","0.0-1.0-776.0","0","0","34742","","null","","","null","86","","","","","","","","","","","","","","","",""
"","ISI","","html-keyboard-response","567","610836","0.0-1.0-777.0","0","0","34742","","null","","","null","86","NaN","","","","","","","","","","","","","","",""
"","S2","","html-keyboard-response","568","610998","0.0-1.0-778.0","0","0","34742","","null","","","null","86","","NaN","","","","","","","","","","","","","",""
"","response","","html-keyboard-response","569","612491","0.0-1.0-779.0-0.0","0","0","34742","","1491","","","68","86","","","2","86","training","adjacent","EF","5","6","P.jpg","M.jpg","1","1","1","",""
"","feedback","","html-keyboard-response","570","613502","0.0-1.0-780.0-0.0","0","0","34742","","null","","","null","86","","","","","","","","","","","","","","","",""
"","ITI","","html-keyboard-response","571","614507","0.0-1.0-783.0","0","0","34742","","null","","","null","86","","","","","","","","","","","","","","","NaN",""
"","S1","","html-keyboard-response","572","614670","0.0-1.0-785.0","0","0","34742","","null","","","null","87","","","","","","","","","","","","","","","",""
"","ISI","","html-keyboard-response","573","616678","0.0-1.0-786.0","0","0","34742","","null","","","null","87","NaN","","","","","","","","","","","","","","",""
"","S2","","html-keyboard-response","574","616835","0.0-1.0-787.0","0","0","34742","","null","","","null","87","","NaN","","","","","","","","","","","","","",""
"","response","","html-keyboard-response","575","617943","0.0-1.0-788.0-0.0","0","0","34742","","1106","","","68","87","","","2","87","training","adjacent","BA","2","1","Q.jpg","O.jpg","1","0","0","",""
"","feedback","","html-keyboard-response","576","618948","0.0-1.0-789.0-0.0","0","0","34742","","null","","","null","87","","","","","","","","","","","","","","","",""
"","time_out","","html-keyboard-response","577","620957","0.0-1.0-791.0-0.0","0","0","34742","","null","","","null","87","","","","","","","","","","","","","","","",""
"","ITI","","html-keyboard-response","578","621966","0.0-1.0-792.0","0","0","34742","","null","","","null","87","","","","","","","","","","","","","","","NaN",""
"","S1","","html-keyboard-response","579","622123","0.0-1.0-794.0","0","0","34742","","null","","","null","88","","","","","","","","","","","","","","","",""
"","ISI","","html-keyboard-response","580","624132","0.0-1.0-795.0","0","0","34742","","null","","","null","88","NaN","","","","","","","","","","","","","","",""
"","S2","","html-keyboard-response","581","624294","0.0-1.0-796.0","0","0","34742","","null","","","null","88","","NaN","","","","","","","","","","","","","",""
"","response","","html-keyboard-response","582","626152","0.0-1.0-797.0-0.0","0","0","34742","","null","","","null","88","","","2","88","training","adjacent","FG","6","7","M.jpg","L.jpg","NaN","1","0","",""
