"success","ttype","start_time","trial_type","trial_index","time_elapsed","internal_node_id","warning","missed_checkup","PID","view_history","rt","responses","repeat_instructions","key_press","index","keypress_isi","keypress_S2","block","trial_num","phase","group_type","pair_type","S1_stim","S2_stim","S1_img","S2_img","S1_chosen","S1_higher","accuracy","keypress_iti","total_bonus_tally"
"true","full_screen","d07292022hr2053","fullscreen","0","4614","0.0-0.0","0","0","40481","","","","","","","","","","","","","","","","","","","","","",""
"","instructions","","instructions","1","11672","0.0-1.0-0.0-0.0","0","0","40481","[{""page_index"":0,""viewing_time"":4880},{""page_index"":1,""viewing_time"":616},{""page_index"":2,""viewing_time"":778},{""page_index"":3,""viewing_time"":782}]","7057","","","","","","","","","","","","","","","","","","","",""
"","comprehension_check","","survey-multi-choice","2","22226","0.0-1.0-0.0-1.0","0","0","40481","","10547","{""Q0"":""True"",""Q1"":""K"",""Q2"":""When you see the prompt 'MAKE A CHOICE' after the second image was presented"",""Q3"":""Green mark"",""Q4"":""either D or K""}","0","","","","","","","","","","","","","","","","","",""
"","start_exp","","html-keyboard-response","3","23648","0.0-1.0-1.0","0","0","40481","","1420","","","32","","","","","","","","","","","","","","","","",""
"","S1","","html-keyboard-response","4","23901","0.0-1.0-2.0","0","0","40481","","null","","","null","0","","","","","","","","","","","","","","","",""
"","ISI","","html-keyboard-response","5","25904","0.0-1.0-3.0","0","0","40481","","null","","","null","0","NaN","","","","","","","","","","","","","","",""
"","S2","","html-keyboard-response","6","26158","0.0-1.0-4.0","0","0","40481","","null","","","null","0","","NaN","","","","","","","","","","","","","",""
"","response","","html-keyboard-response","7","26952","0.0-1.0-5.0","0","0","40481","","793","","","75","0","","","1","0","training","adjacent","EF","5","6","O.jpg","L.jpg","1","1","1","",""
"","feedback","","html-keyboard-response","8","27953","0.0-1.0-6.0-0.0","0","0","40481","","null","","","null","0","","","","","","","","","","","","","","","",""
"","ITI","","html-keyboard-response","9","28956","0.0-1.0-9.0","0","0","40481","","null","","","null","0","","","","","","","","","","","","","","","NaN",""
"","S1","","html-keyboard-response","10","29208","0.0-1.0-11.0","0","0","40481","","null","","","null","1","","","","","","","","","","","","","","","",""
"","ISI","","html-keyboard-response","11","31211","0.0-1.0-12.0","0","0","40481","","null","","","null","1","NaN","","","","","","","","","","","","","","",""
"","S2","","html-keyboard-response","12","31465","0.0-1.0-13.0","0","0","40481","","null","","","null","1","","NaN","","","","","","","","","","","","","",""
"","response","","html-keyboard-response","13","31993","0.0-1.0-14.0","0","0","40481","","526","","","68","1","","","1","1","training","adjacent","DE","4","5","N.jpg","O.jpg","0","1","0","",""
"","feedback","","html-keyboard-response","14","32996","0.0-1.0-15.0-0.0","0","0","40481","","null","","","null","1","","","","","","","","","","","","","","","",""
"","time_out","","html-keyboard-response","15","34998","0.0-1.0-17.0-0.0","0","0","40481","","null","","","null","1","","","","","","","","","","","","","","","",""
"","ITI","","html-keyboard-response","16","36000","0.0-1.0-18.0","0","0","40481","","null","","","null","1","","","","","","","","","","","","","","","NaN",""
"","S1","","html-keyboard-response","17","36253","0.0-1.0-20.0","0","0","40481","","null","","","null","2","","","","","","","","","","","","","","","",""
"","ISI","","html-keyboard-response","18","38256","0.0-1.0-21.0","0","0","40481","","591","","","75","2","k","","","","","","","","","","","","","","",""
"","S2","","html-keyboard-response","19","38510","0.0-1.0-22.0","0","0","40481","","null","","","null","2","","NaN","","","","","","","","","","","","","",""
"","response","","html-keyboard-response","20","38920","0.0-1.0-23.0","0","0","40481","","409","","","75","2","","","1","2","training","adjacent","DE","4","5","N.jpg","O.jpg","1","1","1","",""
"","feedback","","html-keyboard-response","21","39923","0.0-1.0-24.0-0.0","0","0","40481","","null","","","null","2","","","","","","","","","","","","","","","",""
"","ITI","","html-keyboard-response","22","40926","0.0-1.0-27.0","0","0","40481","","null","","","null","2","","","","","","","","","","","","","","","NaN",""
"","S1","","html-keyboard-response","23","41178","0.0-1.0-29.0","0","0","40481","","null","","","null","3","","","","","","","","","","","","","","","",""
"","ISI","","html-keyboard-response","24","43180","0.0-1.0-30.0","0","0","40481","","null","","","null","3","NaN","","","","","","","","","","","","","","",""
"","S2","","html-keyboard-response","25","43432","0.0-1.0-31.0","0","0","40481","","null","","","null","3","","NaN","","","","","","","","","","","","","",""
"","response","","html-keyboard-response","26","43751","0.0-1.0-32.0","0","0","40481","","318","","","75","3","","","1","3","training","adjacent","GF","7","6","P.jpg","L.jpg","1","0","0","",""
"","feedback","","html-keyboard-response","27","44754","0.0-1.0-33.0-0.0","0","0","40481","","null","","","null","3","","","","","","","","","","","","","","","",""
"","time_out","","html-keyboard-response","28","46755","0.0-1.0-35.0-0.0","0","0","40481","","null","","","null","3","","","","","","","","","","","","","","","",""
"","ITI","","html-keyboard-response","29","47758","0.0-1.0-36.0","0","0","40481","","null","","","null","3","","","","","","","","","","","","","","","NaN",""
"","S1","","html-keyboard-response","30","48012","0.0-1.0-38.0","0","0","40481","","null","","","null","4","","","","","","","","","","","","","","","",""
"","ISI","","html-keyboard-response","31","50016","0.0-1.0-39.0","0","0","40481","","null","","","null","4","NaN","","","","","","","","","","","","","","",""
"","S2","","html-keyboard-response","32","50268","0.0-1.0-40.0","0","0","40481","","233","","","68","4","","d","","","","","","","","","","","","","",""
"","response","","html-keyboard-response","33","52272","0.0-1.0-41.0","0","0","40481","","null","","","null","4","","","1","4","training","adjacent","DC","4","3","N.jpg","R.jpg","NaN","0","0","",""
"","too_slow_prompt","","html-keyboard-response","34","53274","0.0-1.0-43.0-0.0","1","0","40481","","null","","","null","","","","","","","","","","","","","","","","",""
"","time_out","","html-keyboard-response","35","55276","0.0-1.0-44.0-0.0","0","0","40481","","null","","","null","4","","","","","","","","","","","","","","","",""
"","ITI","","html-keyboard-response","36","56278","0.0-1.0-45.0","0","0","40481","","null","","","null","4","","","","","","","","","","","","","","","NaN",""
"","S1","","html-keyboard-response","37","56531","0.0-1.0-47.0","0","0","40481","","null","","","null","5","","","","","","","","","","","","","","","",""
"","ISI","","html-keyboard-response","38","58533","0.0-1.0-48.0","0","0","40481","","null","","","null","5","NaN","","","","","","","","","","","","","","",""
"","S2","","html-keyboard-response","39","58785","0.0-1.0-49.0","0","0","40481","","null","","","null","5","","NaN","","","","","","","","","","","","","",""
"","response","","html-keyboard-response","40","59362","0.0-1.0-50.0","0","0","40481","","575","","","75","5","","","1","5","training","adjacent","DC","4","3","N.jpg","R.jpg","1","0","0","",""
"","feedback","","html-keyboard-response","41","60364","0.0-1.0-51.0-0.0","0","0","40481","","null","","","null","5","","","","","","","","","","","","","","","",""
"","time_out","","html-keyboard-response","42","62365","0.0-1.0-53.0-0.0","0","0","40481","","null","","","null","5","","","","","","","","","","","","","","","",""
"","ITI","","html-keyboard-response","43","63367","0.0-1.0-54.0","0","0","40481","","null","","","null","5","","","","","","","","","","","","","","","NaN",""
"","S1","","html-keyboard-response","44","63619","0.0-1.0-56.0","0","0","40481","","null","","","null","6","","","","","","","","","","","","","","","",""
"","ISI","","html-keyboard-response","45","65621","0.0-1.0-57.0","0","0","40481","","null","","","null","6","NaN","","","","","","","","","","","","","","",""
"","S2","","html-keyboard-response","46","65875","0.0-1.0-58.0","0","0","40481","","null","","","null","6","","NaN","","","","","","","","","","","","","",""
"","response","","html-keyboard-response","47","67877","0.0-1.0-59.0","0","0","40481","","null","","","null","6","","","1","6","training","adjacent","BA","2","1","Q.jpg","M.jpg","NaN","0","0","",""
"","too_slow_prompt","","html-keyboard-response","48","68880","0.0-1.0-61.0-0.0","1","0","40481","","null","","","null","","","","","","","","","","","","","","","","",""
"","time_out","","html-keyboard-response","49","70884","0.0-1.0-62.0-0.0","0","0","40481","","null","","","null","6","","","","","","","","","","","","","","","",""
"","ITI","","html-keyboard-response","50","71886","0.0-1.0-63.0","0","0","40481","","null","","","null","6","","","","","","","","","","","","","","","NaN",""
"","S1","","html-keyboard-response","51","72138","0.0-1.0-65.0","0","0","40481","","null","","","null","7","","","","","","","","","","","","","","","",""
"","ISI","","html-keyboard-response","52","74140","0.0-1.0-66.0","0","0","40481","","null","","","null","7","NaN","","","","","","","","","","","","","","",""
"","S2","","html-keyboard-response","53","74393","0.0-1.0-67.0","0","0","40481","","null","","","null","7","","NaN","","","","","","","","","","","","","",""
"","response","","html-keyboard-response","54","74668","0.0-1.0-68.0","0","0","40481","","273","","","75","7","","","1","7","training","adjacent","FE","6","5","L.jpg","O.jpg","1","0","0","",""
"","feedback","","html-keyboard-response","55","75672","0.0-1.0-69.0-0.0","0","0","40481","","null","","","null","7","","","","","","","","","","","","","","","",""
"","time_out","","html-keyboard-response","56","77675","0.0-1.0-71.0-0.0","0","0","40481","","null","","","null","7","","","","","","","","","","","","","","","",""
"","ITI","","html-keyboard-response","57","78678","0.0-1.0-72.0","0","0","40481","","null","","","null","7","","","","","","","","","","","","","","","NaN",""
"","S1","","html-keyboard-response","58","78930","0.0-1.0-74.0","0","0","40481","","null","","","null","8","","","","","","","","","","","","","","","",""
"","ISI","","html-keyboard-response","59","80932","0.0-1.0-75.0","0","0","40481","","null","","","null","8","NaN","","","","","","","","","","","","","","",""
"","S2","","html-keyboard-response","60","81186","0.0-1.0-76.0","0","0","40481","","null","","","null","8","","NaN","","","","","","","","","","","","","",""
"","response","","html-keyboard-response","61","81350","0.0-1.0-77.0","0","0","40481","","162","","","68","8","","","1","8","training","adjacent","CD","3","4","R.jpg","N.jpg","0","1","0","",""
"","feedback","","html-keyboard-response","62","82352","0.0-1.0-78.0-0.0","0","0","40481","","null","","","null","8","","","","","","","","","","","","","","","",""
"","time_out","","html-keyboard-response","63","84354","0.0-1.0-80.0-0.0","0","0","40481","","null","","","null","8","","","","","","","","","","","","","","","",""
"","ITI","","html-keyboard-response","64","85355","0.0-1.0-81.0","0","0","40481","","null","","","null","8","","","","","","","","","","","","","","","NaN",""
"","S1","","html-keyboard-response","65","85607","0.0-1.0-83.0","0","0","40481","","null","","","null","9","","","","","","","","","","","","","","","",""
"","ISI","","html-keyboard-response","66","87610","0.0-1.0-84.0","0","0","40481","","null","","","null","9","NaN","","","","","","","","","","","","","","",""
"","S2","","html-keyboard-response","67","87862","0.0-1.0-85.0","0","0","40481","","null","","","null","9","","NaN","","","","","","","","","","","","","",""
"","response","","html-keyboard-response","68","88265","0.0-1.0-86.0","0","0","40481","","402","","","75","9","","","1","9","training","adjacent","BC","2","3","Q.jpg","R.jpg","1","1","1","",""
"","feedback","","html-keyboard-response","69","89267","0.0-1.0-87.0-0.0","0","0","40481","","null","","","null","9","","","","","","","","","","","","","","","",""
"","ITI","","html-keyboard-response","70","90269","0.0-1.0-90.0","0","0","40481","","null","","","null","9","","","","","","","","","","","","","","","NaN",""
"","S1","","html-keyboard-response","71","90521","0.0-1.0-92.0","0","0","40481","","null","","","null","10","","","","","","","","","","","","","","","",""
"","ISI","","html-keyboard-response","72","92523","0.0-1.0-93.0","0","0","40481","","null","","","null","10","NaN","","","","","","","","","","","","","","",""
"","S2","","html-keyboard-response","73","92775","0.0-1.0-94.0","0","0","40481","","null","","","null","10","","NaN","","","","","","","","","","","","","",""
"","response","","html-keyboard-response","74","93280","0.0-1.0-95.0","0","0","40481","","503","","","75","10","","","1","10","training","adjacent","AB","1","2","M.jpg","Q.jpg","1","1","1","",""
"","feedback","","html-keyboard-response","75","94282","0.0-1.0-96.0-0.0","0","0","40481","","null","","","null","10","","","","","","","","","","","","","","","",""
"","ITI","","html-keyboard-response","76","95284","0.0-1.0-99.0","0","0","40481","","null","","","null","10","","","","","","","","","","","","","","","NaN",""
"","S1","","html-keyboard-response","77","95546","0.0-1.0-101.0","0","0","40481","","null","","","null","11","","","","","","","","","","","","","","","",""
"","ISI","","html-keyboard-response","78","97548","0.0-1.0-102.0","0","0","40481","","null","","","null","11","NaN","","","","","","","","","","","","","","",""
"","S2","","html-keyboard-response","79","97801","0.0-1.0-103.0","0","0","40481","","null","","","null","11","","NaN","","","","","","","","","","","","","",""
"","response","","html-keyboard-response","80","97961","0.0-1.0-104.0","0","0","40481","","159","","","68","11","","","1","11","training","adjacent","BC","2","3","Q.jpg","R.jpg","0","1","0","",""
"","feedback","","html-keyboard-response","81","98963","0.0-1.0-105.0-0.0","0","0","40481","","null","","","null","11","","","","","","","","","","","","","","","",""
"","time_out","","html-keyboard-response","82","100965","0.0-1.0-107.0-0.0","0","0","40481","","null","","","null","11","","","","","","","","","","","","","","","",""
"","ITI","","html-keyboard-response","83","101968","0.0-1.0-108.0","0","0","40481","","null","","","null","11","","","","","","","","","","","","","","","NaN",""
"","S1","","html-keyboard-response","84","102220","0.0-1.0-110.0","0","0","40481","","null","","","null","12","","","","","","","","","","","","","","","",""
"","ISI","","html-keyboard-response","85","104222","0.0-1.0-111.0","0","0","40481","","null","","","null","12","NaN","","","","","","","","","","","","","","",""
"","S2","","html-keyboard-response","86","104475","0.0-1.0-112.0","0","0","40481","","null","","","null","12","","NaN","","","","","","","","","","","","","",""
"","response","","html-keyboard-response","87","104479","0.0-1.0-113.0","0","0","40481","","2","","","75","12","","","1","12","training","adjacent","CB","3","2","R.jpg","Q.jpg","1","0","0","",""
"","feedback","","html-keyboard-response","88","105481","0.0-1.0-114.0-0.0","0","0","40481","","null","","","null","12","","","","","","","","","","","","","","","",""
"","time_out","","html-keyboard-response","89","107483","0.0-1.0-116.0-0.0","0","0","40481","","null","","","null","12","","","","","","","","","","","","","","","",""
"","ITI","","html-keyboard-response","90","108485","0.0-1.0-117.0","0","0","40481","","null","","","null","12","","","","","","","","","","","","","","","NaN",""
"","S1","","html-keyboard-response","91","108737","0.0-1.0-119.0","0","0","40481","","null","","","null","13","","","","","","","","","","","","","","","",""
"","ISI","","html-keyboard-response","92","110740","0.0-1.0-120.0","0","0","40481","","null","","","null","13","NaN","","","","","","","","","","","","","","",""
"","S2","","html-keyboard-response","93","110993","0.0-1.0-121.0","0","0","40481","","240","","","68","13","","d","","","","","","","","","","","","","",""
"","response","","html-keyboard-response","94","112363","0.0-1.0-122.0","0","0","40481","","1369","","","68","13","","","1","13","training","adjacent","BC","2","3","Q.jpg","R.jpg","0","1","0","",""
"","feedback","","html-keyboard-response","95","113365","0.0-1.0-123.0-0.0","0","0","40481","","null","","","null","13","","","","","","","","","","","","","","","",""
"","time_out","","html-keyboard-response","96","115366","0.0-1.0-125.0-0.0","0","0","40481","","null","","","null","13","","","","","","","","","","","","","","","",""
"","ITI","","html-keyboard-response","97","116367","0.0-1.0-126.0","0","0","40481","","null","","","null","13","","","","","","","","","","","","","","","NaN",""
"","S1","","html-keyboard-response","98","116619","0.0-1.0-128.0","0","0","40481","","null","","","null","14","","","","","","","","","","","","","","","",""
"","ISI","","html-keyboard-response","99","118622","0.0-1.0-129.0","0","0","40481","","null","","","null","14","NaN","","","","","","","","","","","","","","",""
"","S2","","html-keyboard-response","100","118873","0.0-1.0-130.0","0","0","40481","","null","","","null","14","","NaN","","","","","","","","","","","","","",""
"","response","","html-keyboard-response","101","119143","0.0-1.0-131.0","0","0","40481","","270","","","75","14","","","1","14","training","adjacent","AB","1","2","M.jpg","Q.jpg","1","1","1","",""
"","feedback","","html-keyboard-response","102","120146","0.0-1.0-132.0-0.0","0","0","40481","","null","","","null","14","","","","","","","","","","","","","","","",""
"","ITI","","html-keyboard-response","103","121148","0.0-1.0-135.0","0","0","40481","","null","","","null","14","","","","","","","","","","","","","","","NaN",""
"","S1","","html-keyboard-response","104","121400","0.0-1.0-137.0","0","0","40481","","null","","","null","15","","","","","","","","","","","","","","","",""
"","ISI","","html-keyboard-response","105","123402","0.0-1.0-138.0","0","0","40481","","null","","","null","15","NaN","","","","","","","","","","","","","","",""
"","S2","","html-keyboard-response","106","123654","0.0-1.0-139.0","0","0","40481","","null","","","null","15","","NaN","","","","","","","","","","","","","",""
"","response","","html-keyboard-response","107","123914","0.0-1.0-140.0","0","0","40481","","258","","","68","15","","","1","15","training","adjacent","CD","3","4","R.jpg","N.jpg","0","1","0","",""
"","feedback","","html-keyboard-response","108","124916","0.0-1.0-141.0-0.0","0","0","40481","","null","","","null","15","","","","","","","","","","","","","","","",""
"","time_out","","html-keyboard-response","109","126919","0.0-1.0-143.0-0.0","0","0","40481","","null","","","null","15","","","","","","","","","","","","","","","",""
"","ITI","","html-keyboard-response","110","127922","0.0-1.0-144.0","0","0","40481","","null","","","null","15","","","","","","","","","","","","","","","NaN",""
"","S1","","html-keyboard-response","111","128175","0.0-1.0-146.0","0","0","40481","","null","","","null","16","","","","","","","","","","","","","","","",""
"","ISI","","html-keyboard-response","112","130178","0.0-1.0-147.0","0","0","40481","","null","","","null","16","NaN","","","","","","","","","","","","","","",""
"","S2","","html-keyboard-response","113","130430","0.0-1.0-148.0","0","0","40481","","null","","","null","16","","NaN","","","","","","","","","","","","","",""
"","response","","html-keyboard-response","114","130788","0.0-1.0-149.0","0","0","40481","","356","","","75","16","","","1","16","training","adjacent","EF","5","6","O.jpg","L.jpg","1","1","1","",""
"","feedback","","html-keyboard-response","115","131789","0.0-1.0-150.0-0.0","0","0","40481","","null","","","null","16","","","","","","","","","","","","","","","",""
"","ITI","","html-keyboard-response","116","132792","0.0-1.0-153.0","0","0","40481","","null","","","null","16","","","","","","","","","","","","","","","NaN",""
"","S1","","html-keyboard-response","117","133045","0.0-1.0-155.0","0","0","40481","","null","","","null","17","","","","","","","","","","","","","","","",""
"","ISI","","html-keyboard-response","118","135048","0.0-1.0-156.0","0","0","40481","","null","","","null","17","NaN","","","","","","","","","","","","","","",""
"","S2","","html-keyboard-response","119","135300","0.0-1.0-157.0","0","0","40481","","null","","","null","17","","NaN","","","","","","","","","","","","","",""
"","response","","html-keyboard-response","120","135577","0.0-1.0-158.0","0","0","40481","","277","","","75","17","","","1","17","training","adjacent","BA","2","1","Q.jpg","M.jpg","1","0","0","",""
"","feedback","","html-keyboard-response","121","136579","0.0-1.0-159.0-0.0","0","0","40481","","null","","","null","17","","","","","","","","","","","","","","","",""
"","time_out","","html-keyboard-response","122","138582","0.0-1.0-161.0-0.0","0","0","40481","","null","","","null","17","","","","","","","","","","","","","","","",""
"","ITI","","html-keyboard-response","123","139584","0.0-1.0-162.0","0","0","40481","","null","","","null","17","","","","","","","","","","","","","","","NaN",""
"","S1","","html-keyboard-response","124","139837","0.0-1.0-164.0","0","0","40481","","null","","","null","18","","","","","","","","","","","","","","","",""
"","ISI","","html-keyboard-response","125","141841","0.0-1.0-165.0","0","0","40481","","null","","","null","18","NaN","","","","","","","","","","","","","","",""
"","S2","","html-keyboard-response","126","142093","0.0-1.0-166.0","0","0","40481","","null","","","null","18","","NaN","","","","","","","","","","","","","",""
"","response","","html-keyboard-response","127","142413","0.0-1.0-167.0","0","0","40481","","319","","","68","18","","","1","18","training","adjacent","ED","5","4","O.jpg","N.jpg","0","0","1","",""
"","feedback","","html-keyboard-response","128","143416","0.0-1.0-168.0-0.0","0","0","40481","","null","","","null","18","","","","","","","","","","","","","","","",""
"","ITI","","html-keyboard-response","129","144418","0.0-1.0-171.0","0","0","40481","","null","","","null","18","","","","","","","","","","","","","","","NaN",""
"","S1","","html-keyboard-response","130","144670","0.0-1.0-173.0","0","0","40481","","null","","","null","19","","","","","","","","","","","","","","","",""
"","ISI","","html-keyboard-response","131","146672","0.0-1.0-174.0","0","0","40481","","null","","","null","19","NaN","","","","","","","","","","","","","","",""
"","S2","","html-keyboard-response","132","146925","0.0-1.0-175.0","0","0","40481","","null","","","null","19","","NaN","","","","","","","","","","","","","",""
"","response","","html-keyboard-response","133","147275","0.0-1.0-176.0","0","0","40481","","349","","","75","19","","","1","19","training","adjacent","FE","6","5","L.jpg","O.jpg","1","0","0","",""
"","feedback","","html-keyboard-response","134","148278","0.0-1.0-177.0-0.0","0","0","40481","","null","","","null","19","","","","","","","","","","","","","","","",""
"","time_out","","html-keyboard-response","135","150279","0.0-1.0-179.0-0.0","0","0","40481","","null","","","null","19","","","","","","","","","","","","","","","",""
"","ITI","","html-keyboard-response","136","151281","0.0-1.0-180.0","0","0","40481","","null","","","null","19","","","","","","","","","","","","","","","NaN",""
"","S1","","html-keyboard-response","137","151532","0.0-1.0-182.0","0","0","40481","","null","","","null","20","","","","","","","","","","","","","","","",""
"","ISI","","html-keyboard-response","138","153534","0.0-1.0-183.0","0","0","40481","","null","","","null","20","NaN","","","","","","","","","","","","","","",""
"","S2","","html-keyboard-response","139","153788","0.0-1.0-184.0","0","0","40481","","null","","","null","20","","NaN","","","","","","","","","","","","","",""
"","response","","html-keyboard-response","140","154152","0.0-1.0-185.0","0","0","40481","","362","","","75","20","","","1","20","training","adjacent","DE","4","5","N.jpg","O.jpg","1","1","1","",""
"","feedback","","html-keyboard-response","141","155155","0.0-1.0-186.0-0.0","0","0","40481","","null","","","null","20","","","","","","","","","","","","","","","",""
"","ITI","","html-keyboard-response","142","156158","0.0-1.0-189.0","0","0","40481","","null","","","null","20","","","","","","","","","","","","","","","NaN",""
"","S1","","html-keyboard-response","143","156410","0.0-1.0-191.0","0","0","40481","","null","","","null","21","","","","","","","","","","","","","","","",""
"","ISI","","html-keyboard-response","144","158413","0.0-1.0-192.0","0","0","40481","","null","","","null","21","NaN","","","","","","","","","","","","","","",""
"","S2","","html-keyboard-response","145","158665","0.0-1.0-193.0","0","0","40481","","null","","","null","21","","NaN","","","","","","","","","","","","","",""
"","response","","html-keyboard-response","146","158824","0.0-1.0-194.0","0","0","40481","","158","","","75","21","","","1","21","training","adjacent","DC","4","3","N.jpg","R.jpg","1","0","0","",""
"","feedback","","html-keyboard-response","147","159828","0.0-1.0-195.0-0.0","0","0","40481","","null","","","null","21","","","","","","","","","","","","","","","",""
"","time_out","","html-keyboard-response","148","161830","0.0-1.0-197.0-0.0","0","0","40481","","null","","","null","21","","","","","","","","","","","","","","","",""
"","ITI","","html-keyboard-response","149","162831","0.0-1.0-198.0","0","0","40481","","null","","","null","21","","","","","","","","","","","","","","","NaN",""
"","S1","","html-keyboard-response","150","163085","0.0-1.0-200.0","0","0","40481","","null","","","null","22","","","","","","","","","","","","","","","",""
"","ISI","","html-keyboard-response","151","165087","0.0-1.0-201.0","0","0","40481","","null","","","null","22","NaN","","","","","","","","","","","","","","",""
"","S2","","html-keyboard-response","152","165338","0.0-1.0-202.0","0","0","40481","","null","","","null","22","","NaN","","","","","","","","","","","","","",""
"","response","","html-keyboard-response","153","165652","0.0-1.0-203.0","0","0","40481","","312","","","68","22","","","1","22","training","adjacent","AB","1","2","M.jpg","Q.jpg","0","1","0","",""
"","feedback","","html-keyboard-response","154","166654","0.0-1.0-204.0-0.0","0","0","40481","","null","","","null","22","","","","","","","","","","","","","","","",""
"","time_out","","html-keyboard-response","155","168657","0.0-1.0-206.0-0.0","0","0","40481","","null","","","null","22","","","","","","","","","","","","","","","",""
"","ITI","","html-keyboard-response","156","169661","0.0-1.0-207.0","0","0","40481","","null","","","null","22","","","","","","","","","","","","","","","NaN",""
"","S1","","html-keyboard-response","157","169913","0.0-1.0-209.0","0","0","40481","","null","","","null","23","","","","","","","","","","","","","","","",""
"","ISI","","html-keyboard-response","158","171915","0.0-1.0-210.0","0","0","40481","","null","","","null","23","NaN","","","","","","","","","","","","","","",""
"","S2","","html-keyboard-response","159","172166","0.0-1.0-211.0","0","0","40481","","null","","","null","23","","NaN","","","","","","","","","","","","","",""
"","response","","html-keyboard-response","160","172223","0.0-1.0-212.0","0","0","40481","","56","","","68","23","","","1","23","training","adjacent","ED","5","4","O.jpg","N.jpg","0","0","1","",""
"","feedback","","html-keyboard-response","161","173226","0.0-1.0-213.0-0.0","0","0","40481","","null","","","null","23","","","","","","","","","","","","","","","",""
"","ITI","","html-keyboard-response","162","174227","0.0-1.0-216.0","0","0","40481","","null","","","null","23","","","","","","","","","","","","","","","NaN",""
"","S1","","html-keyboard-response","163","174479","0.0-1.0-218.0","0","0","40481","","null","","","null","24","","","","","","","","","","","","","","","",""
"","ISI","","html-keyboard-response","164","176480","0.0-1.0-219.0","0","0","40481","","null","","","null","24","NaN","","","","","","","","","","","","","","",""
"","S2","","html-keyboard-response","165","176733","0.0-1.0-220.0","0","0","40481","","null","","","null","24","","NaN","","","","","","","","","","","","","",""
"","response","","html-keyboard-response","166","176932","0.0-1.0-221.0","0","0","40481","","197","","","75","24","","","1","24","training","adjacent","FG","6","7","L.jpg","P.jpg","1","1","1","",""
"","feedback","","html-keyboard-response","167","177934","0.0-1.0-222.0-0.0","0","0","40481","","null","","","null","24","","","","","","","","","","","","","","","",""
"","ITI","","html-keyboard-response","168","178938","0.0-1.0-225.0","0","0","40481","","null","","","null","24","","","","","","","","","","","","","","","NaN",""
"","S1","","html-keyboard-response","169","179192","0.0-1.0-227.0","0","0","40481","","null","","","null","25","","","","","","","","","","","","","","","",""
"","ISI","","html-keyboard-response","170","181194","0.0-1.0-228.0","0","0","40481","","null","","","null","25","NaN","","","","","","","","","","","","","","",""
"","S2","","html-keyboard-response","171","181445","0.0-1.0-229.0","0","0","40481","","null","","","null","25","","NaN","","","","","","","","","","","","","",""
"","response","","html-keyboard-response","172","181722","0.0-1.0-230.0","0","0","40481","","275","","","75","25","","","1","25","training","adjacent","FG","6","7","L.jpg","P.jpg","1","1","1","",""
"","feedback","","html-keyboard-response","173","182725","0.0-1.0-231.0-0.0","0","0","40481","","null","","","null","25","","","","","","","","","","","","","","","",""
"","ITI","","html-keyboard-response","174","183728","0.0-1.0-234.0","0","0","40481","","null","","","null","25","","","","","","","","","","","","","","","NaN",""
"","S1","","html-keyboard-response","175","183980","0.0-1.0-236.0","0","0","40481","","null","","","null","26","","","","","","","","","","","","","","","",""
"","ISI","","html-keyboard-response","176","185981","0.0-1.0-237.0","0","0","40481","","null","","","null","26","NaN","","","","","","","","","","","","","","",""
"","S2","","html-keyboard-response","177","186234","0.0-1.0-238.0","0","0","40481","","null","","","null","26","","NaN","","","","","","","","","","","","","",""
"","response","","html-keyboard-response","178","186690","0.0-1.0-239.0","0","0","40481","","455","","","75","26","","","1","26","training","adjacent","DC","4","3","N.jpg","R.jpg","1","0","0","",""
"","feedback","","html-keyboard-response","179","187693","0.0-1.0-240.0-0.0","0","0","40481","","null","","","null","26","","","","","","","","","","","","","","","",""
"","time_out","","html-keyboard-response","180","189696","0.0-1.0-242.0-0.0","0","0","40481","","null","","","null","26","","","","","","","","","","","","","","","",""
"","ITI","","html-keyboard-response","181","190698","0.0-1.0-243.0","0","0","40481","","null","","","null","26","","","","","","","","","","","","","","","NaN",""
"","S1","","html-keyboard-response","182","190951","0.0-1.0-245.0","0","0","40481","","null","","","null","27","","","","","","","","","","","","","","","",""
"","ISI","","html-keyboard-response","183","192953","0.0-1.0-246.0","0","0","40481","","null","","","null","27","NaN","","","","","","","","","","","","","","",""
"","S2","","html-keyboard-response","184","193205","0.0-1.0-247.0","0","0","40481","","null","","","null","27","","NaN","","","","","","","","","","","","","",""
"","response","","html-keyboard-response","185","193787","0.0-1.0-248.0","0","0","40481","","580","","","75","27","","","1","27","training","adjacent","CB","3","2","R.jpg","Q.jpg","1","0","0","",""
"","feedback","","html-keyboard-response","186","194788","0.0-1.0-249.0-0.0","0","0","40481","","null","","","null","27","","","","","","","","","","","","","","","",""
"","time_out","","html-keyboard-response","187","196791","0.0-1.0-251.0-0.0","0","0","40481","","null","","","null","27","","","","","","","","","","","","","","","",""
"","ITI","","html-keyboard-response","188","197794","0.0-1.0-252.0","0","0","40481","","null","","","null","27","","","","","","","","","","","","","","","NaN",""
"","S1","","html-keyboard-response","189","198047","0.0-1.0-254.0","0","0","40481","","null","","","null","28","","","","","","","","","","","","","","","",""
"","ISI","","html-keyboard-response","190","200048","0.0-1.0-255.0","0","0","40481","","null","","","null","28","NaN","","","","","","","","","","","","","","",""
"","S2","","html-keyboard-response","191","200301","0.0-1.0-256.0","0","0","40481","","null","","","null","28","","NaN","","","","","","","","","","","","","",""
"","response","","html-keyboard-response","192","200720","0.0-1.0-257.0","0","0","40481","","418","","","68","28","","","1","28","training","adjacent","GF","7","6","P.jpg","L.jpg","0","0","1","",""
"","feedback","","html-keyboard-response","193","201723","0.0-1.0-258.0-0.0","0","0","40481","","null","","","null","28","","","","","","","","","","","","","","","",""
"","ITI","","html-keyboard-response","194","202726","0.0-1.0-261.0","0","0","40481","","null","","","null","28","","","","","","","","","","","","","","","NaN",""
"","S1","","html-keyboard-response","195","202978","0.0-1.0-263.0","0","0","40481","","null","","","null","29","","","","","","","","","","","","","","","",""
"","ISI","","html-keyboard-response","196","204980","0.0-1.0-264.0","0","0","40481","","null","","","null","29","NaN","","","","","","","","","","","","","","",""
"","S2","","html-keyboard-response","197","205233","0.0-1.0-265.0","0","0","40481","","null","","","null","29","","NaN","","","","","","","","","","","","","",""
"","response","","html-keyboard-response","198","205246","0.0-1.0-266.0","0","0","40481","","12","","","68","29","","","1","29","training","adjacent","ED","5","4","O.jpg","N.jpg","0","0","1","",""
"","feedback","","html-keyboard-response","199","206248","0.0-1.0-267.0-0.0","0","0","40481","","null","","","null","29","","","","","","","","","","","","","","","",""
"","ITI","","html-keyboard-response","200","207251","0.0-1.0-270.0","0","0","40481","","null","","","null","29","","","","","","","","","","","","","","","NaN",""
"","S1","","html-keyboard-response","201","207503","0.0-1.0-272.0","0","0","40481","","null","","","null","30","","","","","","","","","","","","","","","",""
"","ISI","","html-keyboard-response","202","209505","0.0-1.0-273.0","0","0","40481","","null","","","null","30","NaN","","","","","","","","","","","","","","",""
"","S2","","html-keyboard-response","203","209757","0.0-1.0-274.0","0","0","40481","","null","","","null","30","","NaN","","","","","","","","","","","","","",""
"","response","","html-keyboard-response","204","209998","0.0-1.0-275.0","0","0","40481","","239","","","68","30","","","1","30","training","adjacent","FG","6","7","L.jpg","P.jpg","0","1","0","",""
"","feedback","","html-keyboard-response","205","211009","0.0-1.0-276.0-0.0","0","0","40481","","null","","","null","30","","","","","","","","","","","","","","","",""
"","time_out","","html-keyboard-response","206","213013","0.0-1.0-278.0-0.0","0","0","40481","","null","","","null","30","","","","","","","","","","","","","","","",""
"","ITI","","html-keyboard-response","207","214016","0.0-1.0-279.0","0","0","40481","","null","","","null","30","","","","","","","","","","","","","","","NaN",""
"","S1","","html-keyboard-response","208","214272","0.0-1.0-281.0","0","0","40481","","null","","","null","31","","","","","","","","","","","","","","","",""
"","ISI","","html-keyboard-response","209","216273","0.0-1.0-282.0","0","0","40481","","null","","","null","31","NaN","","","","","","","","","","","","","","",""
"","S2","","html-keyboard-response","210","216525","0.0-1.0-283.0","0","0","40481","","null","","","null","31","","NaN","","","","","","","","","","","","","",""
"","response","","html-keyboard-response","211","216823","0.0-1.0-284.0","0","0","40481","","296","","","68","31","","","1","31","training","adjacent","CD","3","4","R.jpg","N.jpg","0","1","0","",""
"","feedback","","html-keyboard-response","212","217825","0.0-1.0-285.0-0.0","0","0","40481","","null","","","null","31","","","","","","","","","","","","","","","",""
"","time_out","","html-keyboard-response","213","219827","0.0-1.0-287.0-0.0","0","0","40481","","null","","","null","31","","","","","","","","","","","","","","","",""
"","ITI","","html-keyboard-response","214","220828","0.0-1.0-288.0","0","0","40481","","null","","","null","31","","","","","","","","","","","","","","","NaN",""
"","S1","","html-keyboard-response","215","221081","0.0-1.0-290.0","0","0","40481","","null","","","null","32","","","","","","","","","","","","","","","",""
"","ISI","","html-keyboard-response","216","223083","0.0-1.0-291.0","0","0","40481","","null","","","null","32","NaN","","","","","","","","","","","","","","",""
"","S2","","html-keyboard-response","217","223336","0.0-1.0-292.0","0","0","40481","","null","","","null","32","","NaN","","","","","","","","","","","","","",""
"","response","","html-keyboard-response","218","223890","0.0-1.0-293.0","0","0","40481","","552","","","75","32","","","1","32","training","adjacent","CB","3","2","R.jpg","Q.jpg","1","0","0","",""
"","feedback","","html-keyboard-response","219","224891","0.0-1.0-294.0-0.0","0","0","40481","","null","","","null","32","","","","","","","","","","","","","","","",""
"","time_out","","html-keyboard-response","220","226893","0.0-1.0-296.0-0.0","0","0","40481","","null","","","null","32","","","","","","","","","","","","","","","",""
"","ITI","","html-keyboard-response","221","227896","0.0-1.0-297.0","0","0","40481","","null","","","null","32","","","","","","","","","","","","","","","NaN",""
"","S1","","html-keyboard-response","222","228148","0.0-1.0-299.0","0","0","40481","","null","","","null","33","","","","","","","","","","","","","","","",""
"","ISI","","html-keyboard-response","223","230151","0.0-1.0-300.0","0","0","40481","","null","","","null","33","NaN","","","","","","","","","","","","","","",""
"","S2","","html-keyboard-response","224","230404","0.0-1.0-301.0","0","0","40481","","null","","","null","33","","NaN","","","","","","","","","","","","","",""
"","response","","html-keyboard-response","225","230519","0.0-1.0-302.0","0","0","40481","","114","","","75","33","","","1","33","training","adjacent","FE","6","5","L.jpg","O.jpg","1","0","0","",""
"","feedback","","html-keyboard-response","226","231521","0.0-1.0-303.0-0.0","0","0","40481","","null","","","null","33","","","","","","","","","","","","","","","",""
"","time_out","","html-keyboard-response","227","233523","0.0-1.0-305.0-0.0","0","0","40481","","null","","","null","33","","","","","","","","","","","","","","","",""
"","ITI","","html-keyboard-response","228","234526","0.0-1.0-306.0","0","0","40481","","null","","","null","33","","","","","","","","","","","","","","","NaN",""
"","S1","","html-keyboard-response","229","234779","0.0-1.0-308.0","0","0","40481","","null","","","null","34","","","","","","","","","","","","","","","",""
"","ISI","","html-keyboard-response","230","236781","0.0-1.0-309.0","0","0","40481","","null","","","null","34","NaN","","","","","","","","","","","","","","",""
"","S2","","html-keyboard-response","231","237033","0.0-1.0-310.0","0","0","40481","","null","","","null","34","","NaN","","","","","","","","","","","","","",""
"","response","","html-keyboard-response","232","238357","0.0-1.0-311.0","0","0","40481","","1321","","","75","34","","","1","34","training","adjacent","FG","6","7","L.jpg","P.jpg","1","1","1","",""
"","feedback","","html-keyboard-response","233","239359","0.0-1.0-312.0-0.0","0","0","40481","","null","","","null","34","","","","","","","","","","","","","","","",""
"","ITI","","html-keyboard-response","234","240361","0.0-1.0-315.0","0","0","40481","","null","","","null","34","","","","","","","","","","","","","","","NaN",""
"","S1","","html-keyboard-response","235","240613","0.0-1.0-317.0","0","0","40481","","null","","","null","35","","","","","","","","","","","","","","","",""
"","ISI","","html-keyboard-response","236","242615","0.0-1.0-318.0","0","0","40481","","null","","","null","35","NaN","","","","","","","","","","","","","","",""
"","S2","","html-keyboard-response","237","242867","0.0-1.0-319.0","0","0","40481","","null","","","null","35","","NaN","","","","","","","","","","","","","",""
"","response","","html-keyboard-response","238","243885","0.0-1.0-320.0","0","0","40481","","1016","","","68","35","","","1","35","training","adjacent","BC","2","3","Q.jpg","R.jpg","0","1","0","",""
"","feedback","","html-keyboard-response","239","244887","0.0-1.0-321.0-0.0","0","0","40481","","null","","","null","35","","","","","","","","","","","","","","","",""
"","time_out","","html-keyboard-response","240","246890","0.0-1.0-323.0-0.0","0","0","40481","","null","","","null","35","","","","","","","","","","","","","","","",""
"","ITI","","html-keyboard-response","241","247893","0.0-1.0-324.0","0","0","40481","","null","","","null","35","","","","","","","","","","","","","","","NaN",""
"","S1","","html-keyboard-response","242","248144","0.0-1.0-326.0","0","0","40481","","null","","","null","36","","","","","","","","","","","","","","","",""
"","ISI","","html-keyboard-response","243","250146","0.0-1.0-327.0","0","0","40481","","null","","","null","36","NaN","","","","","","","","","","","","","","",""
"","S2","","html-keyboard-response","244","250398","0.0-1.0-328.0","0","0","40481","","null","","","null","36","","NaN","","","","","","","","","","","","","",""
"","response","","html-keyboard-response","245","250982","0.0-1.0-329.0","0","0","40481","","583","","","75","36","","","1","36","training","adjacent","EF","5","6","O.jpg","L.jpg","1","1","1","",""
"","feedback","","html-keyboard-response","246","251985","0.0-1.0-330.0-0.0","0","0","40481","","null","","","null","36","","","","","","","","","","","","","","","",""
"","ITI","","html-keyboard-response","247","252988","0.0-1.0-333.0","0","0","40481","","null","","","null","36","","","","","","","","","","","","","","","NaN",""
"","S1","","html-keyboard-response","248","253240","0.0-1.0-335.0","0","0","40481","","null","","","null","37","","","","","","","","","","","","","","","",""
"","ISI","","html-keyboard-response","249","255243","0.0-1.0-336.0","0","0","40481","","null","","","null","37","NaN","","","","","","","","","","","","","","",""
"","S2","","html-keyboard-response","250","255495","0.0-1.0-337.0","0","0","40481","","null","","","null","37","","NaN","","","","","","","","","","","","","",""
"","response","","html-keyboard-response","251","256513","0.0-1.0-338.0","0","0","40481","","1016","","","75","37","","","1","37","training","adjacent","GF","7","6","P.jpg","L.jpg","1","0","0","",""
"","feedback","","html-keyboard-response","252","257516","0.0-1.0-339.0-0.0","0","0","40481","","null","","","null","37","","","","","","","","","","","","","","","",""
"","time_out","","html-keyboard-response","253","259520","0.0-1.0-341.0-0.0","0","0","40481","","null","","","null","37","","","","","","","","","","","","","","","",""
"","ITI","","html-keyboard-response","254","260522","0.0-1.0-342.0","0","0","40481","","null","","","null","37","","","","","","","","","","","","","","","NaN",""
"","S1","","html-keyboard-response","255","260774","0.0-1.0-344.0","0","0","40481","","null","","","null","38","","","","","","","","","","","","","","","",""
"","ISI","","html-keyboard-response","256","262776","0.0-1.0-345.0","0","0","40481","","null","","","null","38","NaN","","","","","","","","","","","","","","",""
"","S2","","html-keyboard-response","257","263030","0.0-1.0-346.0","0","0","40481","","null","","","null","38","","NaN","","","","","","","","","","","","","",""
"","response","","html-keyboard-response","258","263055","0.0-1.0-347.0","0","0","40481","","24","","","75","38","","","1","38","training","adjacent","ED","5","4","O.jpg","N.jpg","1","0","0","",""
"","feedback","","html-keyboard-response","259","264057","0.0-1.0-348.0-0.0","0","0","40481","","null","","","null","38","","","","","","","","","","","","","","","",""
"","time_out","","html-keyboard-response","260","266059","0.0-1.0-350.0-0.0","0","0","40481","","null","","","null","38","","","","","","","","","","","","","","","",""
"","ITI","","html-keyboard-response","261","267062","0.0-1.0-351.0","0","0","40481","","null","","","null","38","","","","","","","","","","","","","","","NaN",""
"","S1","","html-keyboard-response","262","267313","0.0-1.0-353.0","0","0","40481","","null","","","null","39","","","","","","","","","","","","","","","",""
"","ISI","","html-keyboard-response","263","269314","0.0-1.0-354.0","0","0","40481","","null","","","null","39","NaN","","","","","","","","","","","","","","",""
"","S2","","html-keyboard-response","264","269567","0.0-1.0-355.0","0","0","40481","","null","","","null","39","","NaN","","","","","","","","","","","","","",""
"","response","","html-keyboard-response","265","270717","0.0-1.0-356.0","0","0","40481","","1149","","","75","39","","","1","39","training","adjacent","FE","6","5","L.jpg","O.jpg","1","0","0","",""
"","feedback","","html-keyboard-response","266","271719","0.0-1.0-357.0-0.0","0","0","40481","","null","","","null","39","","","","","","","","","","","","","","","",""
"","time_out","","html-keyboard-response","267","273722","0.0-1.0-359.0-0.0","0","0","40481","","null","","","null","39","","","","","","","","","","","","","","","",""
"","ITI","","html-keyboard-response","268","274725","0.0-1.0-360.0","0","0","40481","","null","","","null","39","","","","","","","","","","","","","","","NaN",""
"","S1","","html-keyboard-response","269","274977","0.0-1.0-362.0","0","0","40481","","null","","","null","40","","","","","","","","","","","","","","","",""
"","ISI","","html-keyboard-response","270","276979","0.0-1.0-363.0","0","0","40481","","null","","","null","40","NaN","","","","","","","","","","","","","","",""
"","S2","","html-keyboard-response","271","277232","0.0-1.0-364.0","0","0","40481","","null","","","null","40","","NaN","","","","","","","","","","","","","",""
"","response","","html-keyboard-response","272","277302","0.0-1.0-365.0","0","0","40481","","69","","","68","40","","","1","40","training","adjacent","EF","5","6","O.jpg","L.jpg","0","1","0","",""
"","feedback","","html-keyboard-response","273","278305","0.0-1.0-366.0-0.0","0","0","40481","","null","","","null","40","","","","","","","","","","","","","","","",""
"","time_out","","html-keyboard-response","274","280307","0.0-1.0-368.0-0.0","0","0","40481","","null","","","null","40","","","","","","","","","","","","","","","",""
"","ITI","","html-keyboard-response","275","281310","0.0-1.0-369.0","0","0","40481","","null","","","null","40","","","","","","","","","","","","","","","NaN",""
"","S1","","html-keyboard-response","276","281561","0.0-1.0-371.0","0","0","40481","","null","","","null","41","","","","","","","","","","","","","","","",""
"","ISI","","html-keyboard-response","277","283563","0.0-1.0-372.0","0","0","40481","","null","","","null","41","NaN","","","","","","","","","","","","","","",""
"","S2","","html-keyboard-response","278","283815","0.0-1.0-373.0","0","0","40481","","null","","","null","41","","NaN","","","","","","","","","","","","","",""
"","response","","html-keyboard-response","279","284287","0.0-1.0-374.0","0","0","40481","","471","","","75","41","","","1","41","training","adjacent","DE","4","5","N.jpg","O.jpg","1","1","1","",""
"","feedback","","html-keyboard-response","280","285288","0.0-1.0-375.0-0.0","0","0","40481","","null","","","null","41","","","","","","","","","","","","","","","",""
"","ITI","","html-keyboard-response","281","286290","0.0-1.0-378.0","0","0","40481","","null","","","null","41","","","","","","","","","","","","","","","NaN",""
"","S1","","html-keyboard-response","282","286543","0.0-1.0-380.0","0","0","40481","","null","","","null","42","","","","","","","","","","","","","","","",""
"","ISI","","html-keyboard-response","283","288545","0.0-1.0-381.0","0","0","40481","","null","","","null","42","NaN","","","","","","","","","","","","","","",""
"","S2","","html-keyboard-response","284","288797","0.0-1.0-382.0","0","0","40481","","null","","","null","42","","NaN","","","","","","","","","","","","","",""
"","response","","html-keyboard-response","285","289376","0.0-1.0-383.0","0","0","40481","","577","","","75","42","","","1","42","training","adjacent","CB","3","2","R.jpg","Q.jpg","1","0","0","",""
"","feedback","","html-keyboard-response","286","290377","0.0-1.0-384.0-0.0","0","0","40481","","null","","","null","42","","","","","","","","","","","","","","","",""
"","time_out","","html-keyboard-response","287","292380","0.0-1.0-386.0-0.0","0","0","40481","","null","","","null","42","","","","","","","","","","","","","","","",""
"","ITI","","html-keyboard-response","288","293382","0.0-1.0-387.0","0","0","40481","","null","","","null","42","","","","","","","","","","","","","","","NaN",""
"","S1","","html-keyboard-response","289","293634","0.0-1.0-389.0","0","0","40481","","null","","","null","43","","","","","","","","","","","","","","","",""
"","ISI","","html-keyboard-response","290","295635","0.0-1.0-390.0","0","0","40481","","null","","","null","43","NaN","","","","","","","","","","","","","","",""
"","S2","","html-keyboard-response","291","295888","0.0-1.0-391.0","0","0","40481","","null","","","null","43","","NaN","","","","","","","","","","","","","",""
"","response","","html-keyboard-response","292","296002","0.0-1.0-392.0","0","0","40481","","113","","","75","43","","","1","43","training","adjacent","GF","7","6","P.jpg","L.jpg","1","0","0","",""
"","feedback","","html-keyboard-response","293","297005","0.0-1.0-393.0-0.0","0","0","40481","","null","","","null","43","","","","","","","","","","","","","","","",""
"","time_out","","html-keyboard-response","294","299008","0.0-1.0-395.0-0.0","0","0","40481","","null","","","null","43","","","","","","","","","","","","","","","",""
"","ITI","","html-keyboard-response","295","300011","0.0-1.0-396.0","0","0","40481","","null","","","null","43","","","","","","","","","","","","","","","NaN",""
"","S1","","html-keyboard-response","296","300263","0.0-1.0-398.0","0","0","40481","","null","","","null","44","","","","","","","","","","","","","","","",""
"","ISI","","html-keyboard-response","297","302266","0.0-1.0-399.0","0","0","40481","","null","","","null","44","NaN","","","","","","","","","","","","","","",""
"","S2","","html-keyboard-response","298","302518","0.0-1.0-400.0","0","0","40481","","null","","","null","44","","NaN","","","","","","","","","","","","","",""
"","response","","html-keyboard-response","299","302679","0.0-1.0-401.0","0","0","40481","","160","","","75","44","","","1","44","training","adjacent","BA","2","1","Q.jpg","M.jpg","1","0","0","",""
"","feedback","","html-keyboard-response","300","303681","0.0-1.0-402.0-0.0","0","0","40481","","null","","","null","44","","","","","","","","","","","","","","","",""
"","time_out","","html-keyboard-response","301","305683","0.0-1.0-404.0-0.0","0","0","40481","","null","","","null","44","","","","","","","","","","","","","","","",""
"","ITI","","html-keyboard-response","302","306699","0.0-1.0-405.0","0","0","40481","","null","","","null","44","","","","","","","","","","","","","","","NaN",""
"","S1","","html-keyboard-response","303","306951","0.0-1.0-407.0","0","0","40481","","null","","","null","45","","","","","","","","","","","","","","","",""
"","ISI","","html-keyboard-response","304","308953","0.0-1.0-408.0","0","0","40481","","null","","","null","45","NaN","","","","","","","","","","","","","","",""
"","S2","","html-keyboard-response","305","309205","0.0-1.0-409.0","0","0","40481","","null","","","null","45","","NaN","","","","","","","","","","","","","",""
"","response","","html-keyboard-response","306","309722","0.0-1.0-410.0","0","0","40481","","515","","","75","45","","","1","45","training","adjacent","CD","3","4","R.jpg","N.jpg","1","1","1","",""
"","feedback","","html-keyboard-response","307","310725","0.0-1.0-411.0-0.0","0","0","40481","","null","","","null","45","","","","","","","","","","","","","","","",""
"","ITI","","html-keyboard-response","308","311729","0.0-1.0-414.0","0","0","40481","","null","","","null","45","","","","","","","","","","","","","","","NaN",""
"","S1","","html-keyboard-response","309","311981","0.0-1.0-416.0","0","0","40481","","null","","","null","46","","","","","","","","","","","","","","","",""
"","ISI","","html-keyboard-response","310","313983","0.0-1.0-417.0","0","0","40481","","null","","","null","46","NaN","","","","","","","","","","","","","","",""
"","S2","","html-keyboard-response","311","314236","0.0-1.0-418.0","0","0","40481","","null","","","null","46","","NaN","","","","","","","","","","","","","",""
"","response","","html-keyboard-response","312","315121","0.0-1.0-419.0","0","0","40481","","884","","","75","46","","","1","46","training","adjacent","BA","2","1","Q.jpg","M.jpg","1","0","0","",""
"","feedback","","html-keyboard-response","313","316123","0.0-1.0-420.0-0.0","0","0","40481","","null","","","null","46","","","","","","","","","","","","","","","",""
"","time_out","","html-keyboard-response","314","318125","0.0-1.0-422.0-0.0","0","0","40481","","null","","","null","46","","","","","","","","","","","","","","","",""
"","ITI","","html-keyboard-response","315","319128","0.0-1.0-423.0","0","0","40481","","null","","","null","46","","","","","","","","","","","","","","","NaN",""
"","S1","","html-keyboard-response","316","319380","0.0-1.0-425.0","0","0","40481","","null","","","null","47","","","","","","","","","","","","","","","",""
"","ISI","","html-keyboard-response","317","321382","0.0-1.0-426.0","0","0","40481","","null","","","null","47","NaN","","","","","","","","","","","","","","",""
"","S2","","html-keyboard-response","318","321634","0.0-1.0-427.0","0","0","40481","","null","","","null","47","","NaN","","","","","","","","","","","","","",""
"","response","","html-keyboard-response","319","322003","0.0-1.0-428.0","0","0","40481","","367","","","68","47","","","1","47","training","adjacent","AB","1","2","M.jpg","Q.jpg","0","1","0","",""
"","feedback","","html-keyboard-response","320","323006","0.0-1.0-429.0-0.0","0","0","40481","","null","","","null","47","","","","","","","","","","","","","","","",""
"","time_out","","html-keyboard-response","321","325009","0.0-1.0-431.0-0.0","0","0","40481","","null","","","null","47","","","","","","","","","","","","","","","",""
"","ITI","","html-keyboard-response","322","326012","0.0-1.0-432.0","0","0","40481","","null","","","null","47","","","","","","","","","","","","","","","NaN",""
"","block_over","","html-keyboard-response","323","330296","0.0-1.0-433.0-0.0","0","0","40481","","4282","","","32","47","","","","","","","","","","","","","","","",""
"","S1","","html-keyboard-response","324","330549","0.0-1.0-434.0","0","0","40481","","null","","","null","48","","","","","","","","","","","","","","","",""
"","ISI","","html-keyboard-response","325","332566","0.0-1.0-435.0","0","0","40481","","null","","","null","48","NaN","","","","","","","","","","","","","","",""
"","S2","","html-keyboard-response","326","332818","0.0-1.0-436.0","0","0","40481","","null","","","null","48","","NaN","","","","","","","","","","","","","",""
"","response","","html-keyboard-response","327","333026","0.0-1.0-437.0","0","0","40481","","205","","","75","48","","","2","48","training","adjacent","EF","5","6","O.jpg","L.jpg","1","1","1","",""
"","feedback","","html-keyboard-response","328","334029","0.0-1.0-438.0-0.0","0","0","40481","","null","","","null","48","","","","","","","","","","","","","","","",""
"","ITI","","html-keyboard-response","329","335033","0.0-1.0-441.0","0","0","40481","","null","","","null","48","","","","","","","","","","","","","","","NaN",""
"","S1","","html-keyboard-response","330","335286","0.0-1.0-443.0","0","0","40481","","null","","","null","49","","","","","","","","","","","","","","","",""
"","ISI","","html-keyboard-response","331","337289","0.0-1.0-444.0","0","0","40481","","null","","","null","49","NaN","","","","","","","","","","","","","","",""
"","S2","","html-keyboard-response","332","337542","0.0-1.0-445.0","0","0","40481","","null","","","null","49","","NaN","","","","","","","","","","","","","",""
"","response","","html-keyboard-response","333","338571","0.0-1.0-446.0","0","0","40481","","1028","","","68","49","","","2","49","training","adjacent","BC","2","3","Q.jpg","R.jpg","0","1","0","",""
"","feedback","","html-keyboard-response","334","339574","0.0-1.0-447.0-0.0","0","0","40481","","null","","","null","49","","","","","","","","","","","","","","","",""
"","time_out","","html-keyboard-response","335","341576","0.0-1.0-449.0-0.0","0","0","40481","","null","","","null","49","","","","","","","","","","","","","","","",""
"","ITI","","html-keyboard-response","336","342578","0.0-1.0-450.0","0","0","40481","","null","","","null","49","","","","","","","","","","","","","","","NaN",""
"","S1","","html-keyboard-response","337","342831","0.0-1.0-452.0","0","0","40481","","null","","","null","50","","","","","","","","","","","","","","","",""
"","ISI","","html-keyboard-response","338","344833","0.0-1.0-453.0","0","0","40481","","null","","","null","50","NaN","","","","","","","","","","","","","","",""
"","S2","","html-keyboard-response","339","345086","0.0-1.0-454.0","0","0","40481","","null","","","null","50","","NaN","","","","","","","","","","","","","",""
"","response","","html-keyboard-response","340","345354","0.0-1.0-455.0","0","0","40481","","267","","","75","50","","","2","50","training","adjacent","ED","5","4","O.jpg","N.jpg","1","0","0","",""
"","feedback","","html-keyboard-response","341","346357","0.0-1.0-456.0-0.0","0","0","40481","","null","","","null","50","","","","","","","","","","","","","","","",""
"","time_out","","html-keyboard-response","342","348360","0.0-1.0-458.0-0.0","0","0","40481","","null","","","null","50","","","","","","","","","","","","","","","",""
"","ITI","","html-keyboard-response","343","349362","0.0-1.0-459.0","0","0","40481","","null","","","null","50","","","","","","","","","","","","","","","NaN",""
"","S1","","html-keyboard-response","344","349614","0.0-1.0-461.0","0","0","40481","","null","","","null","51","","","","","","","","","","","","","","","",""
"","ISI","","html-keyboard-response","345","351616","0.0-1.0-462.0","0","0","40481","","null","","","null","51","NaN","","","","","","","","","","","","","","",""
"","S2","","html-keyboard-response","346","351869","0.0-1.0-463.0","0","0","40481","","null","","","null","51","","NaN","","","","","","","","","","","","","",""
"","response","","html-keyboard-response","347","352630","0.0-1.0-464.0","0","0","40481","","761","","","75","51","","","2","51","training","adjacent","FG","6","7","L.jpg","P.jpg","1","1","1","",""
"","feedback","","html-keyboard-response","348","353633","0.0-1.0-465.0-0.0","0","0","40481","","null","","","null","51","","","","","","","","","","","","","","","",""
"","ITI","","html-keyboard-response","349","354636","0.0-1.0-468.0","0","0","40481","","null","","","null","51","","","","","","","","","","","","","","","NaN",""
"","S1","","html-keyboard-response","350","354889","0.0-1.0-470.0","0","0","40481","","null","","","null","52","","","","","","","","","","","","","","","",""
"","ISI","","html-keyboard-response","351","356890","0.0-1.0-471.0","0","0","40481","","null","","","null","52","NaN","","","","","","","","","","","","","","",""
"","S2","","html-keyboard-response","352","357142","0.0-1.0-472.0","0","0","40481","","null","","","null","52","","NaN","","","","","","","","","","","","","",""
"","response","","html-keyboard-response","353","357658","0.0-1.0-473.0","0","0","40481","","515","","","68","52","","","2","52","training","adjacent","BA","2","1","Q.jpg","M.jpg","0","0","1","",""
"","feedback","","html-keyboard-response","354","358663","0.0-1.0-474.0-0.0","0","0","40481","","null","","","null","52","","","","","","","","","","","","","","","",""
"","ITI","","html-keyboard-response","355","359665","0.0-1.0-477.0","0","0","40481","","null","","","null","52","","","","","","","","","","","","","","","NaN",""
"","S1","","html-keyboard-response","356","359918","0.0-1.0-479.0","0","0","40481","","null","","","null","53","","","","","","","","","","","","","","","",""
"","ISI","","html-keyboard-response","357","361921","0.0-1.0-480.0","0","0","40481","","null","","","null","53","NaN","","","","","","","","","","","","","","",""
"","S2","","html-keyboard-response","358","362174","0.0-1.0-481.0","0","0","40481","","null","","","null","53","","NaN","","","","","","","","","","","","","",""
"","response","","html-keyboard-response","359","362647","0.0-1.0-482.0","0","0","40481","","471","","","75","53","","","2","53","training","adjacent","DC","4","3","N.jpg","R.jpg","1","0","0","",""
"","feedback","","html-keyboard-response","360","363649","0.0-1.0-483.0-0.0","0","0","40481","","null","","","null","53","","","","","","","","","","","","","","","",""
"","time_out","","html-keyboard-response","361","365651","0.0-1.0-485.0-0.0","0","0","40481","","null","","","null","53","","","","","","","","","","","","","","","",""
"","ITI","","html-keyboard-response","362","366653","0.0-1.0-486.0","0","0","40481","","null","","","null","53","","","","","","","","","","","","","","","NaN",""
"","S1","","html-keyboard-response","363","366905","0.0-1.0-488.0","0","0","40481","","null","","","null","54","","","","","","","","","","","","","","","",""
"","ISI","","html-keyboard-response","364","368907","0.0-1.0-489.0","0","0","40481","","null","","","null","54","NaN","","","","","","","","","","","","","","",""
"","S2","","html-keyboard-response","365","369159","0.0-1.0-490.0","0","0","40481","","null","","","null","54","","NaN","","","","","","","","","","","","","",""
"","response","","html-keyboard-response","366","369406","0.0-1.0-491.0","0","0","40481","","246","","","75","54","","","2","54","training","adjacent","CD","3","4","R.jpg","N.jpg","1","1","1","",""
"","feedback","","html-keyboard-response","367","370409","0.0-1.0-492.0-0.0","0","0","40481","","null","","","null","54","","","","","","","","","","","","","","","",""
"","ITI","","html-keyboard-response","368","371412","0.0-1.0-495.0","0","0","40481","","null","","","null","54","","","","","","","","","","","","","","","NaN",""
"","S1","","html-keyboard-response","369","371664","0.0-1.0-497.0","0","0","40481","","null","","","null","55","","","","","","","","","","","","","","","",""
"","ISI","","html-keyboard-response","370","373666","0.0-1.0-498.0","0","0","40481","","null","","","null","55","NaN","","","","","","","","","","","","","","",""
"","S2","","html-keyboard-response","371","373919","0.0-1.0-499.0","0","0","40481","","null","","","null","55","","NaN","","","","","","","","","","","","","",""
"","response","","html-keyboard-response","372","374793","0.0-1.0-500.0","0","0","40481","","873","","","75","55","","","2","55","training","adjacent","AB","1","2","M.jpg","Q.jpg","1","1","1","",""
"","feedback","","html-keyboard-response","373","375795","0.0-1.0-501.0-0.0","0","0","40481","","null","","","null","55","","","","","","","","","","","","","","","",""
"","ITI","","html-keyboard-response","374","376798","0.0-1.0-504.0","0","0","40481","","null","","","null","55","","","","","","","","","","","","","","","NaN",""
"","S1","","html-keyboard-response","375","377050","0.0-1.0-506.0","0","0","40481","","null","","","null","56","","","","","","","","","","","","","","","",""
"","ISI","","html-keyboard-response","376","379052","0.0-1.0-507.0","0","0","40481","","null","","","null","56","NaN","","","","","","","","","","","","","","",""
"","S2","","html-keyboard-response","377","379305","0.0-1.0-508.0","0","0","40481","","null","","","null","56","","NaN","","","","","","","","","","","","","",""
"","response","","html-keyboard-response","378","379905","0.0-1.0-509.0","0","0","40481","","598","","","75","56","","","2","56","training","adjacent","GF","7","6","P.jpg","L.jpg","1","0","0","",""
"","feedback","","html-keyboard-response","379","380907","0.0-1.0-510.0-0.0","0","0","40481","","null","","","null","56","","","","","","","","","","","","","","","",""
"","time_out","","html-keyboard-response","380","382909","0.0-1.0-512.0-0.0","0","0","40481","","null","","","null","56","","","","","","","","","","","","","","","",""
"","ITI","","html-keyboard-response","381","383911","0.0-1.0-513.0","0","0","40481","","null","","","null","56","","","","","","","","","","","","","","","NaN",""
"","S1","","html-keyboard-response","382","384164","0.0-1.0-515.0","0","0","40481","","null","","","null","57","","","","","","","","","","","","","","","",""
"","ISI","","html-keyboard-response","383","386166","0.0-1.0-516.0","0","0","40481","","null","","","null","57","NaN","","","","","","","","","","","","","","",""
"","S2","","html-keyboard-response","384","386418","0.0-1.0-517.0","0","0","40481","","null","","","null","57","","NaN","","","","","","","","","","","","","",""
"","response","","html-keyboard-response","385","386698","0.0-1.0-518.0","0","0","40481","","279","","","75","57","","","2","57","training","adjacent","EF","5","6","O.jpg","L.jpg","1","1","1","",""
"","feedback","","html-keyboard-response","386","387700","0.0-1.0-519.0-0.0","0","0","40481","","null","","","null","57","","","","","","","","","","","","","","","",""
"","ITI","","html-keyboard-response","387","388703","0.0-1.0-522.0","0","0","40481","","null","","","null","57","","","","","","","","","","","","","","","NaN",""
"","S1","","html-keyboard-response","388","388955","0.0-1.0-524.0","0","0","40481","","null","","","null","58","","","","","","","","","","","","","","","",""
"","ISI","","html-keyboard-response","389","390958","0.0-1.0-525.0","0","0","40481","","null","","","null","58","NaN","","","","","","","","","","","","","","",""
"","S2","","html-keyboard-response","390","391210","0.0-1.0-526.0","0","0","40481","","null","","","null","58","","NaN","","","","","","","","","","","","","",""
"","response","","html-keyboard-response","391","391674","0.0-1.0-527.0","0","0","40481","","462","","","68","58","","","2","58","training","adjacent","GF","7","6","P.jpg","L.jpg","0","0","1","",""
"","feedback","","html-keyboard-response","392","392677","0.0-1.0-528.0-0.0","0","0","40481","","null","","","null","58","","","","","","","","","","","","","","","",""
"","ITI","","html-keyboard-response","393","393678","0.0-1.0-531.0","0","0","40481","","null","","","null","58","","","","","","","","","","","","","","","NaN",""
"","S1","","html-keyboard-response","394","393931","0.0-1.0-533.0","0","0","40481","","null","","","null","59","","","","","","","","","","","","","","","",""
"","ISI","","html-keyboard-response","395","395932","0.0-1.0-534.0","0","0","40481","","null","","","null","59","NaN","","","","","","","","","","","","","","",""
"","S2","","html-keyboard-response","396","396185","0.0-1.0-535.0","0","0","40481","","null","","","null","59","","NaN","","","","","","","","","","","","","",""
"","response","","html-keyboard-response","397","396893","0.0-1.0-536.0","0","0","40481","","707","","","68","59","","","2","59","training","adjacent","BA","2","1","Q.jpg","M.jpg","0","0","1","",""
"","feedback","","html-keyboard-response","398","397897","0.0-1.0-537.0-0.0","0","0","40481","","null","","","null","59","","","","","","","","","","","","","","","",""
"","ITI","","html-keyboard-response","399","398900","0.0-1.0-540.0","0","0","40481","","null","","","null","59","","","","","","","","","","","","","","","NaN",""
"","S1","","html-keyboard-response","400","399165","0.0-1.0-542.0","0","0","40481","","null","","","null","60","","","","","","","","","","","","","","","",""
"","ISI","","html-keyboard-response","401","401167","0.0-1.0-543.0","0","0","40481","","null","","","null","60","NaN","","","","","","","","","","","","","","",""
"","S2","","html-keyboard-response","402","401420","0.0-1.0-544.0","0","0","40481","","null","","","null","60","","NaN","","","","","","","","","","","","","",""
"","response","","html-keyboard-response","403","402040","0.0-1.0-545.0","0","0","40481","","619","","","75","60","","","2","60","training","adjacent","GF","7","6","P.jpg","L.jpg","1","0","0","",""
"","feedback","","html-keyboard-response","404","403042","0.0-1.0-546.0-0.0","0","0","40481","","null","","","null","60","","","","","","","","","","","","","","","",""
"","time_out","","html-keyboard-response","405","405045","0.0-1.0-548.0-0.0","0","0","40481","","null","","","null","60","","","","","","","","","","","","","","","",""
"","ITI","","html-keyboard-response","406","406048","0.0-1.0-549.0","0","0","40481","","null","","","null","60","","","","","","","","","","","","","","","NaN",""
"","S1","","html-keyboard-response","407","406300","0.0-1.0-551.0","0","0","40481","","null","","","null","61","","","","","","","","","","","","","","","",""
"","ISI","","html-keyboard-response","408","408302","0.0-1.0-552.0","0","0","40481","","null","","","null","61","NaN","","","","","","","","","","","","","","",""
"","S2","","html-keyboard-response","409","408554","0.0-1.0-553.0","0","0","40481","","null","","","null","61","","NaN","","","","","","","","","","","","","",""
"","response","","html-keyboard-response","410","408773","0.0-1.0-554.0","0","0","40481","","217","","","75","61","","","2","61","training","adjacent","DE","4","5","N.jpg","O.jpg","1","1","1","",""
"","feedback","","html-keyboard-response","411","409776","0.0-1.0-555.0-0.0","0","0","40481","","null","","","null","61","","","","","","","","","","","","","","","",""
"","ITI","","html-keyboard-response","412","410778","0.0-1.0-558.0","0","0","40481","","null","","","null","61","","","","","","","","","","","","","","","NaN",""
"","S1","","html-keyboard-response","413","411029","0.0-1.0-560.0","0","0","40481","","null","","","null","62","","","","","","","","","","","","","","","",""
"","ISI","","html-keyboard-response","414","413032","0.0-1.0-561.0","0","0","40481","","null","","","null","62","NaN","","","","","","","","","","","","","","",""
"","S2","","html-keyboard-response","415","413284","0.0-1.0-562.0","0","0","40481","","null","","","null","62","","NaN","","","","","","","","","","","","","",""
"","response","","html-keyboard-response","416","414678","0.0-1.0-563.0","0","0","40481","","1392","","","68","62","","","2","62","training","adjacent","CD","3","4","R.jpg","N.jpg","0","1","0","",""
"","feedback","","html-keyboard-response","417","415688","0.0-1.0-564.0-0.0","0","0","40481","","null","","","null","62","","","","","","","","","","","","","","","",""
"","time_out","","html-keyboard-response","418","417692","0.0-1.0-566.0-0.0","0","0","40481","","null","","","null","62","","","","","","","","","","","","","","","",""
"","ITI","","html-keyboard-response","419","418694","0.0-1.0-567.0","0","0","40481","","null","","","null","62","","","","","","","","","","","","","","","NaN",""
"","S1","","html-keyboard-response","420","418949","0.0-1.0-569.0","0","0","40481","","null","","","null","63","","","","","","","","","","","","","","","",""
"","ISI","","html-keyboard-response","421","420952","0.0-1.0-570.0","0","0","40481","","null","","","null","63","NaN","","","","","","","","","","","","","","",""
"","S2","","html-keyboard-response","422","421204","0.0-1.0-571.0","0","0","40481","","null","","","null","63","","NaN","","","","","","","","","","","","","",""
"","response","","html-keyboard-response","423","421300","0.0-1.0-572.0","0","0","40481","","94","","","75","63","","","2","63","training","adjacent","CB","3","2","R.jpg","Q.jpg","1","0","0","",""
"","feedback","","html-keyboard-response","424","422302","0.0-1.0-573.0-0.0","0","0","40481","","null","","","null","63","","","","","","","","","","","","","","","",""
"","time_out","","html-keyboard-response","425","424304","0.0-1.0-575.0-0.0","0","0","40481","","null","","","null","63","","","","","","","","","","","","","","","",""
"","ITI","","html-keyboard-response","426","425307","0.0-1.0-576.0","0","0","40481","","null","","","null","63","","","","","","","","","","","","","","","NaN",""
"","S1","","html-keyboard-response","427","425560","0.0-1.0-578.0","0","0","40481","","null","","","null","64","","","","","","","","","","","","","","","",""
"","ISI","","html-keyboard-response","428","427562","0.0-1.0-579.0","0","0","40481","","null","","","null","64","NaN","","","","","","","","","","","","","","",""
"","S2","","html-keyboard-response","429","427814","0.0-1.0-580.0","0","0","40481","","null","","","null","64","","NaN","","","","","","","","","","","","","",""
"","response","","html-keyboard-response","430","428972","0.0-1.0-581.0","0","0","40481","","1157","","","75","64","","","2","64","training","adjacent","FG","6","7","L.jpg","P.jpg","1","1","1","",""
"","feedback","","html-keyboard-response","431","429974","0.0-1.0-582.0-0.0","0","0","40481","","null","","","null","64","","","","","","","","","","","","","","","",""
"","ITI","","html-keyboard-response","432","430978","0.0-1.0-585.0","0","0","40481","","null","","","null","64","","","","","","","","","","","","","","","NaN",""
"","S1","","html-keyboard-response","433","431230","0.0-1.0-587.0","0","0","40481","","null","","","null","65","","","","","","","","","","","","","","","",""
"","ISI","","html-keyboard-response","434","433234","0.0-1.0-588.0","0","0","40481","","null","","","null","65","NaN","","","","","","","","","","","","","","",""
"","S2","","html-keyboard-response","435","433485","0.0-1.0-589.0","0","0","40481","","null","","","null","65","","NaN","","","","","","","","","","","","","",""
"","response","","html-keyboard-response","436","434298","0.0-1.0-590.0","0","0","40481","","811","","","75","65","","","2","65","training","adjacent","CD","3","4","R.jpg","N.jpg","1","1","1","",""
"","feedback","","html-keyboard-response","437","435302","0.0-1.0-591.0-0.0","0","0","40481","","null","","","null","65","","","","","","","","","","","","","","","",""
"","ITI","","html-keyboard-response","438","436304","0.0-1.0-594.0","0","0","40481","","null","","","null","65","","","","","","","","","","","","","","","NaN",""
"","S1","","html-keyboard-response","439","436555","0.0-1.0-596.0","0","0","40481","","null","","","null","66","","","","","","","","","","","","","","","",""
"","ISI","","html-keyboard-response","440","438558","0.0-1.0-597.0","0","0","40481","","null","","","null","66","NaN","","","","","","","","","","","","","","",""
"","S2","","html-keyboard-response","441","438810","0.0-1.0-598.0","0","0","40481","","null","","","null","66","","NaN","","","","","","","","","","","","","",""
"","response","","html-keyboard-response","442","439054","0.0-1.0-599.0","0","0","40481","","242","","","75","66","","","2","66","training","adjacent","AB","1","2","M.jpg","Q.jpg","1","1","1","",""
"","feedback","","html-keyboard-response","443","440056","0.0-1.0-600.0-0.0","0","0","40481","","null","","","null","66","","","","","","","","","","","","","","","",""
"","ITI","","html-keyboard-response","444","441059","0.0-1.0-603.0","0","0","40481","","null","","","null","66","","","","","","","","","","","","","","","NaN",""
"","S1","","html-keyboard-response","445","441312","0.0-1.0-605.0","0","0","40481","","null","","","null","67","","","","","","","","","","","","","","","",""
"","ISI","","html-keyboard-response","446","443314","0.0-1.0-606.0","0","0","40481","","null","","","null","67","NaN","","","","","","","","","","","","","","",""
"","S2","","html-keyboard-response","447","443567","0.0-1.0-607.0","0","0","40481","","null","","","null","67","","NaN","","","","","","","","","","","","","",""
"","response","","html-keyboard-response","448","444087","0.0-1.0-608.0","0","0","40481","","518","","","75","67","","","2","67","training","adjacent","CB","3","2","R.jpg","Q.jpg","1","0","0","",""
"","feedback","","html-keyboard-response","449","445089","0.0-1.0-609.0-0.0","0","0","40481","","null","","","null","67","","","","","","","","","","","","","","","",""
"","time_out","","html-keyboard-response","450","447091","0.0-1.0-611.0-0.0","0","0","40481","","null","","","null","67","","","","","","","","","","","","","","","",""
"","ITI","","html-keyboard-response","451","448093","0.0-1.0-612.0","0","0","40481","","null","","","null","67","","","","","","","","","","","","","","","NaN",""
"","S1","","html-keyboard-response","452","448345","0.0-1.0-614.0","0","0","40481","","null","","","null","68","","","","","","","","","","","","","","","",""
"","ISI","","html-keyboard-response","453","450348","0.0-1.0-615.0","0","0","40481","","null","","","null","68","NaN","","","","","","","","","","","","","","",""
"","S2","","html-keyboard-response","454","450601","0.0-1.0-616.0","0","0","40481","","null","","","null","68","","NaN","","","","","","","","","","","","","",""
"","response","","html-keyboard-response","455","450644","0.0-1.0-617.0","0","0","40481","","42","","","75","68","","","2","68","training","adjacent","DE","4","5","N.jpg","O.jpg","1","1","1","",""
"","feedback","","html-keyboard-response","456","451647","0.0-1.0-618.0-0.0","0","0","40481","","null","","","null","68","","","","","","","","","","","","","","","",""
"","ITI","","html-keyboard-response","457","452651","0.0-1.0-621.0","0","0","40481","","null","","","null","68","","","","","","","","","","","","","","","NaN",""
"","S1","","html-keyboard-response","458","452904","0.0-1.0-623.0","0","0","40481","","null","","","null","69","","","","","","","","","","","","","","","",""
"","ISI","","html-keyboard-response","459","454906","0.0-1.0-624.0","0","0","40481","","null","","","null","69","NaN","","","","","","","","","","","","","","",""
"","S2","","html-keyboard-response","460","455159","0.0-1.0-625.0","0","0","40481","","null","","","null","69","","NaN","","","","","","","","","","","","","",""
"","response","","html-keyboard-response","461","455824","0.0-1.0-626.0","0","0","40481","","663","","","75","69","","","2","69","training","adjacent","FE","6","5","L.jpg","O.jpg","1","0","0","",""
"","feedback","","html-keyboard-response","462","456826","0.0-1.0-627.0-0.0","0","0","40481","","null","","","null","69","","","","","","","","","","","","","","","",""
"","time_out","","html-keyboard-response","463","458829","0.0-1.0-629.0-0.0","0","0","40481","","null","","","null","69","","","","","","","","","","","","","","","",""
"","ITI","","html-keyboard-response","464","459832","0.0-1.0-630.0","0","0","40481","","null","","","null","69","","","","","","","","","","","","","","","NaN",""
"","S1","","html-keyboard-response","465","460085","0.0-1.0-632.0","0","0","40481","","null","","","null","70","","","","","","","","","","","","","","","",""
"","ISI","","html-keyboard-response","466","462088","0.0-1.0-633.0","0","0","40481","","null","","","null","70","NaN","","","","","","","","","","","","","","",""
"","S2","","html-keyboard-response","467","462340","0.0-1.0-634.0","0","0","40481","","null","","","null","70","","NaN","","","","","","","","","","","","","",""
"","response","","html-keyboard-response","468","463354","0.0-1.0-635.0","0","0","40481","","1012","","","75","70","","","2","70","training","adjacent","ED","5","4","O.jpg","N.jpg","1","0","0","",""
"","feedback","","html-keyboard-response","469","464356","0.0-1.0-636.0-0.0","0","0","40481","","null","","","null","70","","","","","","","","","","","","","","","",""
"","time_out","","html-keyboard-response","470","466359","0.0-1.0-638.0-0.0","0","0","40481","","null","","","null","70","","","","","","","","","","","","","","","",""
"","ITI","","html-keyboard-response","471","467362","0.0-1.0-639.0","0","0","40481","","null","","","null","70","","","","","","","","","","","","","","","NaN",""
"","S1","","html-keyboard-response","472","467615","0.0-1.0-641.0","0","0","40481","","null","","","null","71","","","","","","","","","","","","","","","",""
"","ISI","","html-keyboard-response","473","469618","0.0-1.0-642.0","0","0","40481","","null","","","null","71","NaN","","","","","","","","","","","","","","",""
"","S2","","html-keyboard-response","474","469870","0.0-1.0-643.0","0","0","40481","","144","","","75","71","","k","","","","","","","","","","","","","",""
"","response","","html-keyboard-response","475","470396","0.0-1.0-644.0","0","0","40481","","524","","","75","71","","","2","71","training","adjacent","ED","5","4","O.jpg","N.jpg","1","0","0","",""
"","feedback","","html-keyboard-response","476","471406","0.0-1.0-645.0-0.0","0","0","40481","","null","","","null","71","","","","","","","","","","","","","","","",""
"","time_out","","html-keyboard-response","477","473408","0.0-1.0-647.0-0.0","0","0","40481","","null","","","null","71","","","","","","","","","","","","","","","",""
"","ITI","","html-keyboard-response","478","474410","0.0-1.0-648.0","0","0","40481","","null","","","null","71","","","","","","","","","","","","","","","NaN",""
"","S1","","html-keyboard-response","479","474662","0.0-1.0-650.0","0","0","40481","","null","","","null","72","","","","","","","","","","","","","","","",""
"","ISI","","html-keyboard-response","480","476665","0.0-1.0-651.0","0","0","40481","","null","","","null","72","NaN","","","","","","","","","","","","","","",""
"","S2","","html-keyboard-response","481","476918","0.0-1.0-652.0","0","0","40481","","null","","","null","72","","NaN","","","","","","","","","","","","","",""
"","response","","html-keyboard-response","482","476923","0.0-1.0-653.0","0","0","40481","","3","","","75","72","","","2","72","training","adjacent","EF","5","6","O.jpg","L.jpg","1","1","1","",""
"","feedback","","html-keyboard-response","483","477927","0.0-1.0-654.0-0.0","0","0","40481","","null","","","null","72","","","","","","","","","","","","","","","",""
"","ITI","","html-keyboard-response","484","478929","0.0-1.0-657.0","0","0","40481","","null","","","null","72","","","","","","","","","","","","","","","NaN",""
"","S1","","html-keyboard-response","485","479183","0.0-1.0-659.0","0","0","40481","","null","","","null","73","","","","","","","","","","","","","","","",""
"","ISI","","html-keyboard-response","486","481184","0.0-1.0-660.0","0","0","40481","","null","","","null","73","NaN","","","","","","","","","","","","","","",""
"","S2","","html-keyboard-response","487","481436","0.0-1.0-661.0","0","0","40481","","null","","","null","73","","NaN","","","","","","","","","","","","","",""
"","response","","html-keyboard-response","488","482563","0.0-1.0-662.0","0","0","40481","","1125","","","75","73","","","2","73","training","adjacent","DE","4","5","N.jpg","O.jpg","1","1","1","",""
"","feedback","","html-keyboard-response","489","483566","0.0-1.0-663.0-0.0","0","0","40481","","null","","","null","73","","","","","","","","","","","","","","","",""
"","ITI","","html-keyboard-response","490","484568","0.0-1.0-666.0","0","0","40481","","null","","","null","73","","","","","","","","","","","","","","","NaN",""
"","S1","","html-keyboard-response","491","484821","0.0-1.0-668.0","0","0","40481","","null","","","null","74","","","","","","","","","","","","","","","",""
"","ISI","","html-keyboard-response","492","486823","0.0-1.0-669.0","0","0","40481","","null","","","null","74","NaN","","","","","","","","","","","","","","",""
"","S2","","html-keyboard-response","493","487076","0.0-1.0-670.0","0","0","40481","","null","","","null","74","","NaN","","","","","","","","","","","","","",""
"","response","","html-keyboard-response","494","487373","0.0-1.0-671.0","0","0","40481","","295","","","75","74","","","2","74","training","adjacent","GF","7","6","P.jpg","L.jpg","1","0","0","",""
"","feedback","","html-keyboard-response","495","488375","0.0-1.0-672.0-0.0","0","0","40481","","null","","","null","74","","","","","","","","","","","","","","","",""
"","time_out","","html-keyboard-response","496","490377","0.0-1.0-674.0-0.0","0","0","40481","","null","","","null","74","","","","","","","","","","","","","","","",""
"","ITI","","html-keyboard-response","497","491379","0.0-1.0-675.0","0","0","40481","","null","","","null","74","","","","","","","","","","","","","","","NaN",""
"","S1","","html-keyboard-response","498","491631","0.0-1.0-677.0","0","0","40481","","null","","","null","75","","","","","","","","","","","","","","","",""
"","ISI","","html-keyboard-response","499","493633","0.0-1.0-678.0","0","0","40481","","null","","","null","75","NaN","","","","","","","","","","","","","","",""
"","S2","","html-keyboard-response","500","493885","0.0-1.0-679.0","0","0","40481","","null","","","null","75","","NaN","","","","","","","","","","","","","",""
"","response","","html-keyboard-response","501","494881","0.0-1.0-680.0","0","0","40481","","994","","","68","75","","","2","75","training","adjacent","FE","6","5","L.jpg","O.jpg","0","0","1","",""
"","feedback","","html-keyboard-response","502","495883","0.0-1.0-681.0-0.0","0","0","40481","","null","","","null","75","","","","","","","","","","","","","","","",""
"","ITI","","html-keyboard-response","503","496895","0.0-1.0-684.0","0","0","40481","","null","","","null","75","","","","","","","","","","","","","","","NaN",""
"","S1","","html-keyboard-response","504","497148","0.0-1.0-686.0","0","0","40481","","null","","","null","76","","","","","","","","","","","","","","","",""
"","ISI","","html-keyboard-response","505","499149","0.0-1.0-687.0","0","0","40481","","null","","","null","76","NaN","","","","","","","","","","","","","","",""
"","S2","","html-keyboard-response","506","499401","0.0-1.0-688.0","0","0","40481","","null","","","null","76","","NaN","","","","","","","","","","","","","",""
"","response","","html-keyboard-response","507","500144","0.0-1.0-689.0","0","0","40481","","741","","","68","76","","","2","76","training","adjacent","EF","5","6","O.jpg","L.jpg","0","1","0","",""
"","feedback","","html-keyboard-response","508","501147","0.0-1.0-690.0-0.0","0","0","40481","","null","","","null","76","","","","","","","","","","","","","","","",""
"","time_out","","html-keyboard-response","509","503149","0.0-1.0-692.0-0.0","0","0","40481","","null","","","null","76","","","","","","","","","","","","","","","",""
"","ITI","","html-keyboard-response","510","504151","0.0-1.0-693.0","0","0","40481","","null","","","null","76","","","","","","","","","","","","","","","NaN",""
"","S1","","html-keyboard-response","511","504403","0.0-1.0-695.0","0","0","40481","","null","","","null","77","","","","","","","","","","","","","","","",""
"","ISI","","html-keyboard-response","512","506405","0.0-1.0-696.0","0","0","40481","","null","","","null","77","NaN","","","","","","","","","","","","","","",""
"","S2","","html-keyboard-response","513","506658","0.0-1.0-697.0","0","0","40481","","null","","","null","77","","NaN","","","","","","","","","","","","","",""
"","response","","html-keyboard-response","514","508005","0.0-1.0-698.0","0","0","40481","","1346","","","75","77","","","2","77","training","adjacent","BC","2","3","Q.jpg","R.jpg","1","1","1","",""
"","feedback","","html-keyboard-response","515","509007","0.0-1.0-699.0-0.0","0","0","40481","","null","","","null","77","","","","","","","","","","","","","","","",""
"","ITI","","html-keyboard-response","516","510011","0.0-1.0-702.0","0","0","40481","","null","","","null","77","","","","","","","","","","","","","","","NaN",""
"","S1","","html-keyboard-response","517","510264","0.0-1.0-704.0","0","0","40481","","null","","","null","78","","","","","","","","","","","","","","","",""
"","ISI","","html-keyboard-response","518","512267","0.0-1.0-705.0","0","0","40481","","null","","","null","78","NaN","","","","","","","","","","","","","","",""
"","S2","","html-keyboard-response","519","512519","0.0-1.0-706.0","0","0","40481","","null","","","null","78","","NaN","","","","","","","","","","","","","",""
"","response","","html-keyboard-response","520","513051","0.0-1.0-707.0","0","0","40481","","530","","","68","78","","","2","78","training","adjacent","BA","2","1","Q.jpg","M.jpg","0","0","1","",""
"","feedback","","html-keyboard-response","521","514054","0.0-1.0-708.0-0.0","0","0","40481","","null","","","null","78","","","","","","","","","","","","","","","",""
"","ITI","","html-keyboard-response","522","515056","0.0-1.0-711.0","0","0","40481","","null","","","null","78","","","","","","","","","","","","","","","NaN",""
"","S1","","html-keyboard-response","523","515308","0.0-1.0-713.0","0","0","40481","","null","","","null","79","","","","","","","","","","","","","","","",""
"","ISI","","html-keyboard-response","524","517310","0.0-1.0-714.0","0","0","40481","","null","","","null","79","NaN","","","","","","","","","","","","","","",""
"","S2","","html-keyboard-response","525","517564","0.0-1.0-715.0","0","0","40481","","null","","","null","79","","NaN","","","","","","","","","","","","","",""
"","response","","html-keyboard-response","526","518212","0.0-1.0-716.0","0","0","40481","","647","","","68","79","","","2","79","training","adjacent","CB","3","2","R.jpg","Q.jpg","0","0","1","",""
"","feedback","","html-keyboard-response","527","519215","0.0-1.0-717.0-0.0","0","0","40481","","null","","","null","79","","","","","","","","","","","","","","","",""
"","ITI","","html-keyboard-response","528","520218","0.0-1.0-720.0","0","0","40481","","null","","","null","79","","","","","","","","","","","","","","","NaN",""
"","S1","","html-keyboard-response","529","520470","0.0-1.0-722.0","0","0","40481","","null","","","null","80","","","","","","","","","","","","","","","",""
"","ISI","","html-keyboard-response","530","522472","0.0-1.0-723.0","0","0","40481","","null","","","null","80","NaN","","","","","","","","","","","","","","",""
"","S2","","html-keyboard-response","531","522725","0.0-1.0-724.0","0","0","40481","","null","","","null","80","","NaN","","","","","","","","","","","","","",""
"","response","","html-keyboard-response","532","523156","0.0-1.0-725.0","0","0","40481","","429","","","75","80","","","2","80","training","adjacent","ED","5","4","O.jpg","N.jpg","1","0","0","",""
"","feedback","","html-keyboard-response","533","524166","0.0-1.0-726.0-0.0","0","0","40481","","null","","","null","80","","","","","","","","","","","","","","","",""
"","time_out","","html-keyboard-response","534","526168","0.0-1.0-728.0-0.0","0","0","40481","","null","","","null","80","","","","","","","","","","","","","","","",""
"","ITI","","html-keyboard-response","535","527170","0.0-1.0-729.0","0","0","40481","","null","","","null","80","","","","","","","","","","","","","","","NaN",""
"","S1","","html-keyboard-response","536","527423","0.0-1.0-731.0","0","0","40481","","null","","","null","81","","","","","","","","","","","","","","","",""
"","ISI","","html-keyboard-response","537","529425","0.0-1.0-732.0","0","0","40481","","null","","","null","81","NaN","","","","","","","","","","","","","","",""
"","S2","","html-keyboard-response","538","529677","0.0-1.0-733.0","0","0","40481","","null","","","null","81","","NaN","","","","","","","","","","","","","",""
"","response","","html-keyboard-response","539","530586","0.0-1.0-734.0","0","0","40481","","908","","","68","81","","","2","81","training","adjacent","BA","2","1","Q.jpg","M.jpg","0","0","1","",""
"","feedback","","html-keyboard-response","540","531588","0.0-1.0-735.0-0.0","0","0","40481","","null","","","null","81","","","","","","","","","","","","","","","",""
"","ITI","","html-keyboard-response","541","532591","0.0-1.0-738.0","0","0","40481","","null","","","null","81","","","","","","","","","","","","","","","NaN",""
"","S1","","html-keyboard-response","542","532844","0.0-1.0-740.0","0","0","40481","","null","","","null","82","","","","","","","","","","","","","","","",""
"","ISI","","html-keyboard-response","543","534847","0.0-1.0-741.0","0","0","40481","","null","","","null","82","NaN","","","","","","","","","","","","","","",""
"","S2","","html-keyboard-response","544","535100","0.0-1.0-742.0","0","0","40481","","null","","","null","82","","NaN","","","","","","","","","","","","","",""
"","response","","html-keyboard-response","545","536659","0.0-1.0-743.0","0","0","40481","","1558","","","68","82","","","2","82","training","adjacent","BC","2","3","Q.jpg","R.jpg","0","1","0","",""
"","feedback","","html-keyboard-response","546","537663","0.0-1.0-744.0-0.0","0","0","40481","","null","","","null","82","","","","","","","","","","","","","","","",""
"","time_out","","html-keyboard-response","547","539665","0.0-1.0-746.0-0.0","0","0","40481","","null","","","null","82","","","","","","","","","","","","","","","",""
"","ITI","","html-keyboard-response","548","540675","0.0-1.0-747.0","0","0","40481","","null","","","null","82","","","","","","","","","","","","","","","NaN",""
"","S1","","html-keyboard-response","549","540927","0.0-1.0-749.0","0","0","40481","","null","","","null","83","","","","","","","","","","","","","","","",""
"","ISI","","html-keyboard-response","550","542929","0.0-1.0-750.0","0","0","40481","","null","","","null","83","NaN","","","","","","","","","","","","","","",""
"","S2","","html-keyboard-response","551","543181","0.0-1.0-751.0","0","0","40481","","null","","","null","83","","NaN","","","","","","","","","","","","","",""
"","response","","html-keyboard-response","552","543889","0.0-1.0-752.0","0","0","40481","","706","","","75","83","","","2","83","training","adjacent","FE","6","5","L.jpg","O.jpg","1","0","0","",""
"","feedback","","html-keyboard-response","553","544891","0.0-1.0-753.0-0.0","0","0","40481","","null","","","null","83","","","","","","","","","","","","","","","",""
"","time_out","","html-keyboard-response","554","546894","0.0-1.0-755.0-0.0","0","0","40481","","null","","","null","83","","","","","","","","","","","","","","","",""
"","ITI","","html-keyboard-response","555","547897","0.0-1.0-756.0","0","0","40481","","null","","","null","83","","","","","","","","","","","","","","","NaN",""
"","S1","","html-keyboard-response","556","548149","0.0-1.0-758.0","0","0","40481","","null","","","null","84","","","","","","","","","","","","","","","",""
"","ISI","","html-keyboard-response","557","550151","0.0-1.0-759.0","0","0","40481","","null","","","null","84","NaN","","","","","","","","","","","","","","",""
"","S2","","html-keyboard-response","558","550403","0.0-1.0-760.0","0","0","40481","","null","","","null","84","","NaN","","","","","","","","","","","","","",""
"","response","","html-keyboard-response","559","551291","0.0-1.0-761.0","0","0","40481","","886","","","68","84","","","2","84","training","adjacent","AB","1","2","M.jpg","Q.jpg","0","1","0","",""
"","feedback","","html-keyboard-response","560","552294","0.0-1.0-762.0-0.0","0","0","40481","","null","","","null","84","","","","","","","","","","","","","","","",""
"","time_out","","html-keyboard-response","561","554298","0.0-1.0-764.0-0.0","0","0","40481","","null","","","null","84","","","","","","","","","","","","","","","",""
"","ITI","","html-keyboard-response","562","555299","0.0-1.0-765.0","0","0","40481","","null","","","null","84","","","","","","","","","","","","","","","NaN",""
"","S1","","html-keyboard-response","563","555552","0.0-1.0-767.0","0","0","40481","","null","","","null","85","","","","","","","","","","","","","","","",""
"","ISI","","html-keyboard-response","564","557554","0.0-1.0-768.0","0","0","40481","","null","","","null","85","NaN","","","","","","","","","","","","","","",""
"","S2","","html-keyboard-response","565","557806","0.0-1.0-769.0","0","0","40481","","null","","","null","85","","NaN","","","","","","","","","","","","","",""
"","response","","html-keyboard-response","566","558373","0.0-1.0-770.0","0","0","40481","","565","","","75","85","","","2","85","training","adjacent","FG","6","7","L.jpg","P.jpg","1","1","1","",""
"","feedback","","html-keyboard-response","567","559376","0.0-1.0-771.0-0.0","0","0","40481","","null","","","null","85","","","","","","","","","","","","","","","",""
"","ITI","","html-keyboard-response","568","560378","0.0-1.0-774.0","0","0","40481","","null","","","null","85","","","","","","","","","","","","","","","NaN",""
"","S1","","html-keyboard-response","569","560631","0.0-1.0-776.0","0","0","40481","","null","","","null","86","","","","","","","","","","","","","","","",""
"","ISI","","html-keyboard-response","570","562632","0.0-1.0-777.0","0","0","40481","","null","","","null","86","NaN","","","","","","","","","","","","","","",""
"","S2","","html-keyboard-response","571","562884","0.0-1.0-778.0","0","0","40481","","null","","","null","86","","NaN","","","","","","","","","","","","","",""
"","response","","html-keyboard-response","572","563726","0.0-1.0-779.0","0","0","40481","","841","","","75","86","","","2","86","training","adjacent","FG","6","7","L.jpg","P.jpg","1","1","1","",""
"","feedback","","html-keyboard-response","573","564734","0.0-1.0-780.0-0.0","0","0","40481","","null","","","null","86","","","","","","","","","","","","","","","",""
"","ITI","","html-keyboard-response","574","565737","0.0-1.0-783.0","0","0","40481","","null","","","null","86","","","","","","","","","","","","","","","NaN",""
"","S1","","html-keyboard-response","575","565990","0.0-1.0-785.0","0","0","40481","","null","","","null","87","","","","","","","","","","","","","","","",""
"","ISI","","html-keyboard-response","576","567992","0.0-1.0-786.0","0","0","40481","","null","","","null","87","NaN","","","","","","","","","","","","","","",""
"","S2","","html-keyboard-response","577","568243","0.0-1.0-787.0","0","0","40481","","null","","","null","87","","NaN","","","","","","","","","","","","","",""
"","response","","html-keyboard-response","578","568994","0.0-1.0-788.0","0","0","40481","","749","","","68","87","","","2","87","training","adjacent","FE","6","5","L.jpg","O.jpg","0","0","1","",""
"","feedback","","html-keyboard-response","579","569997","0.0-1.0-789.0-0.0","0","0","40481","","null","","","null","87","","","","","","","","","","","","","","","",""
"","ITI","","html-keyboard-response","580","571000","0.0-1.0-792.0","0","0","40481","","null","","","null","87","","","","","","","","","","","","","","","NaN",""
"","S1","","html-keyboard-response","581","571252","0.0-1.0-794.0","0","0","40481","","null","","","null","88","","","","","","","","","","","","","","","",""
"","ISI","","html-keyboard-response","582","573254","0.0-1.0-795.0","0","0","40481","","null","","","null","88","NaN","","","","","","","","","","","","","","",""
"","S2","","html-keyboard-response","583","573507","0.0-1.0-796.0","0","0","40481","","null","","","null","88","","NaN","","","","","","","","","","","","","",""
"","response","","html-keyboard-response","584","575027","0.0-1.0-797.0","0","0","40481","","1518","","","68","88","","","2","88","training","adjacent","DE","4","5","N.jpg","O.jpg","0","1","0","",""
"","feedback","","html-keyboard-response","585","576029","0.0-1.0-798.0-0.0","0","0","40481","","null","","","null","88","","","","","","","","","","","","","","","",""
