"","success","ttype","start_time","trial_type","trial_index","time_elapsed","internal_node_id","warning","missed_checkup","PID","view_history","rt","responses","repeat_instructions","key_press","index","keypress_isi","keypress_S2","block","trial_num","phase","pair_type","S1_stim","S2_stim","S1_img","S2_img","S1_chosen","S1_higher","accuracy","keypress_iti","total_bonus_tally"
"1","true","full_screen","d07252022hr1931","fullscreen",0,5217,"0.0-0.0",0,0,18183,"",NA,"",NA,"",NA,"","",NA,NA,"","",NA,NA,"","",NA,NA,NA,"",NA
"2","","instructions","","instructions",1,6685,"0.0-1.0-0.0-0.0",0,0,18183,"[{""page_index"":0,""viewing_time"":1159},{""page_index"":1,""viewing_time"":154},{""page_index"":2,""viewing_time"":153}]",1467,"",NA,"",NA,"","",NA,NA,"","",NA,NA,"","",NA,NA,NA,"",NA
"3","","comprehension_check","","survey-multi-choice",2,14289,"0.0-1.0-0.0-1.0",0,0,18183,"",7599,"{""Q0"":""True"",""Q1"":""True"",""Q2"":""When you see the prompt 'MAKE A CHOICE' after the second image was presented"",""Q3"":""Green mark"",""Q4"":""either D or K""}",0,"",NA,"","",NA,NA,"","",NA,NA,"","",NA,NA,NA,"",NA
"4","","start_exp","","html-keyboard-response",3,15812,"0.0-1.0-1.0",0,0,18183,"",1520,"",NA,"32",NA,"","",NA,NA,"","",NA,NA,"","",NA,NA,NA,"",NA
"5","","S1","","html-keyboard-response",4,16065,"0.0-1.0-2.0",0,0,18183,"",NA,"",NA,"null",0,"","",NA,NA,"","",NA,NA,"","",NA,NA,NA,"",NA
"6","","ISI","","html-keyboard-response",5,16169,"0.0-1.0-3.0",0,0,18183,"",NA,"",NA,"null",0,"NaN","",NA,NA,"","",NA,NA,"","",NA,NA,NA,"",NA
"7","","S2","","html-keyboard-response",6,16421,"0.0-1.0-4.0",0,0,18183,"",NA,"",NA,"null",0,"","NaN",NA,NA,"","",NA,NA,"","",NA,NA,NA,"",NA
"8","","response","","html-keyboard-response",7,16458,"0.0-1.0-5.0",0,0,18183,"",35,"",NA,"68",0,"","",1,0,"training","adjacent",2,1,"L.jpg","N.jpg",0,0,1,"",NA
"9","","feedback","","html-keyboard-response",8,16562,"0.0-1.0-6.0-0.0",0,0,18183,"",NA,"",NA,"null",0,"","",NA,NA,"","",NA,NA,"","",NA,NA,NA,"",NA
"10","","ITI","","html-keyboard-response",9,17065,"0.0-1.0-9.0",0,0,18183,"",NA,"",NA,"null",0,"","",NA,NA,"","",NA,NA,"","",NA,NA,NA,"NaN",NA
"11","","S1","","html-keyboard-response",10,17318,"0.0-1.0-11.0",0,0,18183,"",NA,"",NA,"null",1,"","",NA,NA,"","",NA,NA,"","",NA,NA,NA,"",NA
"12","","ISI","","html-keyboard-response",11,17423,"0.0-1.0-12.0",0,0,18183,"",NA,"",NA,"null",1,"NaN","",NA,NA,"","",NA,NA,"","",NA,NA,NA,"",NA
"13","","S2","","html-keyboard-response",12,17679,"0.0-1.0-13.0",0,0,18183,"",137,"",NA,"68",1,"","d",NA,NA,"","",NA,NA,"","",NA,NA,NA,"",NA
"14","","response","","html-keyboard-response",13,17830,"0.0-1.0-14.0",0,0,18183,"",149,"",NA,"68",1,"","",1,1,"training","adjacent",7,6,"P.jpg","M.jpg",0,0,1,"",NA
"15","","feedback","","html-keyboard-response",14,17934,"0.0-1.0-15.0-0.0",0,0,18183,"",NA,"",NA,"null",1,"","",NA,NA,"","",NA,NA,"","",NA,NA,NA,"",NA
"16","","ITI","","html-keyboard-response",15,18438,"0.0-1.0-18.0",0,0,18183,"",284,"",NA,"68",1,"","",NA,NA,"","",NA,NA,"","",NA,NA,NA,"d",NA
"17","","S1","","html-keyboard-response",16,18694,"0.0-1.0-20.0",0,0,18183,"",NA,"",NA,"null",2,"","",NA,NA,"","",NA,NA,"","",NA,NA,NA,"",NA
"18","","ISI","","html-keyboard-response",17,18797,"0.0-1.0-21.0",0,0,18183,"",27,"",NA,"75",2,"k","",NA,NA,"","",NA,NA,"","",NA,NA,NA,"",NA
"19","","S2","","html-keyboard-response",18,19052,"0.0-1.0-22.0",0,0,18183,"",127,"",NA,"75",2,"","k",NA,NA,"","",NA,NA,"","",NA,NA,NA,"",NA
"20","","response","","html-keyboard-response",19,19127,"0.0-1.0-23.0",0,0,18183,"",73,"",NA,"75",2,"","",1,2,"training","adjacent",5,4,"O.jpg","Q.jpg",1,0,0,"",NA
"21","","feedback","","html-keyboard-response",20,19234,"0.0-1.0-24.0-0.0",0,0,18183,"",NA,"",NA,"null",2,"","",NA,NA,"","",NA,NA,"","",NA,NA,NA,"",NA
"22","","time_out","","html-keyboard-response",21,19337,"0.0-1.0-26.0-0.0",0,0,18183,"",NA,"",NA,"null",2,"","",NA,NA,"","",NA,NA,"","",NA,NA,NA,"",NA
"23","","ITI","","html-keyboard-response",22,19842,"0.0-1.0-27.0",0,0,18183,"",176,"",NA,"75",2,"","",NA,NA,"","",NA,NA,"","",NA,NA,NA,"k",NA
"24","","S1","","html-keyboard-response",23,20096,"0.0-1.0-29.0",0,0,18183,"",NA,"",NA,"null",3,"","",NA,NA,"","",NA,NA,"","",NA,NA,NA,"",NA
"25","","ISI","","html-keyboard-response",24,20199,"0.0-1.0-30.0",0,0,18183,"",NA,"",NA,"null",3,"NaN","",NA,NA,"","",NA,NA,"","",NA,NA,NA,"",NA
"26","","S2","","html-keyboard-response",25,20452,"0.0-1.0-31.0",0,0,18183,"",122,"",NA,"68",3,"","d",NA,NA,"","",NA,NA,"","",NA,NA,NA,"",NA
"27","","response","","html-keyboard-response",26,20625,"0.0-1.0-32.0",0,0,18183,"",171,"",NA,"68",3,"","",1,3,"training","adjacent",4,3,"Q.jpg","R.jpg",0,0,1,"",NA
"28","","feedback","","html-keyboard-response",27,20726,"0.0-1.0-33.0-0.0",0,0,18183,"",NA,"",NA,"null",3,"","",NA,NA,"","",NA,NA,"","",NA,NA,NA,"",NA
"29","","ITI","","html-keyboard-response",28,21233,"0.0-1.0-36.0",0,0,18183,"",148,"",NA,"68",3,"","",NA,NA,"","",NA,NA,"","",NA,NA,NA,"d",NA
"30","","S1","","html-keyboard-response",29,21487,"0.0-1.0-38.0",0,0,18183,"",NA,"",NA,"null",4,"","",NA,NA,"","",NA,NA,"","",NA,NA,NA,"",NA
"31","","ISI","","html-keyboard-response",30,21593,"0.0-1.0-39.0",0,0,18183,"",NA,"",NA,"null",4,"NaN","",NA,NA,"","",NA,NA,"","",NA,NA,NA,"",NA
"32","","S2","","html-keyboard-response",31,21849,"0.0-1.0-40.0",0,0,18183,"",27,"",NA,"68",4,"","d",NA,NA,"","",NA,NA,"","",NA,NA,NA,"",NA
"33","","response","","html-keyboard-response",32,21907,"0.0-1.0-41.0",0,0,18183,"",58,"",NA,"68",4,"","",1,4,"training","adjacent",3,2,"R.jpg","L.jpg",0,0,1,"",NA
"34","","feedback","","html-keyboard-response",33,22013,"0.0-1.0-42.0-0.0",0,0,18183,"",NA,"",NA,"null",4,"","",NA,NA,"","",NA,NA,"","",NA,NA,NA,"",NA
"35","","ITI","","html-keyboard-response",34,22518,"0.0-1.0-45.0",0,0,18183,"",170,"",NA,"68",4,"","",NA,NA,"","",NA,NA,"","",NA,NA,NA,"d",NA
"36","","S1","","html-keyboard-response",35,22771,"0.0-1.0-47.0",0,0,18183,"",NA,"",NA,"null",5,"","",NA,NA,"","",NA,NA,"","",NA,NA,NA,"",NA
"37","","ISI","","html-keyboard-response",36,22873,"0.0-1.0-48.0",0,0,18183,"",93,"",NA,"75",5,"k","",NA,NA,"","",NA,NA,"","",NA,NA,NA,"",NA
"38","","S2","","html-keyboard-response",37,23127,"0.0-1.0-49.0",0,0,18183,"",NA,"",NA,"null",5,"","NaN",NA,NA,"","",NA,NA,"","",NA,NA,NA,"",NA
"39","","response","","html-keyboard-response",38,23291,"0.0-1.0-50.0",0,0,18183,"",163,"",NA,"75",5,"","",1,5,"training","adjacent",6,7,"M.jpg","P.jpg",1,1,1,"",NA
"40","","feedback","","html-keyboard-response",39,23394,"0.0-1.0-51.0-0.0",0,0,18183,"",NA,"",NA,"null",5,"","",NA,NA,"","",NA,NA,"","",NA,NA,NA,"",NA
"41","","ITI","","html-keyboard-response",40,23898,"0.0-1.0-54.0",0,0,18183,"",131,"",NA,"75",5,"","",NA,NA,"","",NA,NA,"","",NA,NA,NA,"k",NA
"42","","S1","","html-keyboard-response",41,24150,"0.0-1.0-56.0",0,0,18183,"",NA,"",NA,"null",6,"","",NA,NA,"","",NA,NA,"","",NA,NA,NA,"",NA
"43","","ISI","","html-keyboard-response",42,24252,"0.0-1.0-57.0",0,0,18183,"",NA,"",NA,"null",6,"NaN","",NA,NA,"","",NA,NA,"","",NA,NA,NA,"",NA
"44","","S2","","html-keyboard-response",43,24507,"0.0-1.0-58.0",0,0,18183,"",68,"",NA,"75",6,"","k",NA,NA,"","",NA,NA,"","",NA,NA,NA,"",NA
"45","","response","","html-keyboard-response",44,24569,"0.0-1.0-59.0",0,0,18183,"",60,"",NA,"75",6,"","",1,6,"training","adjacent",5,6,"O.jpg","M.jpg",1,1,1,"",NA
"46","","feedback","","html-keyboard-response",45,24672,"0.0-1.0-60.0-0.0",0,0,18183,"",NA,"",NA,"null",6,"","",NA,NA,"","",NA,NA,"","",NA,NA,NA,"",NA
"47","","ITI","","html-keyboard-response",46,25175,"0.0-1.0-63.0",0,0,18183,"",124,"",NA,"75",6,"","",NA,NA,"","",NA,NA,"","",NA,NA,NA,"k",NA
"48","","S1","","html-keyboard-response",47,25428,"0.0-1.0-65.0",0,0,18183,"",NA,"",NA,"null",7,"","",NA,NA,"","",NA,NA,"","",NA,NA,NA,"",NA
"49","","ISI","","html-keyboard-response",48,25534,"0.0-1.0-66.0",0,0,18183,"",NA,"",NA,"null",7,"NaN","",NA,NA,"","",NA,NA,"","",NA,NA,NA,"",NA
"50","","S2","","html-keyboard-response",49,25790,"0.0-1.0-67.0",0,0,18183,"",5,"",NA,"75",7,"","k",NA,NA,"","",NA,NA,"","",NA,NA,NA,"",NA
"51","","response","","html-keyboard-response",50,25795,"0.0-1.0-68.0",0,0,18183,"",3,"",NA,"75",7,"","",1,7,"training","adjacent",6,5,"M.jpg","O.jpg",1,0,0,"",NA
"52","","feedback","","html-keyboard-response",51,25897,"0.0-1.0-69.0-0.0",0,0,18183,"",NA,"",NA,"null",7,"","",NA,NA,"","",NA,NA,"","",NA,NA,NA,"",NA
"53","","time_out","","html-keyboard-response",52,26000,"0.0-1.0-71.0-0.0",0,0,18183,"",NA,"",NA,"null",7,"","",NA,NA,"","",NA,NA,"","",NA,NA,NA,"",NA
"54","","ITI","","html-keyboard-response",53,26503,"0.0-1.0-72.0",0,0,18183,"",15,"",NA,"75",7,"","",NA,NA,"","",NA,NA,"","",NA,NA,NA,"k",NA
"55","","S1","","html-keyboard-response",54,26758,"0.0-1.0-74.0",0,0,18183,"",NA,"",NA,"null",8,"","",NA,NA,"","",NA,NA,"","",NA,NA,NA,"",NA
"56","","ISI","","html-keyboard-response",55,26863,"0.0-1.0-75.0",0,0,18183,"",NA,"",NA,"null",8,"NaN","",NA,NA,"","",NA,NA,"","",NA,NA,NA,"",NA
"57","","S2","","html-keyboard-response",56,27117,"0.0-1.0-76.0",0,0,18183,"",36,"",NA,"75",8,"","k",NA,NA,"","",NA,NA,"","",NA,NA,NA,"",NA
"58","","response","","html-keyboard-response",57,27358,"0.0-1.0-77.0",0,0,18183,"",239,"",NA,"75",8,"","",1,8,"training","adjacent",1,2,"N.jpg","L.jpg",1,1,1,"",NA
"59","","feedback","","html-keyboard-response",58,27462,"0.0-1.0-78.0-0.0",0,0,18183,"",NA,"",NA,"null",8,"","",NA,NA,"","",NA,NA,"","",NA,NA,NA,"",NA
"60","","ITI","","html-keyboard-response",59,27965,"0.0-1.0-81.0",0,0,18183,"",116,"",NA,"75",8,"","",NA,NA,"","",NA,NA,"","",NA,NA,NA,"k",NA
"61","","S1","","html-keyboard-response",60,28217,"0.0-1.0-83.0",0,0,18183,"",NA,"",NA,"null",9,"","",NA,NA,"","",NA,NA,"","",NA,NA,NA,"",NA
"62","","ISI","","html-keyboard-response",61,28319,"0.0-1.0-84.0",0,0,18183,"",1,"",NA,"75",9,"k","",NA,NA,"","",NA,NA,"","",NA,NA,NA,"",NA
"63","","S2","","html-keyboard-response",62,28575,"0.0-1.0-85.0",0,0,18183,"",113,"",NA,"75",9,"","k",NA,NA,"","",NA,NA,"","",NA,NA,NA,"",NA
"64","","response","","html-keyboard-response",63,28625,"0.0-1.0-86.0",0,0,18183,"",48,"",NA,"75",9,"","",1,9,"training","adjacent",3,4,"R.jpg","Q.jpg",1,1,1,"",NA
"65","","feedback","","html-keyboard-response",64,28727,"0.0-1.0-87.0-0.0",0,0,18183,"",NA,"",NA,"null",9,"","",NA,NA,"","",NA,NA,"","",NA,NA,NA,"",NA
"66","","ITI","","html-keyboard-response",65,29230,"0.0-1.0-90.0",0,0,18183,"",85,"",NA,"75",9,"","",NA,NA,"","",NA,NA,"","",NA,NA,NA,"k",NA
"67","","S1","","html-keyboard-response",66,29485,"0.0-1.0-92.0",0,0,18183,"",NA,"",NA,"null",10,"","",NA,NA,"","",NA,NA,"","",NA,NA,NA,"",NA
"68","","ISI","","html-keyboard-response",67,29588,"0.0-1.0-93.0",0,0,18183,"",NA,"",NA,"null",10,"NaN","",NA,NA,"","",NA,NA,"","",NA,NA,NA,"",NA
"69","","S2","","html-keyboard-response",68,29845,"0.0-1.0-94.0",0,0,18183,"",94,"",NA,"75",10,"","k",NA,NA,"","",NA,NA,"","",NA,NA,NA,"",NA
"70","","response","","html-keyboard-response",69,29918,"0.0-1.0-95.0",0,0,18183,"",72,"",NA,"75",10,"","",1,10,"training","adjacent",2,3,"L.jpg","R.jpg",1,1,1,"",NA
"71","","feedback","","html-keyboard-response",70,30021,"0.0-1.0-96.0-0.0",0,0,18183,"",NA,"",NA,"null",10,"","",NA,NA,"","",NA,NA,"","",NA,NA,NA,"",NA
"72","","ITI","","html-keyboard-response",71,30526,"0.0-1.0-99.0",0,0,18183,"",137,"",NA,"75",10,"","",NA,NA,"","",NA,NA,"","",NA,NA,NA,"k",NA
"73","","S1","","html-keyboard-response",72,30778,"0.0-1.0-101.0",0,0,18183,"",NA,"",NA,"null",11,"","",NA,NA,"","",NA,NA,"","",NA,NA,NA,"",NA
"74","","ISI","","html-keyboard-response",73,30884,"0.0-1.0-102.0",0,0,18183,"",NA,"",NA,"null",11,"NaN","",NA,NA,"","",NA,NA,"","",NA,NA,NA,"",NA
"75","","S2","","html-keyboard-response",74,31140,"0.0-1.0-103.0",0,0,18183,"",28,"",NA,"75",11,"","k",NA,NA,"","",NA,NA,"","",NA,NA,NA,"",NA
"76","","response","","html-keyboard-response",75,31516,"0.0-1.0-104.0",0,0,18183,"",375,"",NA,"75",11,"","",1,11,"training","adjacent",4,5,"Q.jpg","O.jpg",1,1,1,"",NA
"77","","feedback","","html-keyboard-response",76,31618,"0.0-1.0-105.0-0.0",0,0,18183,"",NA,"",NA,"null",11,"","",NA,NA,"","",NA,NA,"","",NA,NA,NA,"",NA
"78","","ITI","","html-keyboard-response",77,32123,"0.0-1.0-108.0",0,0,18183,"",162,"",NA,"75",11,"","",NA,NA,"","",NA,NA,"","",NA,NA,NA,"k",NA
"79","","block_over","","html-keyboard-response",78,33633,"0.0-1.0-109.0-0.0",0,0,18183,"",1506,"",NA,"32",11,"","",NA,NA,"","",NA,NA,"","",NA,NA,NA,"",NA
"80","","S1","","html-keyboard-response",79,33888,"0.0-1.0-110.0",0,0,18183,"",NA,"",NA,"null",12,"","",NA,NA,"","",NA,NA,"","",NA,NA,NA,"",NA
"81","","ISI","","html-keyboard-response",80,33994,"0.0-1.0-111.0",0,0,18183,"",55,"",NA,"75",12,"k","",NA,NA,"","",NA,NA,"","",NA,NA,NA,"",NA
"82","","S2","","html-keyboard-response",81,34250,"0.0-1.0-112.0",0,0,18183,"",193,"",NA,"75",12,"","k",NA,NA,"","",NA,NA,"","",NA,NA,NA,"",NA
"83","","response","","html-keyboard-response",82,34447,"0.0-1.0-113.0",0,0,18183,"",195,"",NA,"75",12,"","",2,12,"training","adjacent",3,2,"R.jpg","L.jpg",1,0,0,"",NA
"84","","feedback","","html-keyboard-response",83,34548,"0.0-1.0-114.0-0.0",0,0,18183,"",NA,"",NA,"null",12,"","",NA,NA,"","",NA,NA,"","",NA,NA,NA,"",NA
"85","","time_out","","html-keyboard-response",84,34655,"0.0-1.0-116.0-0.0",0,0,18183,"",NA,"",NA,"null",12,"","",NA,NA,"","",NA,NA,"","",NA,NA,NA,"",NA
"86","","ITI","","html-keyboard-response",85,35160,"0.0-1.0-117.0",0,0,18183,"",59,"",NA,"75",12,"","",NA,NA,"","",NA,NA,"","",NA,NA,NA,"k",NA
"87","","S1","","html-keyboard-response",86,35417,"0.0-1.0-119.0",0,0,18183,"",NA,"",NA,"null",13,"","",NA,NA,"","",NA,NA,"","",NA,NA,NA,"",NA
"88","","ISI","","html-keyboard-response",87,35524,"0.0-1.0-120.0",0,0,18183,"",NA,"",NA,"null",13,"NaN","",NA,NA,"","",NA,NA,"","",NA,NA,NA,"",NA
"89","","S2","","html-keyboard-response",88,35777,"0.0-1.0-121.0",0,0,18183,"",139,"",NA,"68",13,"","d",NA,NA,"","",NA,NA,"","",NA,NA,NA,"",NA
"90","","response","","html-keyboard-response",89,36027,"0.0-1.0-122.0",0,0,18183,"",249,"",NA,"68",13,"","",2,13,"training","adjacent",4,3,"Q.jpg","R.jpg",0,0,1,"",NA
"91","","feedback","","html-keyboard-response",90,36130,"0.0-1.0-123.0-0.0",0,0,18183,"",NA,"",NA,"null",13,"","",NA,NA,"","",NA,NA,"","",NA,NA,NA,"",NA
"92","","ITI","","html-keyboard-response",91,36635,"0.0-1.0-126.0",0,0,18183,"",264,"",NA,"68",13,"","",NA,NA,"","",NA,NA,"","",NA,NA,NA,"d",NA
"93","","S1","","html-keyboard-response",92,36888,"0.0-1.0-128.0",0,0,18183,"",NA,"",NA,"null",14,"","",NA,NA,"","",NA,NA,"","",NA,NA,NA,"",NA
"94","","ISI","","html-keyboard-response",93,36995,"0.0-1.0-129.0",0,0,18183,"",71,"",NA,"68",14,"d","",NA,NA,"","",NA,NA,"","",NA,NA,NA,"",NA
"95","","S2","","html-keyboard-response",94,37252,"0.0-1.0-130.0",0,0,18183,"",NA,"",NA,"null",14,"","NaN",NA,NA,"","",NA,NA,"","",NA,NA,NA,"",NA
"96","","response","","html-keyboard-response",95,37286,"0.0-1.0-131.0",0,0,18183,"",33,"",NA,"68",14,"","",2,14,"training","adjacent",5,4,"O.jpg","Q.jpg",0,0,1,"",NA
"97","","feedback","","html-keyboard-response",96,37388,"0.0-1.0-132.0-0.0",0,0,18183,"",NA,"",NA,"null",14,"","",NA,NA,"","",NA,NA,"","",NA,NA,NA,"",NA
"98","","ITI","","html-keyboard-response",97,37893,"0.0-1.0-135.0",0,0,18183,"",232,"",NA,"68",14,"","",NA,NA,"","",NA,NA,"","",NA,NA,NA,"d",NA
"99","","S1","","html-keyboard-response",98,38147,"0.0-1.0-137.0",0,0,18183,"",NA,"",NA,"null",15,"","",NA,NA,"","",NA,NA,"","",NA,NA,NA,"",NA
"100","","ISI","","html-keyboard-response",99,38248,"0.0-1.0-138.0",0,0,18183,"",22,"",NA,"68",15,"d","",NA,NA,"","",NA,NA,"","",NA,NA,NA,"",NA
"101","","S2","","html-keyboard-response",100,38503,"0.0-1.0-139.0",0,0,18183,"",NA,"",NA,"null",15,"","NaN",NA,NA,"","",NA,NA,"","",NA,NA,NA,"",NA
"102","","response","","html-keyboard-response",101,38509,"0.0-1.0-140.0",0,0,18183,"",5,"",NA,"68",15,"","",2,15,"training","adjacent",7,6,"P.jpg","M.jpg",0,0,1,"",NA
"103","","feedback","","html-keyboard-response",102,38611,"0.0-1.0-141.0-0.0",0,0,18183,"",NA,"",NA,"null",15,"","",NA,NA,"","",NA,NA,"","",NA,NA,NA,"",NA
"104","","ITI","","html-keyboard-response",103,39115,"0.0-1.0-144.0",0,0,18183,"",221,"",NA,"68",15,"","",NA,NA,"","",NA,NA,"","",NA,NA,NA,"d",NA
"105","","S1","","html-keyboard-response",104,39372,"0.0-1.0-146.0",0,0,18183,"",NA,"",NA,"null",16,"","",NA,NA,"","",NA,NA,"","",NA,NA,NA,"",NA
"106","","ISI","","html-keyboard-response",105,39474,"0.0-1.0-147.0",0,0,18183,"",NA,"",NA,"null",16,"NaN","",NA,NA,"","",NA,NA,"","",NA,NA,NA,"",NA
"107","","S2","","html-keyboard-response",106,39730,"0.0-1.0-148.0",0,0,18183,"",159,"",NA,"68",16,"","d",NA,NA,"","",NA,NA,"","",NA,NA,NA,"",NA
"108","","response","","html-keyboard-response",107,40001,"0.0-1.0-149.0",0,0,18183,"",269,"",NA,"68",16,"","",2,16,"training","adjacent",1,2,"N.jpg","L.jpg",0,1,0,"",NA
"109","","feedback","","html-keyboard-response",108,40102,"0.0-1.0-150.0-0.0",0,0,18183,"",NA,"",NA,"null",16,"","",NA,NA,"","",NA,NA,"","",NA,NA,NA,"",NA
"110","","time_out","","html-keyboard-response",109,40206,"0.0-1.0-152.0-0.0",0,0,18183,"",NA,"",NA,"null",16,"","",NA,NA,"","",NA,NA,"","",NA,NA,NA,"",NA
"111","","ITI","","html-keyboard-response",110,40708,"0.0-1.0-153.0",0,0,18183,"",150,"",NA,"68",16,"","",NA,NA,"","",NA,NA,"","",NA,NA,NA,"d",NA
"112","","S1","","html-keyboard-response",111,40963,"0.0-1.0-155.0",0,0,18183,"",NA,"",NA,"null",17,"","",NA,NA,"","",NA,NA,"","",NA,NA,NA,"",NA
"113","","ISI","","html-keyboard-response",112,41070,"0.0-1.0-156.0",0,0,18183,"",NA,"",NA,"null",17,"NaN","",NA,NA,"","",NA,NA,"","",NA,NA,NA,"",NA
"114","","S2","","html-keyboard-response",113,41322,"0.0-1.0-157.0",0,0,18183,"",6,"",NA,"68",17,"","d",NA,NA,"","",NA,NA,"","",NA,NA,NA,"",NA
"115","","response","","html-keyboard-response",114,41407,"0.0-1.0-158.0",0,0,18183,"",83,"",NA,"68",17,"","",2,17,"training","adjacent",4,5,"Q.jpg","O.jpg",0,1,0,"",NA
"116","","feedback","","html-keyboard-response",115,41511,"0.0-1.0-159.0-0.0",0,0,18183,"",NA,"",NA,"null",17,"","",NA,NA,"","",NA,NA,"","",NA,NA,NA,"",NA
"117","","time_out","","html-keyboard-response",116,41617,"0.0-1.0-161.0-0.0",0,0,18183,"",NA,"",NA,"null",17,"","",NA,NA,"","",NA,NA,"","",NA,NA,NA,"",NA
"118","","ITI","","html-keyboard-response",117,42120,"0.0-1.0-162.0",0,0,18183,"",9,"",NA,"75",17,"","",NA,NA,"","",NA,NA,"","",NA,NA,NA,"k",NA
"119","","S1","","html-keyboard-response",118,42372,"0.0-1.0-164.0",0,0,18183,"",NA,"",NA,"null",18,"","",NA,NA,"","",NA,NA,"","",NA,NA,NA,"",NA
"120","","ISI","","html-keyboard-response",119,42474,"0.0-1.0-165.0",0,0,18183,"",12,"",NA,"75",18,"k","",NA,NA,"","",NA,NA,"","",NA,NA,NA,"",NA
"121","","S2","","html-keyboard-response",120,42729,"0.0-1.0-166.0",0,0,18183,"",176,"",NA,"75",18,"","k",NA,NA,"","",NA,NA,"","",NA,NA,NA,"",NA
"122","","response","","html-keyboard-response",121,42954,"0.0-1.0-167.0",0,0,18183,"",223,"",NA,"75",18,"","",2,18,"training","adjacent",6,7,"M.jpg","P.jpg",1,1,1,"",NA
"123","","feedback","","html-keyboard-response",122,43057,"0.0-1.0-168.0-0.0",0,0,18183,"",NA,"",NA,"null",18,"","",NA,NA,"","",NA,NA,"","",NA,NA,NA,"",NA
"124","","ITI","","html-keyboard-response",123,43562,"0.0-1.0-171.0",0,0,18183,"",241,"",NA,"75",18,"","",NA,NA,"","",NA,NA,"","",NA,NA,NA,"k",NA
"125","","S1","","html-keyboard-response",124,43814,"0.0-1.0-173.0",0,0,18183,"",NA,"",NA,"null",19,"","",NA,NA,"","",NA,NA,"","",NA,NA,NA,"",NA
"126","","ISI","","html-keyboard-response",125,43919,"0.0-1.0-174.0",0,0,18183,"",NA,"",NA,"null",19,"NaN","",NA,NA,"","",NA,NA,"","",NA,NA,NA,"",NA
"127","","S2","","html-keyboard-response",126,44171,"0.0-1.0-175.0",0,0,18183,"",58,"",NA,"75",19,"","k",NA,NA,"","",NA,NA,"","",NA,NA,NA,"",NA
"128","","response","","html-keyboard-response",127,44276,"0.0-1.0-176.0",0,0,18183,"",104,"",NA,"75",19,"","",2,19,"training","adjacent",2,3,"L.jpg","R.jpg",1,1,1,"",NA
"129","","feedback","","html-keyboard-response",128,44379,"0.0-1.0-177.0-0.0",0,0,18183,"",NA,"",NA,"null",19,"","",NA,NA,"","",NA,NA,"","",NA,NA,NA,"",NA
"130","","ITI","","html-keyboard-response",129,44883,"0.0-1.0-180.0",0,0,18183,"",143,"",NA,"75",19,"","",NA,NA,"","",NA,NA,"","",NA,NA,NA,"k",NA
"131","","S1","","html-keyboard-response",130,45135,"0.0-1.0-182.0",0,0,18183,"",NA,"",NA,"null",20,"","",NA,NA,"","",NA,NA,"","",NA,NA,NA,"",NA
"132","","ISI","","html-keyboard-response",131,45237,"0.0-1.0-183.0",0,0,18183,"",NA,"",NA,"null",20,"NaN","",NA,NA,"","",NA,NA,"","",NA,NA,NA,"",NA
"133","","S2","","html-keyboard-response",132,45491,"0.0-1.0-184.0",0,0,18183,"",106,"",NA,"68",20,"","d",NA,NA,"","",NA,NA,"","",NA,NA,NA,"",NA
"134","","response","","html-keyboard-response",133,45669,"0.0-1.0-185.0",0,0,18183,"",177,"",NA,"68",20,"","",2,20,"training","adjacent",3,4,"R.jpg","Q.jpg",0,1,0,"",NA
"135","","feedback","","html-keyboard-response",134,45772,"0.0-1.0-186.0-0.0",0,0,18183,"",NA,"",NA,"null",20,"","",NA,NA,"","",NA,NA,"","",NA,NA,NA,"",NA
"136","","time_out","","html-keyboard-response",135,45874,"0.0-1.0-188.0-0.0",0,0,18183,"",NA,"",NA,"null",20,"","",NA,NA,"","",NA,NA,"","",NA,NA,NA,"",NA
"137","","ITI","","html-keyboard-response",136,46377,"0.0-1.0-189.0",0,0,18183,"",125,"",NA,"68",20,"","",NA,NA,"","",NA,NA,"","",NA,NA,NA,"d",NA
"138","","S1","","html-keyboard-response",137,46631,"0.0-1.0-191.0",0,0,18183,"",NA,"",NA,"null",21,"","",NA,NA,"","",NA,NA,"","",NA,NA,NA,"",NA
"139","","ISI","","html-keyboard-response",138,46733,"0.0-1.0-192.0",0,0,18183,"",68,"",NA,"68",21,"d","",NA,NA,"","",NA,NA,"","",NA,NA,NA,"",NA
"140","","S2","","html-keyboard-response",139,46988,"0.0-1.0-193.0",0,0,18183,"",NA,"",NA,"null",21,"","NaN",NA,NA,"","",NA,NA,"","",NA,NA,NA,"",NA
"141","","response","","html-keyboard-response",140,47006,"0.0-1.0-194.0",0,0,18183,"",17,"",NA,"68",21,"","",2,21,"training","adjacent",5,6,"O.jpg","M.jpg",0,1,0,"",NA
"142","","feedback","","html-keyboard-response",141,47112,"0.0-1.0-195.0-0.0",0,0,18183,"",NA,"",NA,"null",21,"","",NA,NA,"","",NA,NA,"","",NA,NA,NA,"",NA
"143","","time_out","","html-keyboard-response",142,47215,"0.0-1.0-197.0-0.0",0,0,18183,"",NA,"",NA,"null",21,"","",NA,NA,"","",NA,NA,"","",NA,NA,NA,"",NA
"144","","ITI","","html-keyboard-response",143,47720,"0.0-1.0-198.0",0,0,18183,"",106,"",NA,"68",21,"","",NA,NA,"","",NA,NA,"","",NA,NA,NA,"d",NA
"145","","S1","","html-keyboard-response",144,47974,"0.0-1.0-200.0",0,0,18183,"",NA,"",NA,"null",22,"","",NA,NA,"","",NA,NA,"","",NA,NA,NA,"",NA
"146","","ISI","","html-keyboard-response",145,48080,"0.0-1.0-201.0",0,0,18183,"",26,"",NA,"75",22,"k","",NA,NA,"","",NA,NA,"","",NA,NA,NA,"",NA
"147","","S2","","html-keyboard-response",146,48334,"0.0-1.0-202.0",0,0,18183,"",NA,"",NA,"null",22,"","NaN",NA,NA,"","",NA,NA,"","",NA,NA,NA,"",NA
"148","","response","","html-keyboard-response",147,48567,"0.0-1.0-203.0",0,0,18183,"",233,"",NA,"75",22,"","",2,22,"training","adjacent",2,1,"L.jpg","N.jpg",1,0,0,"",NA
"149","","feedback","","html-keyboard-response",148,48669,"0.0-1.0-204.0-0.0",0,0,18183,"",NA,"",NA,"null",22,"","",NA,NA,"","",NA,NA,"","",NA,NA,NA,"",NA
"150","","time_out","","html-keyboard-response",149,48775,"0.0-1.0-206.0-0.0",0,0,18183,"",NA,"",NA,"null",22,"","",NA,NA,"","",NA,NA,"","",NA,NA,NA,"",NA
"151","","ITI","","html-keyboard-response",150,49280,"0.0-1.0-207.0",0,0,18183,"",46,"",NA,"75",22,"","",NA,NA,"","",NA,NA,"","",NA,NA,NA,"k",NA
"152","","S1","","html-keyboard-response",151,49534,"0.0-1.0-209.0",0,0,18183,"",NA,"",NA,"null",23,"","",NA,NA,"","",NA,NA,"","",NA,NA,NA,"",NA
"153","","ISI","","html-keyboard-response",152,49638,"0.0-1.0-210.0",0,0,18183,"",2,"",NA,"75",23,"k","",NA,NA,"","",NA,NA,"","",NA,NA,NA,"",NA
"154","","S2","","html-keyboard-response",153,49891,"0.0-1.0-211.0",0,0,18183,"",215,"",NA,"75",23,"","k",NA,NA,"","",NA,NA,"","",NA,NA,NA,"",NA
"155","","response","","html-keyboard-response",154,50141,"0.0-1.0-212.0",0,0,18183,"",248,"",NA,"75",23,"","",2,23,"training","adjacent",6,5,"M.jpg","O.jpg",1,0,0,"",NA
"156","","feedback","","html-keyboard-response",155,50242,"0.0-1.0-213.0-0.0",0,0,18183,"",NA,"",NA,"null",23,"","",NA,NA,"","",NA,NA,"","",NA,NA,NA,"",NA
"157","","time_out","","html-keyboard-response",156,50346,"0.0-1.0-215.0-0.0",0,0,18183,"",NA,"",NA,"null",23,"","",NA,NA,"","",NA,NA,"","",NA,NA,NA,"",NA
"158","","ITI","","html-keyboard-response",157,50849,"0.0-1.0-216.0",0,0,18183,"",131,"",NA,"75",23,"","",NA,NA,"","",NA,NA,"","",NA,NA,NA,"k",NA
"159","","block_over","","html-keyboard-response",158,51771,"0.0-1.0-217.0-0.0",0,0,18183,"",921,"",NA,"32",23,"","",NA,NA,"","",NA,NA,"","",NA,NA,NA,"",NA
"160","","S1","","html-keyboard-response",159,52028,"0.0-1.0-218.0",0,0,18183,"",NA,"",NA,"null",24,"","",NA,NA,"","",NA,NA,"","",NA,NA,NA,"",NA
"161","","ISI","","html-keyboard-response",160,52133,"0.0-1.0-219.0",0,0,18183,"",NA,"",NA,"null",24,"NaN","",NA,NA,"","",NA,NA,"","",NA,NA,NA,"",NA
"162","","S2","","html-keyboard-response",161,52386,"0.0-1.0-220.0",0,0,18183,"",0,"",NA,"75",24,"","k",NA,NA,"","",NA,NA,"","",NA,NA,NA,"",NA
"163","","response","","html-keyboard-response",162,52420,"0.0-1.0-221.0",0,0,18183,"",32,"",NA,"75",24,"","",3,24,"training","adjacent",7,6,"P.jpg","M.jpg",1,0,0,"",NA
"164","","feedback","","html-keyboard-response",163,52521,"0.0-1.0-222.0-0.0",0,0,18183,"",NA,"",NA,"null",24,"","",NA,NA,"","",NA,NA,"","",NA,NA,NA,"",NA
"165","","time_out","","html-keyboard-response",164,52624,"0.0-1.0-224.0-0.0",0,0,18183,"",NA,"",NA,"null",24,"","",NA,NA,"","",NA,NA,"","",NA,NA,NA,"",NA
"166","","ITI","","html-keyboard-response",165,53127,"0.0-1.0-225.0",0,0,18183,"",69,"",NA,"75",24,"","",NA,NA,"","",NA,NA,"","",NA,NA,NA,"k",NA
"167","","S1","","html-keyboard-response",166,53384,"0.0-1.0-227.0",0,0,18183,"",NA,"",NA,"null",25,"","",NA,NA,"","",NA,NA,"","",NA,NA,NA,"",NA
"168","","ISI","","html-keyboard-response",167,53488,"0.0-1.0-228.0",0,0,18183,"",NA,"",NA,"null",25,"NaN","",NA,NA,"","",NA,NA,"","",NA,NA,NA,"",NA
"169","","S2","","html-keyboard-response",168,53741,"0.0-1.0-229.0",0,0,18183,"",2,"",NA,"75",25,"","k",NA,NA,"","",NA,NA,"","",NA,NA,NA,"",NA
"170","","response","","html-keyboard-response",169,53807,"0.0-1.0-230.0",0,0,18183,"",65,"",NA,"75",25,"","",3,25,"training","adjacent",4,5,"Q.jpg","O.jpg",1,1,1,"",NA
"171","","feedback","","html-keyboard-response",170,53913,"0.0-1.0-231.0-0.0",0,0,18183,"",NA,"",NA,"null",25,"","",NA,NA,"","",NA,NA,"","",NA,NA,NA,"",NA
"172","","ITI","","html-keyboard-response",171,54415,"0.0-1.0-234.0",0,0,18183,"",261,"",NA,"75",25,"","",NA,NA,"","",NA,NA,"","",NA,NA,NA,"k",NA
"173","","S1","","html-keyboard-response",172,54670,"0.0-1.0-236.0",0,0,18183,"",NA,"",NA,"null",26,"","",NA,NA,"","",NA,NA,"","",NA,NA,NA,"",NA
"174","","ISI","","html-keyboard-response",173,54774,"0.0-1.0-237.0",0,0,18183,"",NA,"",NA,"null",26,"NaN","",NA,NA,"","",NA,NA,"","",NA,NA,NA,"",NA
"175","","S2","","html-keyboard-response",174,55027,"0.0-1.0-238.0",0,0,18183,"",58,"",NA,"75",26,"","k",NA,NA,"","",NA,NA,"","",NA,NA,NA,"",NA
"176","","response","","html-keyboard-response",175,55112,"0.0-1.0-239.0",0,0,18183,"",84,"",NA,"75",26,"","",3,26,"training","adjacent",5,6,"O.jpg","M.jpg",1,1,1,"",NA
"177","","feedback","","html-keyboard-response",176,55218,"0.0-1.0-240.0-0.0",0,0,18183,"",NA,"",NA,"null",26,"","",NA,NA,"","",NA,NA,"","",NA,NA,NA,"",NA
"178","","ITI","","html-keyboard-response",177,55722,"0.0-1.0-243.0",0,0,18183,"",281,"",NA,"75",26,"","",NA,NA,"","",NA,NA,"","",NA,NA,NA,"k",NA
"179","","S1","","html-keyboard-response",178,55975,"0.0-1.0-245.0",0,0,18183,"",NA,"",NA,"null",27,"","",NA,NA,"","",NA,NA,"","",NA,NA,NA,"",NA
"180","","ISI","","html-keyboard-response",179,56077,"0.0-1.0-246.0",0,0,18183,"",NA,"",NA,"null",27,"NaN","",NA,NA,"","",NA,NA,"","",NA,NA,NA,"",NA
"181","","S2","","html-keyboard-response",180,56334,"0.0-1.0-247.0",0,0,18183,"",70,"",NA,"75",27,"","k",NA,NA,"","",NA,NA,"","",NA,NA,NA,"",NA
"182","","response","","html-keyboard-response",181,56394,"0.0-1.0-248.0",0,0,18183,"",58,"",NA,"68",27,"","",3,27,"training","adjacent",4,3,"Q.jpg","R.jpg",0,0,1,"",NA
"183","","feedback","","html-keyboard-response",182,56496,"0.0-1.0-249.0-0.0",0,0,18183,"",NA,"",NA,"null",27,"","",NA,NA,"","",NA,NA,"","",NA,NA,NA,"",NA
"184","","ITI","","html-keyboard-response",183,57001,"0.0-1.0-252.0",0,0,18183,"",193,"",NA,"68",27,"","",NA,NA,"","",NA,NA,"","",NA,NA,NA,"d",NA
"185","","S1","","html-keyboard-response",184,57255,"0.0-1.0-254.0",0,0,18183,"",NA,"",NA,"null",28,"","",NA,NA,"","",NA,NA,"","",NA,NA,NA,"",NA
"186","","ISI","","html-keyboard-response",185,57359,"0.0-1.0-255.0",0,0,18183,"",84,"",NA,"68",28,"d","",NA,NA,"","",NA,NA,"","",NA,NA,NA,"",NA
"187","","S2","","html-keyboard-response",186,57616,"0.0-1.0-256.0",0,0,18183,"",NA,"",NA,"null",28,"","NaN",NA,NA,"","",NA,NA,"","",NA,NA,NA,"",NA
"188","","response","","html-keyboard-response",187,57625,"0.0-1.0-257.0",0,0,18183,"",9,"",NA,"68",28,"","",3,28,"training","adjacent",6,7,"M.jpg","P.jpg",0,1,0,"",NA
"189","","feedback","","html-keyboard-response",188,57728,"0.0-1.0-258.0-0.0",0,0,18183,"",NA,"",NA,"null",28,"","",NA,NA,"","",NA,NA,"","",NA,NA,NA,"",NA
"190","","time_out","","html-keyboard-response",189,57834,"0.0-1.0-260.0-0.0",0,0,18183,"",NA,"",NA,"null",28,"","",NA,NA,"","",NA,NA,"","",NA,NA,NA,"",NA
"191","","ITI","","html-keyboard-response",190,58338,"0.0-1.0-261.0",0,0,18183,"",133,"",NA,"68",28,"","",NA,NA,"","",NA,NA,"","",NA,NA,NA,"d",NA
"192","","S1","","html-keyboard-response",191,58593,"0.0-1.0-263.0",0,0,18183,"",NA,"",NA,"null",29,"","",NA,NA,"","",NA,NA,"","",NA,NA,NA,"",NA
"193","","ISI","","html-keyboard-response",192,58695,"0.0-1.0-264.0",0,0,18183,"",NA,"",NA,"null",29,"NaN","",NA,NA,"","",NA,NA,"","",NA,NA,NA,"",NA
"194","","S2","","html-keyboard-response",193,58948,"0.0-1.0-265.0",0,0,18183,"",76,"",NA,"68",29,"","d",NA,NA,"","",NA,NA,"","",NA,NA,NA,"",NA
"195","","response","","html-keyboard-response",194,59455,"0.0-1.0-266.0",0,0,18183,"",NA,"",NA,"null",29,"","",3,29,"training","adjacent",3,2,"R.jpg","L.jpg",NA,0,0,"",NA
"196","","too_slow_prompt","","html-keyboard-response",195,60457,"0.0-1.0-268.0-0.0",1,0,18183,"",NA,"",NA,"null",NA,"","",NA,NA,"","",NA,NA,"","",NA,NA,NA,"",NA
"197","","time_out","","html-keyboard-response",196,60564,"0.0-1.0-269.0-0.0",0,0,18183,"",NA,"",NA,"null",29,"","",NA,NA,"","",NA,NA,"","",NA,NA,NA,"",NA
"198","","ITI","","html-keyboard-response",197,61071,"0.0-1.0-270.0",0,0,18183,"",NA,"",NA,"null",29,"","",NA,NA,"","",NA,NA,"","",NA,NA,NA,"NaN",NA
"199","","S1","","html-keyboard-response",198,61325,"0.0-1.0-272.0",0,0,18183,"",NA,"",NA,"null",30,"","",NA,NA,"","",NA,NA,"","",NA,NA,NA,"",NA
"200","","ISI","","html-keyboard-response",199,61427,"0.0-1.0-273.0",0,0,18183,"",NA,"",NA,"null",30,"NaN","",NA,NA,"","",NA,NA,"","",NA,NA,NA,"",NA
"201","","S2","","html-keyboard-response",200,61683,"0.0-1.0-274.0",0,0,18183,"",NA,"",NA,"null",30,"","NaN",NA,NA,"","",NA,NA,"","",NA,NA,NA,"",NA
"202","","response","","html-keyboard-response",201,62042,"0.0-1.0-275.0",0,0,18183,"",359,"",NA,"68",30,"","",3,30,"training","adjacent",3,4,"R.jpg","Q.jpg",0,1,0,"",NA
"203","","feedback","","html-keyboard-response",202,62147,"0.0-1.0-276.0-0.0",0,0,18183,"",NA,"",NA,"null",30,"","",NA,NA,"","",NA,NA,"","",NA,NA,NA,"",NA
"204","","time_out","","html-keyboard-response",203,62249,"0.0-1.0-278.0-0.0",0,0,18183,"",NA,"",NA,"null",30,"","",NA,NA,"","",NA,NA,"","",NA,NA,NA,"",NA
"205","","ITI","","html-keyboard-response",204,62750,"0.0-1.0-279.0",0,0,18183,"",NA,"",NA,"null",30,"","",NA,NA,"","",NA,NA,"","",NA,NA,NA,"NaN",NA
"206","","S1","","html-keyboard-response",205,63006,"0.0-1.0-281.0",0,0,18183,"",NA,"",NA,"null",31,"","",NA,NA,"","",NA,NA,"","",NA,NA,NA,"",NA
"207","","ISI","","html-keyboard-response",206,63109,"0.0-1.0-282.0",0,0,18183,"",5,"",NA,"68",31,"d","",NA,NA,"","",NA,NA,"","",NA,NA,NA,"",NA
"208","","S2","","html-keyboard-response",207,63361,"0.0-1.0-283.0",0,0,18183,"",NA,"",NA,"null",31,"","NaN",NA,NA,"","",NA,NA,"","",NA,NA,NA,"",NA
"209","","response","","html-keyboard-response",208,63463,"0.0-1.0-284.0",0,0,18183,"",101,"",NA,"68",31,"","",3,31,"training","adjacent",6,5,"M.jpg","O.jpg",0,0,1,"",NA
"210","","feedback","","html-keyboard-response",209,63566,"0.0-1.0-285.0-0.0",0,0,18183,"",NA,"",NA,"null",31,"","",NA,NA,"","",NA,NA,"","",NA,NA,NA,"",NA
"211","","ITI","","html-keyboard-response",210,64072,"0.0-1.0-288.0",0,0,18183,"",NA,"",NA,"null",31,"","",NA,NA,"","",NA,NA,"","",NA,NA,NA,"NaN",NA
"212","","S1","","html-keyboard-response",211,64326,"0.0-1.0-290.0",0,0,18183,"",NA,"",NA,"null",32,"","",NA,NA,"","",NA,NA,"","",NA,NA,NA,"",NA
"213","","ISI","","html-keyboard-response",212,64429,"0.0-1.0-291.0",0,0,18183,"",NA,"",NA,"null",32,"NaN","",NA,NA,"","",NA,NA,"","",NA,NA,NA,"",NA
"214","","S2","","html-keyboard-response",213,64684,"0.0-1.0-292.0",0,0,18183,"",11,"",NA,"68",32,"","d",NA,NA,"","",NA,NA,"","",NA,NA,NA,"",NA
"215","","response","","html-keyboard-response",214,64697,"0.0-1.0-293.0",0,0,18183,"",12,"",NA,"68",32,"","",3,32,"training","adjacent",2,3,"L.jpg","R.jpg",0,1,0,"",NA
"216","","feedback","","html-keyboard-response",215,64802,"0.0-1.0-294.0-0.0",0,0,18183,"",NA,"",NA,"null",32,"","",NA,NA,"","",NA,NA,"","",NA,NA,NA,"",NA
"217","","time_out","","html-keyboard-response",216,64904,"0.0-1.0-296.0-0.0",0,0,18183,"",NA,"",NA,"null",32,"","",NA,NA,"","",NA,NA,"","",NA,NA,NA,"",NA
"218","","ITI","","html-keyboard-response",217,65407,"0.0-1.0-297.0",0,0,18183,"",152,"",NA,"68",32,"","",NA,NA,"","",NA,NA,"","",NA,NA,NA,"d",NA
"219","","S1","","html-keyboard-response",218,65662,"0.0-1.0-299.0",0,0,18183,"",NA,"",NA,"null",33,"","",NA,NA,"","",NA,NA,"","",NA,NA,NA,"",NA
"220","","ISI","","html-keyboard-response",219,65765,"0.0-1.0-300.0",0,0,18183,"",NA,"",NA,"null",33,"NaN","",NA,NA,"","",NA,NA,"","",NA,NA,NA,"",NA
"221","","S2","","html-keyboard-response",220,66022,"0.0-1.0-301.0",0,0,18183,"",3,"",NA,"68",33,"","d",NA,NA,"","",NA,NA,"","",NA,NA,NA,"",NA
"222","","response","","html-keyboard-response",221,66150,"0.0-1.0-302.0",0,0,18183,"",126,"",NA,"68",33,"","",3,33,"training","adjacent",2,1,"L.jpg","N.jpg",0,0,1,"",NA
"223","","feedback","","html-keyboard-response",222,66253,"0.0-1.0-303.0-0.0",0,0,18183,"",NA,"",NA,"null",33,"","",NA,NA,"","",NA,NA,"","",NA,NA,NA,"",NA
"224","","ITI","","html-keyboard-response",223,66758,"0.0-1.0-306.0",0,0,18183,"",343,"",NA,"68",33,"","",NA,NA,"","",NA,NA,"","",NA,NA,NA,"d",NA
"225","","S1","","html-keyboard-response",224,67013,"0.0-1.0-308.0",0,0,18183,"",NA,"",NA,"null",34,"","",NA,NA,"","",NA,NA,"","",NA,NA,NA,"",NA
"226","","ISI","","html-keyboard-response",225,67115,"0.0-1.0-309.0",0,0,18183,"",74,"",NA,"68",34,"d","",NA,NA,"","",NA,NA,"","",NA,NA,NA,"",NA
"227","","S2","","html-keyboard-response",226,67368,"0.0-1.0-310.0",0,0,18183,"",NA,"",NA,"null",34,"","NaN",NA,NA,"","",NA,NA,"","",NA,NA,NA,"",NA
"228","","response","","html-keyboard-response",227,67394,"0.0-1.0-311.0",0,0,18183,"",24,"",NA,"68",34,"","",3,34,"training","adjacent",1,2,"N.jpg","L.jpg",0,1,0,"",NA
"229","","feedback","","html-keyboard-response",228,67500,"0.0-1.0-312.0-0.0",0,0,18183,"",NA,"",NA,"null",34,"","",NA,NA,"","",NA,NA,"","",NA,NA,NA,"",NA
"230","","time_out","","html-keyboard-response",229,67603,"0.0-1.0-314.0-0.0",0,0,18183,"",NA,"",NA,"null",34,"","",NA,NA,"","",NA,NA,"","",NA,NA,NA,"",NA
"231","","ITI","","html-keyboard-response",230,68107,"0.0-1.0-315.0",0,0,18183,"",53,"",NA,"68",34,"","",NA,NA,"","",NA,NA,"","",NA,NA,NA,"d",NA
"232","","S1","","html-keyboard-response",231,68360,"0.0-1.0-317.0",0,0,18183,"",NA,"",NA,"null",35,"","",NA,NA,"","",NA,NA,"","",NA,NA,NA,"",NA
"233","","ISI","","html-keyboard-response",232,68465,"0.0-1.0-318.0",0,0,18183,"",NA,"",NA,"null",35,"NaN","",NA,NA,"","",NA,NA,"","",NA,NA,NA,"",NA
"234","","S2","","html-keyboard-response",233,68718,"0.0-1.0-319.0",0,0,18183,"",48,"",NA,"75",35,"","k",NA,NA,"","",NA,NA,"","",NA,NA,NA,"",NA
"235","","response","","html-keyboard-response",234,68895,"0.0-1.0-320.0",0,0,18183,"",176,"",NA,"75",35,"","",3,35,"training","adjacent",5,4,"O.jpg","Q.jpg",1,0,0,"",NA
"236","","feedback","","html-keyboard-response",235,68999,"0.0-1.0-321.0-0.0",0,0,18183,"",NA,"",NA,"null",35,"","",NA,NA,"","",NA,NA,"","",NA,NA,NA,"",NA
"237","","time_out","","html-keyboard-response",236,69101,"0.0-1.0-323.0-0.0",0,0,18183,"",NA,"",NA,"null",35,"","",NA,NA,"","",NA,NA,"","",NA,NA,NA,"",NA
"238","","ITI","","html-keyboard-response",237,69608,"0.0-1.0-324.0",0,0,18183,"",75,"",NA,"75",35,"","",NA,NA,"","",NA,NA,"","",NA,NA,NA,"k",NA
"239","","block_over","","html-keyboard-response",238,70921,"0.0-1.0-325.0-0.0",0,0,18183,"",1311,"",NA,"32",35,"","",NA,NA,"","",NA,NA,"","",NA,NA,NA,"",NA
"240","","S1","","html-keyboard-response",239,71175,"0.0-1.0-326.0",0,0,18183,"",NA,"",NA,"null",36,"","",NA,NA,"","",NA,NA,"","",NA,NA,NA,"",NA
"241","","ISI","","html-keyboard-response",240,71282,"0.0-1.0-327.0",0,0,18183,"",NA,"",NA,"null",36,"NaN","",NA,NA,"","",NA,NA,"","",NA,NA,NA,"",NA
"242","","S2","","html-keyboard-response",241,71538,"0.0-1.0-328.0",0,0,18183,"",NA,"",NA,"null",36,"","NaN",NA,NA,"","",NA,NA,"","",NA,NA,NA,"",NA
"243","","response","","html-keyboard-response",242,72043,"0.0-1.0-329.0",0,0,18183,"",NA,"",NA,"null",36,"","",4,36,"test","non_adjacent",5,3,"O.jpg","R.jpg",NA,0,0,"",NA
"244","","too_slow_prompt","","html-keyboard-response",243,73050,"0.0-1.0-331.0-0.0",1,0,18183,"",NA,"",NA,"null",NA,"","",NA,NA,"","",NA,NA,"","",NA,NA,NA,"",NA
"245","","time_out","","html-keyboard-response",244,73154,"0.0-1.0-332.0-0.0",0,0,18183,"",NA,"",NA,"null",36,"","",NA,NA,"","",NA,NA,"","",NA,NA,NA,"",NA
"246","","ITI","","html-keyboard-response",245,73660,"0.0-1.0-333.0",0,0,18183,"",155,"",NA,"78",36,"","",NA,NA,"","",NA,NA,"","",NA,NA,NA,"n",NA
"247","","S1","","html-keyboard-response",246,73917,"0.0-1.0-335.0",0,0,18183,"",NA,"",NA,"null",37,"","",NA,NA,"","",NA,NA,"","",NA,NA,NA,"",NA
"248","","ISI","","html-keyboard-response",247,74022,"0.0-1.0-336.0",0,0,18183,"",87,"",NA,"78",37,"n","",NA,NA,"","",NA,NA,"","",NA,NA,NA,"",NA
"249","","S2","","html-keyboard-response",248,74277,"0.0-1.0-337.0",0,0,18183,"",187,"",NA,"78",37,"","n",NA,NA,"","",NA,NA,"","",NA,NA,NA,"",NA
"250","","response","","html-keyboard-response",249,74783,"0.0-1.0-338.0",0,0,18183,"",NA,"",NA,"null",37,"","",4,37,"test","non_adjacent",3,1,"R.jpg","N.jpg",NA,0,0,"",NA
"251","","too_slow_prompt","","html-keyboard-response",250,75788,"0.0-1.0-340.0-0.0",1,0,18183,"",NA,"",NA,"null",NA,"","",NA,NA,"","",NA,NA,"","",NA,NA,NA,"",NA
"252","","time_out","","html-keyboard-response",251,75894,"0.0-1.0-341.0-0.0",0,0,18183,"",NA,"",NA,"null",37,"","",NA,NA,"","",NA,NA,"","",NA,NA,NA,"",NA
"253","","ITI","","html-keyboard-response",252,76400,"0.0-1.0-342.0",0,0,18183,"",14,"",NA,"75",37,"","",NA,NA,"","",NA,NA,"","",NA,NA,NA,"k",NA
"254","","S1","","html-keyboard-response",253,76652,"0.0-1.0-344.0",0,0,18183,"",NA,"",NA,"null",38,"","",NA,NA,"","",NA,NA,"","",NA,NA,NA,"",NA
"255","","ISI","","html-keyboard-response",254,76758,"0.0-1.0-345.0",0,0,18183,"",NA,"",NA,"null",38,"NaN","",NA,NA,"","",NA,NA,"","",NA,NA,NA,"",NA
"256","","S2","","html-keyboard-response",255,77011,"0.0-1.0-346.0",0,0,18183,"",39,"",NA,"75",38,"","k",NA,NA,"","",NA,NA,"","",NA,NA,NA,"",NA
"257","","response","","html-keyboard-response",256,77054,"0.0-1.0-347.0",0,0,18183,"",41,"",NA,"75",38,"","",4,38,"test","non_adjacent",1,3,"N.jpg","R.jpg",1,1,1,"",NA
"258","","feedback","","html-keyboard-response",257,77158,"0.0-1.0-348.0-0.0",0,0,18183,"",NA,"",NA,"null",38,"","",NA,NA,"","",NA,NA,"","",NA,NA,NA,"",NA
"259","","ITI","","html-keyboard-response",258,77665,"0.0-1.0-351.0",0,0,18183,"",190,"",NA,"75",38,"","",NA,NA,"","",NA,NA,"","",NA,NA,NA,"k",NA
"260","","S1","","html-keyboard-response",259,77921,"0.0-1.0-353.0",0,0,18183,"",NA,"",NA,"null",39,"","",NA,NA,"","",NA,NA,"","",NA,NA,NA,"",NA
"261","","ISI","","html-keyboard-response",260,78025,"0.0-1.0-354.0",0,0,18183,"",NA,"",NA,"null",39,"NaN","",NA,NA,"","",NA,NA,"","",NA,NA,NA,"",NA
"262","","S2","","html-keyboard-response",261,78277,"0.0-1.0-355.0",0,0,18183,"",71,"",NA,"75",39,"","k",NA,NA,"","",NA,NA,"","",NA,NA,NA,"",NA
"263","","response","","html-keyboard-response",262,78363,"0.0-1.0-356.0",0,0,18183,"",84,"",NA,"75",39,"","",4,39,"test","adjacent",4,3,"Q.jpg","R.jpg",1,0,0,"",NA
"264","","feedback","","html-keyboard-response",263,78465,"0.0-1.0-357.0-0.0",0,0,18183,"",NA,"",NA,"null",39,"","",NA,NA,"","",NA,NA,"","",NA,NA,NA,"",NA
"265","","time_out","","html-keyboard-response",264,78567,"0.0-1.0-359.0-0.0",0,0,18183,"",NA,"",NA,"null",39,"","",NA,NA,"","",NA,NA,"","",NA,NA,NA,"",NA
"266","","ITI","","html-keyboard-response",265,79072,"0.0-1.0-360.0",0,0,18183,"",239,"",NA,"75",39,"","",NA,NA,"","",NA,NA,"","",NA,NA,NA,"k",NA
"267","","S1","","html-keyboard-response",266,79324,"0.0-1.0-362.0",0,0,18183,"",NA,"",NA,"null",40,"","",NA,NA,"","",NA,NA,"","",NA,NA,NA,"",NA
"268","","ISI","","html-keyboard-response",267,79427,"0.0-1.0-363.0",0,0,18183,"",NA,"",NA,"null",40,"NaN","",NA,NA,"","",NA,NA,"","",NA,NA,NA,"",NA
"269","","S2","","html-keyboard-response",268,79684,"0.0-1.0-364.0",0,0,18183,"",82,"",NA,"75",40,"","k",NA,NA,"","",NA,NA,"","",NA,NA,NA,"",NA
"270","","response","","html-keyboard-response",269,79758,"0.0-1.0-365.0",0,0,18183,"",74,"",NA,"75",40,"","",4,40,"test","non_adjacent",7,1,"P.jpg","N.jpg",1,0,0,"",NA
"271","","feedback","","html-keyboard-response",270,79862,"0.0-1.0-366.0-0.0",0,0,18183,"",NA,"",NA,"null",40,"","",NA,NA,"","",NA,NA,"","",NA,NA,NA,"",NA
"272","","time_out","","html-keyboard-response",271,79967,"0.0-1.0-368.0-0.0",0,0,18183,"",NA,"",NA,"null",40,"","",NA,NA,"","",NA,NA,"","",NA,NA,NA,"",NA
"273","","ITI","","html-keyboard-response",272,80472,"0.0-1.0-369.0",0,0,18183,"",178,"",NA,"75",40,"","",NA,NA,"","",NA,NA,"","",NA,NA,NA,"k",NA
"274","","S1","","html-keyboard-response",273,80730,"0.0-1.0-371.0",0,0,18183,"",NA,"",NA,"null",41,"","",NA,NA,"","",NA,NA,"","",NA,NA,NA,"",NA
"275","","ISI","","html-keyboard-response",274,80834,"0.0-1.0-372.0",0,0,18183,"",NA,"",NA,"null",41,"NaN","",NA,NA,"","",NA,NA,"","",NA,NA,NA,"",NA
"276","","S2","","html-keyboard-response",275,81087,"0.0-1.0-373.0",0,0,18183,"",152,"",NA,"32",41,"","space",NA,NA,"","",NA,NA,"","",NA,NA,NA,"",NA
"277","","response","","html-keyboard-response",276,81591,"0.0-1.0-374.0",0,0,18183,"",NA,"",NA,"null",41,"","",4,41,"test","non_adjacent",4,2,"Q.jpg","L.jpg",NA,0,0,"",NA
"278","","too_slow_prompt","","html-keyboard-response",277,82594,"0.0-1.0-376.0-0.0",1,0,18183,"",NA,"",NA,"null",NA,"","",NA,NA,"","",NA,NA,"","",NA,NA,NA,"",NA
"279","","time_out","","html-keyboard-response",278,82700,"0.0-1.0-377.0-0.0",0,0,18183,"",NA,"",NA,"null",41,"","",NA,NA,"","",NA,NA,"","",NA,NA,NA,"",NA
"280","","ITI","","html-keyboard-response",279,83207,"0.0-1.0-378.0",0,0,18183,"",243,"",NA,"32",41,"","",NA,NA,"","",NA,NA,"","",NA,NA,NA,"space",NA
"281","","S1","","html-keyboard-response",280,83459,"0.0-1.0-380.0",0,0,18183,"",NA,"",NA,"null",42,"","",NA,NA,"","",NA,NA,"","",NA,NA,NA,"",NA
"282","","ISI","","html-keyboard-response",281,83565,"0.0-1.0-381.0",0,0,18183,"",NA,"",NA,"null",42,"NaN","",NA,NA,"","",NA,NA,"","",NA,NA,NA,"",NA
"283","","S2","","html-keyboard-response",282,83817,"0.0-1.0-382.0",0,0,18183,"",127,"",NA,"32",42,"","space",NA,NA,"","",NA,NA,"","",NA,NA,NA,"",NA
"284","","response","","html-keyboard-response",283,84322,"0.0-1.0-383.0",0,0,18183,"",NA,"",NA,"null",42,"","",4,42,"test","non_adjacent",4,1,"Q.jpg","N.jpg",NA,0,0,"",NA
"285","","too_slow_prompt","","html-keyboard-response",284,85325,"0.0-1.0-385.0-0.0",1,0,18183,"",NA,"",NA,"null",NA,"","",NA,NA,"","",NA,NA,"","",NA,NA,NA,"",NA
"286","","time_out","","html-keyboard-response",285,85430,"0.0-1.0-386.0-0.0",0,0,18183,"",NA,"",NA,"null",42,"","",NA,NA,"","",NA,NA,"","",NA,NA,NA,"",NA
"287","","ITI","","html-keyboard-response",286,85933,"0.0-1.0-387.0",0,0,18183,"",354,"",NA,"75",42,"","",NA,NA,"","",NA,NA,"","",NA,NA,NA,"k",NA
"288","","S1","","html-keyboard-response",287,86188,"0.0-1.0-389.0",0,0,18183,"",NA,"",NA,"null",43,"","",NA,NA,"","",NA,NA,"","",NA,NA,NA,"",NA
"289","","ISI","","html-keyboard-response",288,86290,"0.0-1.0-390.0",0,0,18183,"",NA,"",NA,"null",43,"NaN","",NA,NA,"","",NA,NA,"","",NA,NA,NA,"",NA
"290","","S2","","html-keyboard-response",289,86543,"0.0-1.0-391.0",0,0,18183,"",182,"",NA,"75",43,"","k",NA,NA,"","",NA,NA,"","",NA,NA,NA,"",NA
"291","","response","","html-keyboard-response",290,86801,"0.0-1.0-392.0",0,0,18183,"",256,"",NA,"75",43,"","",4,43,"test","non_adjacent",7,2,"P.jpg","L.jpg",1,0,0,"",NA
"292","","feedback","","html-keyboard-response",291,86903,"0.0-1.0-393.0-0.0",0,0,18183,"",NA,"",NA,"null",43,"","",NA,NA,"","",NA,NA,"","",NA,NA,NA,"",NA
"293","","time_out","","html-keyboard-response",292,87007,"0.0-1.0-395.0-0.0",0,0,18183,"",NA,"",NA,"null",43,"","",NA,NA,"","",NA,NA,"","",NA,NA,NA,"",NA
"294","","ITI","","html-keyboard-response",293,87513,"0.0-1.0-396.0",0,0,18183,"",71,"",NA,"75",43,"","",NA,NA,"","",NA,NA,"","",NA,NA,NA,"k",NA
"295","","S1","","html-keyboard-response",294,87766,"0.0-1.0-398.0",0,0,18183,"",NA,"",NA,"null",44,"","",NA,NA,"","",NA,NA,"","",NA,NA,NA,"",NA
"296","","ISI","","html-keyboard-response",295,87870,"0.0-1.0-399.0",0,0,18183,"",32,"",NA,"75",44,"k","",NA,NA,"","",NA,NA,"","",NA,NA,NA,"",NA
"297","","S2","","html-keyboard-response",296,88122,"0.0-1.0-400.0",0,0,18183,"",241,"",NA,"75",44,"","k",NA,NA,"","",NA,NA,"","",NA,NA,NA,"",NA
"298","","response","","html-keyboard-response",297,88557,"0.0-1.0-401.0",0,0,18183,"",433,"",NA,"75",44,"","",4,44,"test","adjacent",2,3,"L.jpg","R.jpg",1,1,1,"",NA
"299","","feedback","","html-keyboard-response",298,88661,"0.0-1.0-402.0-0.0",0,0,18183,"",NA,"",NA,"null",44,"","",NA,NA,"","",NA,NA,"","",NA,NA,NA,"",NA
"300","","ITI","","html-keyboard-response",299,89163,"0.0-1.0-405.0",0,0,18183,"",280,"",NA,"75",44,"","",NA,NA,"","",NA,NA,"","",NA,NA,NA,"k",NA
"301","","S1","","html-keyboard-response",300,89420,"0.0-1.0-407.0",0,0,18183,"",NA,"",NA,"null",45,"","",NA,NA,"","",NA,NA,"","",NA,NA,NA,"",NA
"302","","ISI","","html-keyboard-response",301,89527,"0.0-1.0-408.0",0,0,18183,"",NA,"",NA,"null",45,"NaN","",NA,NA,"","",NA,NA,"","",NA,NA,NA,"",NA
"303","","S2","","html-keyboard-response",302,89784,"0.0-1.0-409.0",0,0,18183,"",173,"",NA,"75",45,"","k",NA,NA,"","",NA,NA,"","",NA,NA,NA,"",NA
"304","","response","","html-keyboard-response",303,90288,"0.0-1.0-410.0",0,0,18183,"",NA,"",NA,"null",45,"","",4,45,"test","non_adjacent",5,1,"O.jpg","N.jpg",NA,0,0,"",NA
"305","","too_slow_prompt","","html-keyboard-response",304,91294,"0.0-1.0-412.0-0.0",1,0,18183,"",NA,"",NA,"null",NA,"","",NA,NA,"","",NA,NA,"","",NA,NA,NA,"",NA
"306","","time_out","","html-keyboard-response",305,91397,"0.0-1.0-413.0-0.0",0,0,18183,"",NA,"",NA,"null",45,"","",NA,NA,"","",NA,NA,"","",NA,NA,NA,"",NA
"307","","ITI","","html-keyboard-response",306,91904,"0.0-1.0-414.0",0,0,18183,"",118,"",NA,"68",45,"","",NA,NA,"","",NA,NA,"","",NA,NA,NA,"d",NA
"308","","S1","","html-keyboard-response",307,92160,"0.0-1.0-416.0",0,0,18183,"",NA,"",NA,"null",46,"","",NA,NA,"","",NA,NA,"","",NA,NA,NA,"",NA
"309","","ISI","","html-keyboard-response",308,92265,"0.0-1.0-417.0",0,0,18183,"",NA,"",NA,"null",46,"NaN","",NA,NA,"","",NA,NA,"","",NA,NA,NA,"",NA
"310","","S2","","html-keyboard-response",309,92519,"0.0-1.0-418.0",0,0,18183,"",31,"",NA,"68",46,"","d",NA,NA,"","",NA,NA,"","",NA,NA,NA,"",NA
"311","","response","","html-keyboard-response",310,92707,"0.0-1.0-419.0",0,0,18183,"",187,"",NA,"68",46,"","",4,46,"test","non_adjacent",2,4,"L.jpg","Q.jpg",0,1,0,"",NA
"312","","feedback","","html-keyboard-response",311,92810,"0.0-1.0-420.0-0.0",0,0,18183,"",NA,"",NA,"null",46,"","",NA,NA,"","",NA,NA,"","",NA,NA,NA,"",NA
"313","","time_out","","html-keyboard-response",312,92912,"0.0-1.0-422.0-0.0",0,0,18183,"",NA,"",NA,"null",46,"","",NA,NA,"","",NA,NA,"","",NA,NA,NA,"",NA
"314","","ITI","","html-keyboard-response",313,93414,"0.0-1.0-423.0",0,0,18183,"",219,"",NA,"68",46,"","",NA,NA,"","",NA,NA,"","",NA,NA,NA,"d",NA
"315","","S1","","html-keyboard-response",314,93669,"0.0-1.0-425.0",0,0,18183,"",NA,"",NA,"null",47,"","",NA,NA,"","",NA,NA,"","",NA,NA,NA,"",NA
"316","","ISI","","html-keyboard-response",315,93775,"0.0-1.0-426.0",0,0,18183,"",NA,"",NA,"null",47,"NaN","",NA,NA,"","",NA,NA,"","",NA,NA,NA,"",NA
"317","","S2","","html-keyboard-response",316,94028,"0.0-1.0-427.0",0,0,18183,"",168,"",NA,"68",47,"","d",NA,NA,"","",NA,NA,"","",NA,NA,NA,"",NA
"318","","response","","html-keyboard-response",317,94334,"0.0-1.0-428.0",0,0,18183,"",305,"",NA,"68",47,"","",4,47,"test","non_adjacent",1,4,"N.jpg","Q.jpg",0,1,0,"",NA
"319","","feedback","","html-keyboard-response",318,94438,"0.0-1.0-429.0-0.0",0,0,18183,"",NA,"",NA,"null",47,"","",NA,NA,"","",NA,NA,"","",NA,NA,NA,"",NA
"320","","time_out","","html-keyboard-response",319,94539,"0.0-1.0-431.0-0.0",0,0,18183,"",NA,"",NA,"null",47,"","",NA,NA,"","",NA,NA,"","",NA,NA,NA,"",NA
"321","","ITI","","html-keyboard-response",320,95044,"0.0-1.0-432.0",0,0,18183,"",205,"",NA,"75",47,"","",NA,NA,"","",NA,NA,"","",NA,NA,NA,"k",NA
"322","","S1","","html-keyboard-response",321,95300,"0.0-1.0-434.0",0,0,18183,"",NA,"",NA,"null",48,"","",NA,NA,"","",NA,NA,"","",NA,NA,NA,"",NA
"323","","ISI","","html-keyboard-response",322,95402,"0.0-1.0-435.0",0,0,18183,"",NA,"",NA,"null",48,"NaN","",NA,NA,"","",NA,NA,"","",NA,NA,NA,"",NA
"324","","S2","","html-keyboard-response",323,95654,"0.0-1.0-436.0",0,0,18183,"",195,"",NA,"75",48,"","k",NA,NA,"","",NA,NA,"","",NA,NA,NA,"",NA
"325","","response","","html-keyboard-response",324,95944,"0.0-1.0-437.0",0,0,18183,"",288,"",NA,"75",48,"","",4,48,"test","non_adjacent",7,3,"P.jpg","R.jpg",1,0,0,"",NA
"326","","feedback","","html-keyboard-response",325,96046,"0.0-1.0-438.0-0.0",0,0,18183,"",NA,"",NA,"null",48,"","",NA,NA,"","",NA,NA,"","",NA,NA,NA,"",NA
"327","","time_out","","html-keyboard-response",326,96147,"0.0-1.0-440.0-0.0",0,0,18183,"",NA,"",NA,"null",48,"","",NA,NA,"","",NA,NA,"","",NA,NA,NA,"",NA
"328","","ITI","","html-keyboard-response",327,96650,"0.0-1.0-441.0",0,0,18183,"",358,"",NA,"75",48,"","",NA,NA,"","",NA,NA,"","",NA,NA,NA,"k",NA
"329","","S1","","html-keyboard-response",328,96905,"0.0-1.0-443.0",0,0,18183,"",NA,"",NA,"null",49,"","",NA,NA,"","",NA,NA,"","",NA,NA,NA,"",NA
"330","","ISI","","html-keyboard-response",329,97010,"0.0-1.0-444.0",0,0,18183,"",NA,"",NA,"null",49,"NaN","",NA,NA,"","",NA,NA,"","",NA,NA,NA,"",NA
"331","","S2","","html-keyboard-response",330,97267,"0.0-1.0-445.0",0,0,18183,"",217,"",NA,"75",49,"","k",NA,NA,"","",NA,NA,"","",NA,NA,NA,"",NA
"332","","response","","html-keyboard-response",331,97579,"0.0-1.0-446.0",0,0,18183,"",311,"",NA,"75",49,"","",4,49,"test","adjacent",1,2,"N.jpg","L.jpg",1,1,1,"",NA
"333","","feedback","","html-keyboard-response",332,97684,"0.0-1.0-447.0-0.0",0,0,18183,"",NA,"",NA,"null",49,"","",NA,NA,"","",NA,NA,"","",NA,NA,NA,"",NA
"334","","ITI","","html-keyboard-response",333,98186,"0.0-1.0-450.0",0,0,18183,"",NA,"",NA,"null",49,"","",NA,NA,"","",NA,NA,"","",NA,NA,NA,"NaN",NA
"335","","S1","","html-keyboard-response",334,98443,"0.0-1.0-452.0",0,0,18183,"",NA,"",NA,"null",50,"","",NA,NA,"","",NA,NA,"","",NA,NA,NA,"",NA
"336","","ISI","","html-keyboard-response",335,98549,"0.0-1.0-453.0",0,0,18183,"",79,"",NA,"75",50,"k","",NA,NA,"","",NA,NA,"","",NA,NA,NA,"",NA
"337","","S2","","html-keyboard-response",336,98801,"0.0-1.0-454.0",0,0,18183,"",NA,"",NA,"null",50,"","NaN",NA,NA,"","",NA,NA,"","",NA,NA,NA,"",NA
"338","","response","","html-keyboard-response",337,98880,"0.0-1.0-455.0",0,0,18183,"",77,"",NA,"75",50,"","",4,50,"test","adjacent",3,4,"R.jpg","Q.jpg",1,1,1,"",NA
"339","","feedback","","html-keyboard-response",338,98983,"0.0-1.0-456.0-0.0",0,0,18183,"",NA,"",NA,"null",50,"","",NA,NA,"","",NA,NA,"","",NA,NA,NA,"",NA
"340","","ITI","","html-keyboard-response",339,99490,"0.0-1.0-459.0",0,0,18183,"",471,"",NA,"75",50,"","",NA,NA,"","",NA,NA,"","",NA,NA,NA,"k",NA
"341","","S1","","html-keyboard-response",340,99745,"0.0-1.0-461.0",0,0,18183,"",NA,"",NA,"null",51,"","",NA,NA,"","",NA,NA,"","",NA,NA,NA,"",NA
"342","","ISI","","html-keyboard-response",341,99848,"0.0-1.0-462.0",0,0,18183,"",23,"",NA,"75",51,"k","",NA,NA,"","",NA,NA,"","",NA,NA,NA,"",NA
"343","","S2","","html-keyboard-response",342,100103,"0.0-1.0-463.0",0,0,18183,"",NA,"",NA,"null",51,"","NaN",NA,NA,"","",NA,NA,"","",NA,NA,NA,"",NA
"344","","response","","html-keyboard-response",343,100138,"0.0-1.0-464.0",0,0,18183,"",33,"",NA,"75",51,"","",4,51,"test","non_adjacent",5,2,"O.jpg","L.jpg",1,0,0,"",NA
"345","","feedback","","html-keyboard-response",344,100243,"0.0-1.0-465.0-0.0",0,0,18183,"",NA,"",NA,"null",51,"","",NA,NA,"","",NA,NA,"","",NA,NA,NA,"",NA
"346","","time_out","","html-keyboard-response",345,100349,"0.0-1.0-467.0-0.0",0,0,18183,"",NA,"",NA,"null",51,"","",NA,NA,"","",NA,NA,"","",NA,NA,NA,"",NA
"347","","ITI","","html-keyboard-response",346,100853,"0.0-1.0-468.0",0,0,18183,"",362,"",NA,"68",51,"","",NA,NA,"","",NA,NA,"","",NA,NA,NA,"d",NA
"348","","S1","","html-keyboard-response",347,101109,"0.0-1.0-470.0",0,0,18183,"",NA,"",NA,"null",52,"","",NA,NA,"","",NA,NA,"","",NA,NA,NA,"",NA
"349","","ISI","","html-keyboard-response",348,101213,"0.0-1.0-471.0",0,0,18183,"",57,"",NA,"68",52,"d","",NA,NA,"","",NA,NA,"","",NA,NA,NA,"",NA
"350","","S2","","html-keyboard-response",349,101467,"0.0-1.0-472.0",0,0,18183,"",NA,"",NA,"null",52,"","NaN",NA,NA,"","",NA,NA,"","",NA,NA,NA,"",NA
"351","","response","","html-keyboard-response",350,101485,"0.0-1.0-473.0",0,0,18183,"",16,"",NA,"68",52,"","",4,52,"test","adjacent",3,2,"R.jpg","L.jpg",0,0,1,"",NA
"352","","feedback","","html-keyboard-response",351,101588,"0.0-1.0-474.0-0.0",0,0,18183,"",NA,"",NA,"null",52,"","",NA,NA,"","",NA,NA,"","",NA,NA,NA,"",NA
"353","","ITI","","html-keyboard-response",352,102090,"0.0-1.0-477.0",0,0,18183,"",455,"",NA,"68",52,"","",NA,NA,"","",NA,NA,"","",NA,NA,NA,"d",NA
"354","","S1","","html-keyboard-response",353,102345,"0.0-1.0-479.0",0,0,18183,"",NA,"",NA,"null",53,"","",NA,NA,"","",NA,NA,"","",NA,NA,NA,"",NA
"355","","ISI","","html-keyboard-response",354,102451,"0.0-1.0-480.0",0,0,18183,"",81,"",NA,"68",53,"d","",NA,NA,"","",NA,NA,"","",NA,NA,NA,"",NA
"356","","S2","","html-keyboard-response",355,102704,"0.0-1.0-481.0",0,0,18183,"",NA,"",NA,"null",53,"","NaN",NA,NA,"","",NA,NA,"","",NA,NA,NA,"",NA
"357","","response","","html-keyboard-response",356,102879,"0.0-1.0-482.0",0,0,18183,"",173,"",NA,"68",53,"","",4,53,"test","adjacent",2,1,"L.jpg","N.jpg",0,0,1,"",NA
"358","","feedback","","html-keyboard-response",357,102984,"0.0-1.0-483.0-0.0",0,0,18183,"",NA,"",NA,"null",53,"","",NA,NA,"","",NA,NA,"","",NA,NA,NA,"",NA
"359","","ITI","","html-keyboard-response",358,103490,"0.0-1.0-486.0",0,0,18183,"",325,"",NA,"68",53,"","",NA,NA,"","",NA,NA,"","",NA,NA,NA,"d",NA
"360","","S1","","html-keyboard-response",359,103742,"0.0-1.0-488.0",0,0,18183,"",NA,"",NA,"null",54,"","",NA,NA,"","",NA,NA,"","",NA,NA,NA,"",NA
"361","","ISI","","html-keyboard-response",360,103849,"0.0-1.0-489.0",0,0,18183,"",NA,"",NA,"null",54,"NaN","",NA,NA,"","",NA,NA,"","",NA,NA,NA,"",NA
"362","","S2","","html-keyboard-response",361,104106,"0.0-1.0-490.0",0,0,18183,"",192,"",NA,"68",54,"","d",NA,NA,"","",NA,NA,"","",NA,NA,NA,"",NA
"363","","response","","html-keyboard-response",362,104440,"0.0-1.0-491.0",0,0,18183,"",333,"",NA,"68",54,"","",4,54,"test","non_adjacent",6,3,"M.jpg","R.jpg",0,0,1,"",NA
"364","","feedback","","html-keyboard-response",363,104542,"0.0-1.0-492.0-0.0",0,0,18183,"",NA,"",NA,"null",54,"","",NA,NA,"","",NA,NA,"","",NA,NA,NA,"",NA
"365","","ITI","","html-keyboard-response",364,105045,"0.0-1.0-495.0",0,0,18183,"",275,"",NA,"68",54,"","",NA,NA,"","",NA,NA,"","",NA,NA,NA,"d",NA
"366","","S1","","html-keyboard-response",365,105300,"0.0-1.0-497.0",0,0,18183,"",NA,"",NA,"null",55,"","",NA,NA,"","",NA,NA,"","",NA,NA,NA,"",NA
"367","","ISI","","html-keyboard-response",366,105405,"0.0-1.0-498.0",0,0,18183,"",NA,"",NA,"null",55,"NaN","",NA,NA,"","",NA,NA,"","",NA,NA,NA,"",NA
"368","","S2","","html-keyboard-response",367,105658,"0.0-1.0-499.0",0,0,18183,"",191,"",NA,"68",55,"","d",NA,NA,"","",NA,NA,"","",NA,NA,NA,"",NA
"369","","response","","html-keyboard-response",368,105981,"0.0-1.0-500.0",0,0,18183,"",321,"",NA,"68",55,"","",4,55,"test","non_adjacent",6,2,"M.jpg","L.jpg",0,0,1,"",NA
"370","","feedback","","html-keyboard-response",369,106085,"0.0-1.0-501.0-0.0",0,0,18183,"",NA,"",NA,"null",55,"","",NA,NA,"","",NA,NA,"","",NA,NA,NA,"",NA
"371","","ITI","","html-keyboard-response",370,106587,"0.0-1.0-504.0",0,0,18183,"",316,"",NA,"68",55,"","",NA,NA,"","",NA,NA,"","",NA,NA,NA,"d",NA
"372","","S1","","html-keyboard-response",371,106839,"0.0-1.0-506.0",0,0,18183,"",NA,"",NA,"null",56,"","",NA,NA,"","",NA,NA,"","",NA,NA,NA,"",NA
"373","","ISI","","html-keyboard-response",372,106944,"0.0-1.0-507.0",0,0,18183,"",NA,"",NA,"null",56,"NaN","",NA,NA,"","",NA,NA,"","",NA,NA,NA,"",NA
"374","","S2","","html-keyboard-response",373,107200,"0.0-1.0-508.0",0,0,18183,"",113,"",NA,"68",56,"","d",NA,NA,"","",NA,NA,"","",NA,NA,NA,"",NA
"375","","response","","html-keyboard-response",374,107405,"0.0-1.0-509.0",0,0,18183,"",203,"",NA,"68",56,"","",4,56,"test","non_adjacent",6,1,"M.jpg","N.jpg",0,0,1,"",NA
"376","","feedback","","html-keyboard-response",375,107511,"0.0-1.0-510.0-0.0",0,0,18183,"",NA,"",NA,"null",56,"","",NA,NA,"","",NA,NA,"","",NA,NA,NA,"",NA
"377","","ITI","","html-keyboard-response",376,108014,"0.0-1.0-513.0",0,0,18183,"",263,"",NA,"68",56,"","",NA,NA,"","",NA,NA,"","",NA,NA,NA,"d",NA
"378","","block_over","","html-keyboard-response",377,109392,"0.0-1.0-514.0-0.0",0,0,18183,"",1376,"",NA,"32",56,"","",NA,NA,"","",NA,NA,"","",NA,NA,NA,"",NA
"379","","S1","","html-keyboard-response",378,109646,"0.0-1.0-515.0",0,0,18183,"",NA,"",NA,"null",57,"","",NA,NA,"","",NA,NA,"","",NA,NA,NA,"",NA
"380","","ISI","","html-keyboard-response",379,109748,"0.0-1.0-516.0",0,0,18183,"",NA,"",NA,"null",57,"NaN","",NA,NA,"","",NA,NA,"","",NA,NA,NA,"",NA
"381","","S2","","html-keyboard-response",380,110000,"0.0-1.0-517.0",0,0,18183,"",39,"",NA,"75",57,"","k",NA,NA,"","",NA,NA,"","",NA,NA,NA,"",NA
"382","","response","","html-keyboard-response",381,110057,"0.0-1.0-518.0",0,0,18183,"",56,"",NA,"75",57,"","",5,57,"test","non_adjacent",6,4,"M.jpg","Q.jpg",1,0,0,"",NA
"383","","feedback","","html-keyboard-response",382,110162,"0.0-1.0-519.0-0.0",0,0,18183,"",NA,"",NA,"null",57,"","",NA,NA,"","",NA,NA,"","",NA,NA,NA,"",NA
"384","","time_out","","html-keyboard-response",383,110267,"0.0-1.0-521.0-0.0",0,0,18183,"",NA,"",NA,"null",57,"","",NA,NA,"","",NA,NA,"","",NA,NA,NA,"",NA
"385","","ITI","","html-keyboard-response",384,110771,"0.0-1.0-522.0",0,0,18183,"",44,"",NA,"75",57,"","",NA,NA,"","",NA,NA,"","",NA,NA,NA,"k",NA
"386","","S1","","html-keyboard-response",385,111026,"0.0-1.0-524.0",0,0,18183,"",NA,"",NA,"null",58,"","",NA,NA,"","",NA,NA,"","",NA,NA,NA,"",NA
"387","","ISI","","html-keyboard-response",386,111130,"0.0-1.0-525.0",0,0,18183,"",NA,"",NA,"null",58,"NaN","",NA,NA,"","",NA,NA,"","",NA,NA,NA,"",NA
"388","","S2","","html-keyboard-response",387,111384,"0.0-1.0-526.0",0,0,18183,"",97,"",NA,"75",58,"","k",NA,NA,"","",NA,NA,"","",NA,NA,NA,"",NA
"389","","response","","html-keyboard-response",388,111486,"0.0-1.0-527.0",0,0,18183,"",101,"",NA,"75",58,"","",5,58,"test","non_adjacent",3,5,"R.jpg","O.jpg",1,1,1,"",NA
"390","","feedback","","html-keyboard-response",389,111588,"0.0-1.0-528.0-0.0",0,0,18183,"",NA,"",NA,"null",58,"","",NA,NA,"","",NA,NA,"","",NA,NA,NA,"",NA
"391","","ITI","","html-keyboard-response",390,112092,"0.0-1.0-531.0",0,0,18183,"",312,"",NA,"75",58,"","",NA,NA,"","",NA,NA,"","",NA,NA,NA,"k",NA
"392","","S1","","html-keyboard-response",391,112348,"0.0-1.0-533.0",0,0,18183,"",NA,"",NA,"null",59,"","",NA,NA,"","",NA,NA,"","",NA,NA,NA,"",NA
"393","","ISI","","html-keyboard-response",392,112452,"0.0-1.0-534.0",0,0,18183,"",NA,"",NA,"null",59,"NaN","",NA,NA,"","",NA,NA,"","",NA,NA,NA,"",NA
"394","","S2","","html-keyboard-response",393,112706,"0.0-1.0-535.0",0,0,18183,"",50,"",NA,"75",59,"","k",NA,NA,"","",NA,NA,"","",NA,NA,NA,"",NA
"395","","response","","html-keyboard-response",394,112795,"0.0-1.0-536.0",0,0,18183,"",87,"",NA,"75",59,"","",5,59,"test","adjacent",5,4,"O.jpg","Q.jpg",1,0,0,"",NA
"396","","feedback","","html-keyboard-response",395,112896,"0.0-1.0-537.0-0.0",0,0,18183,"",NA,"",NA,"null",59,"","",NA,NA,"","",NA,NA,"","",NA,NA,NA,"",NA
"397","","time_out","","html-keyboard-response",396,112998,"0.0-1.0-539.0-0.0",0,0,18183,"",NA,"",NA,"null",59,"","",NA,NA,"","",NA,NA,"","",NA,NA,NA,"",NA
"398","","ITI","","html-keyboard-response",397,113503,"0.0-1.0-540.0",0,0,18183,"",132,"",NA,"75",59,"","",NA,NA,"","",NA,NA,"","",NA,NA,NA,"k",NA
"399","","S1","","html-keyboard-response",398,113760,"0.0-1.0-542.0",0,0,18183,"",NA,"",NA,"null",60,"","",NA,NA,"","",NA,NA,"","",NA,NA,NA,"",NA
"400","","ISI","","html-keyboard-response",399,113862,"0.0-1.0-543.0",0,0,18183,"",NA,"",NA,"null",60,"NaN","",NA,NA,"","",NA,NA,"","",NA,NA,NA,"",NA
"401","","S2","","html-keyboard-response",400,114118,"0.0-1.0-544.0",0,0,18183,"",129,"",NA,"75",60,"","k",NA,NA,"","",NA,NA,"","",NA,NA,NA,"",NA
"402","","response","","html-keyboard-response",401,114250,"0.0-1.0-545.0",0,0,18183,"",130,"",NA,"75",60,"","",5,60,"test","adjacent",5,6,"O.jpg","M.jpg",1,1,1,"",NA
"403","","feedback","","html-keyboard-response",402,114353,"0.0-1.0-546.0-0.0",0,0,18183,"",NA,"",NA,"null",60,"","",NA,NA,"","",NA,NA,"","",NA,NA,NA,"",NA
"404","","ITI","","html-keyboard-response",403,114858,"0.0-1.0-549.0",0,0,18183,"",188,"",NA,"75",60,"","",NA,NA,"","",NA,NA,"","",NA,NA,NA,"k",NA
"405","","S1","","html-keyboard-response",404,115111,"0.0-1.0-551.0",0,0,18183,"",NA,"",NA,"null",61,"","",NA,NA,"","",NA,NA,"","",NA,NA,NA,"",NA
"406","","ISI","","html-keyboard-response",405,115218,"0.0-1.0-552.0",0,0,18183,"",24,"",NA,"75",61,"k","",NA,NA,"","",NA,NA,"","",NA,NA,NA,"",NA
"407","","S2","","html-keyboard-response",406,115475,"0.0-1.0-553.0",0,0,18183,"",207,"",NA,"75",61,"","k",NA,NA,"","",NA,NA,"","",NA,NA,NA,"",NA
"408","","response","","html-keyboard-response",407,115797,"0.0-1.0-554.0",0,0,18183,"",322,"",NA,"75",61,"","",5,61,"test","non_adjacent",4,7,"Q.jpg","P.jpg",1,1,1,"",NA
"409","","feedback","","html-keyboard-response",408,115904,"0.0-1.0-555.0-0.0",0,0,18183,"",NA,"",NA,"null",61,"","",NA,NA,"","",NA,NA,"","",NA,NA,NA,"",NA
"410","","ITI","","html-keyboard-response",409,116406,"0.0-1.0-558.0",0,0,18183,"",199,"",NA,"75",61,"","",NA,NA,"","",NA,NA,"","",NA,NA,NA,"k",NA
"411","","S1","","html-keyboard-response",410,116660,"0.0-1.0-560.0",0,0,18183,"",NA,"",NA,"null",62,"","",NA,NA,"","",NA,NA,"","",NA,NA,NA,"",NA
"412","","ISI","","html-keyboard-response",411,116764,"0.0-1.0-561.0",0,0,18183,"",59,"",NA,"75",62,"k","",NA,NA,"","",NA,NA,"","",NA,NA,NA,"",NA
"413","","S2","","html-keyboard-response",412,117018,"0.0-1.0-562.0",0,0,18183,"",223,"",NA,"75",62,"","k",NA,NA,"","",NA,NA,"","",NA,NA,NA,"",NA
"414","","response","","html-keyboard-response",413,117335,"0.0-1.0-563.0",0,0,18183,"",317,"",NA,"75",62,"","",5,62,"test","adjacent",7,6,"P.jpg","M.jpg",1,0,0,"",NA
"415","","feedback","","html-keyboard-response",414,117438,"0.0-1.0-564.0-0.0",0,0,18183,"",NA,"",NA,"null",62,"","",NA,NA,"","",NA,NA,"","",NA,NA,NA,"",NA
"416","","time_out","","html-keyboard-response",415,117544,"0.0-1.0-566.0-0.0",0,0,18183,"",NA,"",NA,"null",62,"","",NA,NA,"","",NA,NA,"","",NA,NA,NA,"",NA
"417","","ITI","","html-keyboard-response",416,118048,"0.0-1.0-567.0",0,0,18183,"",64,"",NA,"75",62,"","",NA,NA,"","",NA,NA,"","",NA,NA,NA,"k",NA
"418","","S1","","html-keyboard-response",417,118304,"0.0-1.0-569.0",0,0,18183,"",NA,"",NA,"null",63,"","",NA,NA,"","",NA,NA,"","",NA,NA,NA,"",NA
"419","","ISI","","html-keyboard-response",418,118411,"0.0-1.0-570.0",0,0,18183,"",NA,"",NA,"null",63,"NaN","",NA,NA,"","",NA,NA,"","",NA,NA,NA,"",NA
"420","","S2","","html-keyboard-response",419,118664,"0.0-1.0-571.0",0,0,18183,"",6,"",NA,"75",63,"","k",NA,NA,"","",NA,NA,"","",NA,NA,NA,"",NA
"421","","response","","html-keyboard-response",420,119019,"0.0-1.0-572.0",0,0,18183,"",353,"",NA,"75",63,"","",5,63,"test","non_adjacent",1,5,"N.jpg","O.jpg",1,1,1,"",NA
"422","","feedback","","html-keyboard-response",421,119121,"0.0-1.0-573.0-0.0",0,0,18183,"",NA,"",NA,"null",63,"","",NA,NA,"","",NA,NA,"","",NA,NA,NA,"",NA
"423","","ITI","","html-keyboard-response",422,119628,"0.0-1.0-576.0",0,0,18183,"",170,"",NA,"75",63,"","",NA,NA,"","",NA,NA,"","",NA,NA,NA,"k",NA
"424","","S1","","html-keyboard-response",423,119881,"0.0-1.0-578.0",0,0,18183,"",NA,"",NA,"null",64,"","",NA,NA,"","",NA,NA,"","",NA,NA,NA,"",NA
"425","","ISI","","html-keyboard-response",424,119984,"0.0-1.0-579.0",0,0,18183,"",NA,"",NA,"null",64,"NaN","",NA,NA,"","",NA,NA,"","",NA,NA,NA,"",NA
"426","","S2","","html-keyboard-response",425,120237,"0.0-1.0-580.0",0,0,18183,"",185,"",NA,"75",64,"","k",NA,NA,"","",NA,NA,"","",NA,NA,NA,"",NA
"427","","response","","html-keyboard-response",426,120402,"0.0-1.0-581.0",0,0,18183,"",164,"",NA,"75",64,"","",5,64,"test","non_adjacent",5,7,"O.jpg","P.jpg",1,1,1,"",NA
"428","","feedback","","html-keyboard-response",427,120504,"0.0-1.0-582.0-0.0",0,0,18183,"",NA,"",NA,"null",64,"","",NA,NA,"","",NA,NA,"","",NA,NA,NA,"",NA
"429","","ITI","","html-keyboard-response",428,121008,"0.0-1.0-585.0",0,0,18183,"",68,"",NA,"68",64,"","",NA,NA,"","",NA,NA,"","",NA,NA,NA,"d",NA
"430","","S1","","html-keyboard-response",429,121263,"0.0-1.0-587.0",0,0,18183,"",NA,"",NA,"null",65,"","",NA,NA,"","",NA,NA,"","",NA,NA,NA,"",NA
"431","","ISI","","html-keyboard-response",430,121366,"0.0-1.0-588.0",0,0,18183,"",NA,"",NA,"null",65,"NaN","",NA,NA,"","",NA,NA,"","",NA,NA,NA,"",NA
"432","","S2","","html-keyboard-response",431,121622,"0.0-1.0-589.0",0,0,18183,"",180,"",NA,"68",65,"","d",NA,NA,"","",NA,NA,"","",NA,NA,NA,"",NA
"433","","response","","html-keyboard-response",432,121837,"0.0-1.0-590.0",0,0,18183,"",214,"",NA,"68",65,"","",5,65,"test","non_adjacent",3,7,"R.jpg","P.jpg",0,1,0,"",NA
"434","","feedback","","html-keyboard-response",433,121939,"0.0-1.0-591.0-0.0",0,0,18183,"",NA,"",NA,"null",65,"","",NA,NA,"","",NA,NA,"","",NA,NA,NA,"",NA
"435","","time_out","","html-keyboard-response",434,122042,"0.0-1.0-593.0-0.0",0,0,18183,"",NA,"",NA,"null",65,"","",NA,NA,"","",NA,NA,"","",NA,NA,NA,"",NA
"436","","ITI","","html-keyboard-response",435,122545,"0.0-1.0-594.0",0,0,18183,"",53,"",NA,"68",65,"","",NA,NA,"","",NA,NA,"","",NA,NA,NA,"d",NA
"437","","S1","","html-keyboard-response",436,122802,"0.0-1.0-596.0",0,0,18183,"",NA,"",NA,"null",66,"","",NA,NA,"","",NA,NA,"","",NA,NA,NA,"",NA
"438","","ISI","","html-keyboard-response",437,122907,"0.0-1.0-597.0",0,0,18183,"",NA,"",NA,"null",66,"NaN","",NA,NA,"","",NA,NA,"","",NA,NA,NA,"",NA
"439","","S2","","html-keyboard-response",438,123160,"0.0-1.0-598.0",0,0,18183,"",146,"",NA,"68",66,"","d",NA,NA,"","",NA,NA,"","",NA,NA,NA,"",NA
"440","","response","","html-keyboard-response",439,123320,"0.0-1.0-599.0",0,0,18183,"",159,"",NA,"68",66,"","",5,66,"test","adjacent",4,5,"Q.jpg","O.jpg",0,1,0,"",NA
"441","","feedback","","html-keyboard-response",440,123424,"0.0-1.0-600.0-0.0",0,0,18183,"",NA,"",NA,"null",66,"","",NA,NA,"","",NA,NA,"","",NA,NA,NA,"",NA
"442","","time_out","","html-keyboard-response",441,123529,"0.0-1.0-602.0-0.0",0,0,18183,"",NA,"",NA,"null",66,"","",NA,NA,"","",NA,NA,"","",NA,NA,NA,"",NA
"443","","ITI","","html-keyboard-response",442,124034,"0.0-1.0-603.0",0,0,18183,"",120,"",NA,"68",66,"","",NA,NA,"","",NA,NA,"","",NA,NA,NA,"d",NA
"444","","S1","","html-keyboard-response",443,124288,"0.0-1.0-605.0",0,0,18183,"",NA,"",NA,"null",67,"","",NA,NA,"","",NA,NA,"","",NA,NA,NA,"",NA
"445","","ISI","","html-keyboard-response",444,124390,"0.0-1.0-606.0",0,0,18183,"",62,"",NA,"75",67,"k","",NA,NA,"","",NA,NA,"","",NA,NA,NA,"",NA
"446","","S2","","html-keyboard-response",445,124647,"0.0-1.0-607.0",0,0,18183,"",196,"",NA,"75",67,"","k",NA,NA,"","",NA,NA,"","",NA,NA,NA,"",NA
"447","","response","","html-keyboard-response",446,124823,"0.0-1.0-608.0",0,0,18183,"",175,"",NA,"75",67,"","",5,67,"test","non_adjacent",1,6,"N.jpg","M.jpg",1,1,1,"",NA
"448","","feedback","","html-keyboard-response",447,124925,"0.0-1.0-609.0-0.0",0,0,18183,"",NA,"",NA,"null",67,"","",NA,NA,"","",NA,NA,"","",NA,NA,NA,"",NA
"449","","ITI","","html-keyboard-response",448,125432,"0.0-1.0-612.0",0,0,18183,"",128,"",NA,"75",67,"","",NA,NA,"","",NA,NA,"","",NA,NA,NA,"k",NA
"450","","S1","","html-keyboard-response",449,125688,"0.0-1.0-614.0",0,0,18183,"",NA,"",NA,"null",68,"","",NA,NA,"","",NA,NA,"","",NA,NA,NA,"",NA
"451","","ISI","","html-keyboard-response",450,125795,"0.0-1.0-615.0",0,0,18183,"",NA,"",NA,"null",68,"NaN","",NA,NA,"","",NA,NA,"","",NA,NA,NA,"",NA
"452","","S2","","html-keyboard-response",451,126047,"0.0-1.0-616.0",0,0,18183,"",48,"",NA,"75",68,"","k",NA,NA,"","",NA,NA,"","",NA,NA,NA,"",NA
"453","","response","","html-keyboard-response",452,126094,"0.0-1.0-617.0",0,0,18183,"",46,"",NA,"75",68,"","",5,68,"test","non_adjacent",4,6,"Q.jpg","M.jpg",1,1,1,"",NA
"454","","feedback","","html-keyboard-response",453,126200,"0.0-1.0-618.0-0.0",0,0,18183,"",NA,"",NA,"null",68,"","",NA,NA,"","",NA,NA,"","",NA,NA,NA,"",NA
"455","","ITI","","html-keyboard-response",454,126707,"0.0-1.0-621.0",0,0,18183,"",134,"",NA,"75",68,"","",NA,NA,"","",NA,NA,"","",NA,NA,NA,"k",NA
"456","","S1","","html-keyboard-response",455,126960,"0.0-1.0-623.0",0,0,18183,"",NA,"",NA,"null",69,"","",NA,NA,"","",NA,NA,"","",NA,NA,NA,"",NA
"457","","ISI","","html-keyboard-response",456,127063,"0.0-1.0-624.0",0,0,18183,"",NA,"",NA,"null",69,"NaN","",NA,NA,"","",NA,NA,"","",NA,NA,NA,"",NA
"458","","S2","","html-keyboard-response",457,127316,"0.0-1.0-625.0",0,0,18183,"",77,"",NA,"75",69,"","k",NA,NA,"","",NA,NA,"","",NA,NA,NA,"",NA
"459","","response","","html-keyboard-response",458,127610,"0.0-1.0-626.0",0,0,18183,"",292,"",NA,"75",69,"","",5,69,"test","non_adjacent",2,7,"L.jpg","P.jpg",1,1,1,"",NA
"460","","feedback","","html-keyboard-response",459,127713,"0.0-1.0-627.0-0.0",0,0,18183,"",NA,"",NA,"null",69,"","",NA,NA,"","",NA,NA,"","",NA,NA,NA,"",NA
"461","","ITI","","html-keyboard-response",460,128217,"0.0-1.0-630.0",0,0,18183,"",133,"",NA,"75",69,"","",NA,NA,"","",NA,NA,"","",NA,NA,NA,"k",NA
"462","","S1","","html-keyboard-response",461,128475,"0.0-1.0-632.0",0,0,18183,"",NA,"",NA,"null",70,"","",NA,NA,"","",NA,NA,"","",NA,NA,NA,"",NA
"463","","ISI","","html-keyboard-response",462,128579,"0.0-1.0-633.0",0,0,18183,"",NA,"",NA,"null",70,"NaN","",NA,NA,"","",NA,NA,"","",NA,NA,NA,"",NA
"464","","S2","","html-keyboard-response",463,128834,"0.0-1.0-634.0",0,0,18183,"",92,"",NA,"68",70,"","d",NA,NA,"","",NA,NA,"","",NA,NA,NA,"",NA
"465","","response","","html-keyboard-response",464,128954,"0.0-1.0-635.0",0,0,18183,"",118,"",NA,"68",70,"","",5,70,"test","non_adjacent",1,7,"N.jpg","P.jpg",0,1,0,"",NA
"466","","feedback","","html-keyboard-response",465,129056,"0.0-1.0-636.0-0.0",0,0,18183,"",NA,"",NA,"null",70,"","",NA,NA,"","",NA,NA,"","",NA,NA,NA,"",NA
"467","","time_out","","html-keyboard-response",466,129159,"0.0-1.0-638.0-0.0",0,0,18183,"",NA,"",NA,"null",70,"","",NA,NA,"","",NA,NA,"","",NA,NA,NA,"",NA
"468","","ITI","","html-keyboard-response",467,129664,"0.0-1.0-639.0",0,0,18183,"",49,"",NA,"68",70,"","",NA,NA,"","",NA,NA,"","",NA,NA,NA,"d",NA
"469","","S1","","html-keyboard-response",468,129919,"0.0-1.0-641.0",0,0,18183,"",NA,"",NA,"null",71,"","",NA,NA,"","",NA,NA,"","",NA,NA,NA,"",NA
"470","","ISI","","html-keyboard-response",469,130022,"0.0-1.0-642.0",0,0,18183,"",NA,"",NA,"null",71,"NaN","",NA,NA,"","",NA,NA,"","",NA,NA,NA,"",NA
"471","","S2","","html-keyboard-response",470,130276,"0.0-1.0-643.0",0,0,18183,"",114,"",NA,"68",71,"","d",NA,NA,"","",NA,NA,"","",NA,NA,NA,"",NA
"472","","response","","html-keyboard-response",471,130414,"0.0-1.0-644.0",0,0,18183,"",137,"",NA,"68",71,"","",5,71,"test","adjacent",6,7,"M.jpg","P.jpg",0,1,0,"",NA
"473","","feedback","","html-keyboard-response",472,130519,"0.0-1.0-645.0-0.0",0,0,18183,"",NA,"",NA,"null",71,"","",NA,NA,"","",NA,NA,"","",NA,NA,NA,"",NA
"474","","time_out","","html-keyboard-response",473,130622,"0.0-1.0-647.0-0.0",0,0,18183,"",NA,"",NA,"null",71,"","",NA,NA,"","",NA,NA,"","",NA,NA,NA,"",NA
"475","","ITI","","html-keyboard-response",474,131126,"0.0-1.0-648.0",0,0,18183,"",62,"",NA,"68",71,"","",NA,NA,"","",NA,NA,"","",NA,NA,NA,"d",NA
"476","","S1","","html-keyboard-response",475,131380,"0.0-1.0-650.0",0,0,18183,"",NA,"",NA,"null",72,"","",NA,NA,"","",NA,NA,"","",NA,NA,NA,"",NA
"477","","ISI","","html-keyboard-response",476,131483,"0.0-1.0-651.0",0,0,18183,"",0,"",NA,"68",72,"d","",NA,NA,"","",NA,NA,"","",NA,NA,NA,"",NA
"478","","S2","","html-keyboard-response",477,131738,"0.0-1.0-652.0",0,0,18183,"",221,"",NA,"68",72,"","d",NA,NA,"","",NA,NA,"","",NA,NA,NA,"",NA
"479","","response","","html-keyboard-response",478,132007,"0.0-1.0-653.0",0,0,18183,"",269,"",NA,"68",72,"","",5,72,"test","adjacent",6,5,"M.jpg","O.jpg",0,0,1,"",NA
"480","","feedback","","html-keyboard-response",479,132110,"0.0-1.0-654.0-0.0",0,0,18183,"",NA,"",NA,"null",72,"","",NA,NA,"","",NA,NA,"","",NA,NA,NA,"",NA
"481","","ITI","","html-keyboard-response",480,132617,"0.0-1.0-657.0",0,0,18183,"",172,"",NA,"68",72,"","",NA,NA,"","",NA,NA,"","",NA,NA,NA,"d",NA
"482","","S1","","html-keyboard-response",481,132873,"0.0-1.0-659.0",0,0,18183,"",NA,"",NA,"null",73,"","",NA,NA,"","",NA,NA,"","",NA,NA,NA,"",NA
"483","","ISI","","html-keyboard-response",482,132976,"0.0-1.0-660.0",0,0,18183,"",NA,"",NA,"null",73,"NaN","",NA,NA,"","",NA,NA,"","",NA,NA,NA,"",NA
"484","","S2","","html-keyboard-response",483,133228,"0.0-1.0-661.0",0,0,18183,"",0,"",NA,"68",73,"","d",NA,NA,"","",NA,NA,"","",NA,NA,NA,"",NA
"485","","response","","html-keyboard-response",484,133274,"0.0-1.0-662.0",0,0,18183,"",45,"",NA,"68",73,"","",5,73,"test","non_adjacent",7,4,"P.jpg","Q.jpg",0,0,1,"",NA
"486","","feedback","","html-keyboard-response",485,133380,"0.0-1.0-663.0-0.0",0,0,18183,"",NA,"",NA,"null",73,"","",NA,NA,"","",NA,NA,"","",NA,NA,NA,"",NA
"487","","ITI","","html-keyboard-response",486,133883,"0.0-1.0-666.0",0,0,18183,"",186,"",NA,"68",73,"","",NA,NA,"","",NA,NA,"","",NA,NA,NA,"d",NA
"488","","S1","","html-keyboard-response",487,134137,"0.0-1.0-668.0",0,0,18183,"",NA,"",NA,"null",74,"","",NA,NA,"","",NA,NA,"","",NA,NA,NA,"",NA
"489","","ISI","","html-keyboard-response",488,134240,"0.0-1.0-669.0",0,0,18183,"",NA,"",NA,"null",74,"NaN","",NA,NA,"","",NA,NA,"","",NA,NA,NA,"",NA
"490","","S2","","html-keyboard-response",489,134492,"0.0-1.0-670.0",0,0,18183,"",18,"",NA,"68",74,"","d",NA,NA,"","",NA,NA,"","",NA,NA,NA,"",NA
"491","","response","","html-keyboard-response",490,134563,"0.0-1.0-671.0",0,0,18183,"",69,"",NA,"68",74,"","",5,74,"test","non_adjacent",2,6,"L.jpg","M.jpg",0,1,0,"",NA
"492","","feedback","","html-keyboard-response",491,134668,"0.0-1.0-672.0-0.0",0,0,18183,"",NA,"",NA,"null",74,"","",NA,NA,"","",NA,NA,"","",NA,NA,NA,"",NA
"493","","time_out","","html-keyboard-response",492,134773,"0.0-1.0-674.0-0.0",0,0,18183,"",NA,"",NA,"null",74,"","",NA,NA,"","",NA,NA,"","",NA,NA,NA,"",NA
"494","","ITI","","html-keyboard-response",493,135279,"0.0-1.0-675.0",0,0,18183,"",128,"",NA,"68",74,"","",NA,NA,"","",NA,NA,"","",NA,NA,NA,"d",NA
"495","","S1","","html-keyboard-response",494,135534,"0.0-1.0-677.0",0,0,18183,"",NA,"",NA,"null",75,"","",NA,NA,"","",NA,NA,"","",NA,NA,NA,"",NA
"496","","ISI","","html-keyboard-response",495,135636,"0.0-1.0-678.0",0,0,18183,"",96,"",NA,"68",75,"d","",NA,NA,"","",NA,NA,"","",NA,NA,NA,"",NA
"497","","S2","","html-keyboard-response",496,135892,"0.0-1.0-679.0",0,0,18183,"",NA,"",NA,"null",75,"","NaN",NA,NA,"","",NA,NA,"","",NA,NA,NA,"",NA
"498","","response","","html-keyboard-response",497,135916,"0.0-1.0-680.0",0,0,18183,"",22,"",NA,"68",75,"","",5,75,"test","non_adjacent",2,5,"L.jpg","O.jpg",0,1,0,"",NA
"499","","feedback","","html-keyboard-response",498,136022,"0.0-1.0-681.0-0.0",0,0,18183,"",NA,"",NA,"null",75,"","",NA,NA,"","",NA,NA,"","",NA,NA,NA,"",NA
"500","","time_out","","html-keyboard-response",499,136129,"0.0-1.0-683.0-0.0",0,0,18183,"",NA,"",NA,"null",75,"","",NA,NA,"","",NA,NA,"","",NA,NA,NA,"",NA
"501","","ITI","","html-keyboard-response",500,136636,"0.0-1.0-684.0",0,0,18183,"",87,"",NA,"68",75,"","",NA,NA,"","",NA,NA,"","",NA,NA,NA,"d",NA
"502","","S1","","html-keyboard-response",501,136889,"0.0-1.0-686.0",0,0,18183,"",NA,"",NA,"null",76,"","",NA,NA,"","",NA,NA,"","",NA,NA,NA,"",NA
"503","","ISI","","html-keyboard-response",502,136992,"0.0-1.0-687.0",0,0,18183,"",1,"",NA,"68",76,"d","",NA,NA,"","",NA,NA,"","",NA,NA,NA,"",NA
"504","","S2","","html-keyboard-response",503,137247,"0.0-1.0-688.0",0,0,18183,"",200,"",NA,"68",76,"","d",NA,NA,"","",NA,NA,"","",NA,NA,NA,"",NA
"505","","response","","html-keyboard-response",504,137536,"0.0-1.0-689.0",0,0,18183,"",288,"",NA,"68",76,"","",5,76,"test","non_adjacent",3,6,"R.jpg","M.jpg",0,1,0,"",NA
"506","","feedback","","html-keyboard-response",505,137638,"0.0-1.0-690.0-0.0",0,0,18183,"",NA,"",NA,"null",76,"","",NA,NA,"","",NA,NA,"","",NA,NA,NA,"",NA
"507","","time_out","","html-keyboard-response",506,137743,"0.0-1.0-692.0-0.0",0,0,18183,"",NA,"",NA,"null",76,"","",NA,NA,"","",NA,NA,"","",NA,NA,NA,"",NA
"508","","ITI","","html-keyboard-response",507,138246,"0.0-1.0-693.0",0,0,18183,"",96,"",NA,"68",76,"","",NA,NA,"","",NA,NA,"","",NA,NA,NA,"d",NA
"509","","S1","","html-keyboard-response",508,138499,"0.0-1.0-695.0",0,0,18183,"",NA,"",NA,"null",77,"","",NA,NA,"","",NA,NA,"","",NA,NA,NA,"",NA
"510","","ISI","","html-keyboard-response",509,138604,"0.0-1.0-696.0",0,0,18183,"",NA,"",NA,"null",77,"NaN","",NA,NA,"","",NA,NA,"","",NA,NA,NA,"",NA
"511","","S2","","html-keyboard-response",510,138860,"0.0-1.0-697.0",0,0,18183,"",NA,"",NA,"null",77,"","NaN",NA,NA,"","",NA,NA,"","",NA,NA,NA,"",NA
"512","","response","","html-keyboard-response",511,138885,"0.0-1.0-698.0",0,0,18183,"",23,"",NA,"68",77,"","",5,77,"test","non_adjacent",7,5,"P.jpg","O.jpg",0,0,1,"",NA
"513","","feedback","","html-keyboard-response",512,138987,"0.0-1.0-699.0-0.0",0,0,18183,"",NA,"",NA,"null",77,"","",NA,NA,"","",NA,NA,"","",NA,NA,NA,"",NA
"514","","ITI","","html-keyboard-response",513,139493,"0.0-1.0-702.0",0,0,18183,"",274,"",NA,"68",77,"","",NA,NA,"","",NA,NA,"","",NA,NA,NA,"d",NA
"515","","block_over","","html-keyboard-response",514,140605,"0.0-1.0-703.0-0.0",0,0,18183,"",1109,"",NA,"32",77,"","",NA,NA,"","",NA,NA,"","",NA,NA,NA,"",NA
"516","","S1","","html-keyboard-response",515,140860,"0.0-1.0-704.0",0,0,18183,"",NA,"",NA,"null",78,"","",NA,NA,"","",NA,NA,"","",NA,NA,NA,"",NA
"517","","ISI","","html-keyboard-response",516,140967,"0.0-1.0-705.0",0,0,18183,"",NA,"",NA,"null",78,"NaN","",NA,NA,"","",NA,NA,"","",NA,NA,NA,"",NA
"518","","S2","","html-keyboard-response",517,141221,"0.0-1.0-706.0",0,0,18183,"",11,"",NA,"75",78,"","k",NA,NA,"","",NA,NA,"","",NA,NA,NA,"",NA
"519","","response","","html-keyboard-response",518,141456,"0.0-1.0-707.0",0,0,18183,"",234,"",NA,"75",78,"","",6,78,"test","non_adjacent",3,1,"R.jpg","N.jpg",1,0,0,"",NA
"520","","feedback","","html-keyboard-response",519,141558,"0.0-1.0-708.0-0.0",0,0,18183,"",NA,"",NA,"null",78,"","",NA,NA,"","",NA,NA,"","",NA,NA,NA,"",NA
"521","","time_out","","html-keyboard-response",520,141665,"0.0-1.0-710.0-0.0",0,0,18183,"",NA,"",NA,"null",78,"","",NA,NA,"","",NA,NA,"","",NA,NA,NA,"",NA
"522","","ITI","","html-keyboard-response",521,142168,"0.0-1.0-711.0",0,0,18183,"",28,"",NA,"75",78,"","",NA,NA,"","",NA,NA,"","",NA,NA,NA,"k",NA
"523","","S1","","html-keyboard-response",522,142421,"0.0-1.0-713.0",0,0,18183,"",NA,"",NA,"null",79,"","",NA,NA,"","",NA,NA,"","",NA,NA,NA,"",NA
"524","","ISI","","html-keyboard-response",523,142524,"0.0-1.0-714.0",0,0,18183,"",NA,"",NA,"null",79,"NaN","",NA,NA,"","",NA,NA,"","",NA,NA,NA,"",NA
"525","","S2","","html-keyboard-response",524,142781,"0.0-1.0-715.0",0,0,18183,"",57,"",NA,"75",79,"","k",NA,NA,"","",NA,NA,"","",NA,NA,NA,"",NA
"526","","response","","html-keyboard-response",525,142857,"0.0-1.0-716.0",0,0,18183,"",74,"",NA,"75",79,"","",6,79,"test","adjacent",1,2,"N.jpg","L.jpg",1,1,1,"",NA
"527","","feedback","","html-keyboard-response",526,142958,"0.0-1.0-717.0-0.0",0,0,18183,"",NA,"",NA,"null",79,"","",NA,NA,"","",NA,NA,"","",NA,NA,NA,"",NA
"528","","ITI","","html-keyboard-response",527,143463,"0.0-1.0-720.0",0,0,18183,"",160,"",NA,"75",79,"","",NA,NA,"","",NA,NA,"","",NA,NA,NA,"k",NA
"529","","S1","","html-keyboard-response",528,143719,"0.0-1.0-722.0",0,0,18183,"",NA,"",NA,"null",80,"","",NA,NA,"","",NA,NA,"","",NA,NA,NA,"",NA
"530","","ISI","","html-keyboard-response",529,143826,"0.0-1.0-723.0",0,0,18183,"",18,"",NA,"75",80,"k","",NA,NA,"","",NA,NA,"","",NA,NA,NA,"",NA
"531","","S2","","html-keyboard-response",530,144081,"0.0-1.0-724.0",0,0,18183,"",211,"",NA,"75",80,"","k",NA,NA,"","",NA,NA,"","",NA,NA,NA,"",NA
"532","","response","","html-keyboard-response",531,144343,"0.0-1.0-725.0",0,0,18183,"",260,"",NA,"75",80,"","",6,80,"test","non_adjacent",4,1,"Q.jpg","N.jpg",1,0,0,"",NA
"533","","feedback","","html-keyboard-response",532,144445,"0.0-1.0-726.0-0.0",0,0,18183,"",NA,"",NA,"null",80,"","",NA,NA,"","",NA,NA,"","",NA,NA,NA,"",NA
"534","","time_out","","html-keyboard-response",533,144548,"0.0-1.0-728.0-0.0",0,0,18183,"",NA,"",NA,"null",80,"","",NA,NA,"","",NA,NA,"","",NA,NA,NA,"",NA
"535","","ITI","","html-keyboard-response",534,145051,"0.0-1.0-729.0",0,0,18183,"",59,"",NA,"75",80,"","",NA,NA,"","",NA,NA,"","",NA,NA,NA,"k",NA
"536","","S1","","html-keyboard-response",535,145304,"0.0-1.0-731.0",0,0,18183,"",NA,"",NA,"null",81,"","",NA,NA,"","",NA,NA,"","",NA,NA,NA,"",NA
"537","","ISI","","html-keyboard-response",536,145407,"0.0-1.0-732.0",0,0,18183,"",NA,"",NA,"null",81,"NaN","",NA,NA,"","",NA,NA,"","",NA,NA,NA,"",NA
"538","","S2","","html-keyboard-response",537,145664,"0.0-1.0-733.0",0,0,18183,"",195,"",NA,"75",81,"","k",NA,NA,"","",NA,NA,"","",NA,NA,NA,"",NA
"539","","response","","html-keyboard-response",538,145851,"0.0-1.0-734.0",0,0,18183,"",185,"",NA,"75",81,"","",6,81,"test","non_adjacent",2,4,"L.jpg","Q.jpg",1,1,1,"",NA
"540","","feedback","","html-keyboard-response",539,145954,"0.0-1.0-735.0-0.0",0,0,18183,"",NA,"",NA,"null",81,"","",NA,NA,"","",NA,NA,"","",NA,NA,NA,"",NA
"541","","ITI","","html-keyboard-response",540,146460,"0.0-1.0-738.0",0,0,18183,"",250,"",NA,"75",81,"","",NA,NA,"","",NA,NA,"","",NA,NA,NA,"k",NA
"542","","S1","","html-keyboard-response",541,146712,"0.0-1.0-740.0",0,0,18183,"",NA,"",NA,"null",82,"","",NA,NA,"","",NA,NA,"","",NA,NA,NA,"",NA
"543","","ISI","","html-keyboard-response",542,146817,"0.0-1.0-741.0",0,0,18183,"",NA,"",NA,"null",82,"NaN","",NA,NA,"","",NA,NA,"","",NA,NA,NA,"",NA
"544","","S2","","html-keyboard-response",543,147073,"0.0-1.0-742.0",0,0,18183,"",84,"",NA,"75",82,"","k",NA,NA,"","",NA,NA,"","",NA,NA,NA,"",NA
"545","","response","","html-keyboard-response",544,147152,"0.0-1.0-743.0",0,0,18183,"",78,"",NA,"75",82,"","",6,82,"test","non_adjacent",7,3,"P.jpg","R.jpg",1,0,0,"",NA
"546","","feedback","","html-keyboard-response",545,147257,"0.0-1.0-744.0-0.0",0,0,18183,"",NA,"",NA,"null",82,"","",NA,NA,"","",NA,NA,"","",NA,NA,NA,"",NA
"547","","time_out","","html-keyboard-response",546,147363,"0.0-1.0-746.0-0.0",0,0,18183,"",NA,"",NA,"null",82,"","",NA,NA,"","",NA,NA,"","",NA,NA,NA,"",NA
"548","","ITI","","html-keyboard-response",547,147869,"0.0-1.0-747.0",0,0,18183,"",44,"",NA,"75",82,"","",NA,NA,"","",NA,NA,"","",NA,NA,NA,"k",NA
"549","","S1","","html-keyboard-response",548,148122,"0.0-1.0-749.0",0,0,18183,"",NA,"",NA,"null",83,"","",NA,NA,"","",NA,NA,"","",NA,NA,NA,"",NA
"550","","ISI","","html-keyboard-response",549,148229,"0.0-1.0-750.0",0,0,18183,"",29,"",NA,"75",83,"k","",NA,NA,"","",NA,NA,"","",NA,NA,NA,"",NA
"551","","S2","","html-keyboard-response",550,148482,"0.0-1.0-751.0",0,0,18183,"",182,"",NA,"75",83,"","k",NA,NA,"","",NA,NA,"","",NA,NA,NA,"",NA
"552","","response","","html-keyboard-response",551,148640,"0.0-1.0-752.0",0,0,18183,"",157,"",NA,"75",83,"","",6,83,"test","non_adjacent",6,1,"M.jpg","N.jpg",1,0,0,"",NA
"553","","feedback","","html-keyboard-response",552,148743,"0.0-1.0-753.0-0.0",0,0,18183,"",NA,"",NA,"null",83,"","",NA,NA,"","",NA,NA,"","",NA,NA,NA,"",NA
"554","","time_out","","html-keyboard-response",553,148849,"0.0-1.0-755.0-0.0",0,0,18183,"",NA,"",NA,"null",83,"","",NA,NA,"","",NA,NA,"","",NA,NA,NA,"",NA
"555","","ITI","","html-keyboard-response",554,149352,"0.0-1.0-756.0",0,0,18183,"",274,"",NA,"68",83,"","",NA,NA,"","",NA,NA,"","",NA,NA,NA,"d",NA
"556","","S1","","html-keyboard-response",555,149604,"0.0-1.0-758.0",0,0,18183,"",NA,"",NA,"null",84,"","",NA,NA,"","",NA,NA,"","",NA,NA,NA,"",NA
"557","","ISI","","html-keyboard-response",556,149710,"0.0-1.0-759.0",0,0,18183,"",NA,"",NA,"null",84,"NaN","",NA,NA,"","",NA,NA,"","",NA,NA,NA,"",NA
"558","","S2","","html-keyboard-response",557,149965,"0.0-1.0-760.0",0,0,18183,"",63,"",NA,"68",84,"","d",NA,NA,"","",NA,NA,"","",NA,NA,NA,"",NA
"559","","response","","html-keyboard-response",558,150057,"0.0-1.0-761.0",0,0,18183,"",90,"",NA,"68",84,"","",6,84,"test","adjacent",3,4,"R.jpg","Q.jpg",0,1,0,"",NA
"560","","feedback","","html-keyboard-response",559,150159,"0.0-1.0-762.0-0.0",0,0,18183,"",NA,"",NA,"null",84,"","",NA,NA,"","",NA,NA,"","",NA,NA,NA,"",NA
"561","","time_out","","html-keyboard-response",560,150266,"0.0-1.0-764.0-0.0",0,0,18183,"",NA,"",NA,"null",84,"","",NA,NA,"","",NA,NA,"","",NA,NA,NA,"",NA
"562","","ITI","","html-keyboard-response",561,150773,"0.0-1.0-765.0",0,0,18183,"",83,"",NA,"68",84,"","",NA,NA,"","",NA,NA,"","",NA,NA,NA,"d",NA
"563","","S1","","html-keyboard-response",562,151026,"0.0-1.0-767.0",0,0,18183,"",NA,"",NA,"null",85,"","",NA,NA,"","",NA,NA,"","",NA,NA,NA,"",NA
"564","","ISI","","html-keyboard-response",563,151131,"0.0-1.0-768.0",0,0,18183,"",32,"",NA,"68",85,"d","",NA,NA,"","",NA,NA,"","",NA,NA,NA,"",NA
"565","","S2","","html-keyboard-response",564,151388,"0.0-1.0-769.0",0,0,18183,"",214,"",NA,"68",85,"","d",NA,NA,"","",NA,NA,"","",NA,NA,NA,"",NA
"566","","response","","html-keyboard-response",565,151638,"0.0-1.0-770.0",0,0,18183,"",248,"",NA,"68",85,"","",6,85,"test","non_adjacent",1,3,"N.jpg","R.jpg",0,1,0,"",NA
"567","","feedback","","html-keyboard-response",566,151742,"0.0-1.0-771.0-0.0",0,0,18183,"",NA,"",NA,"null",85,"","",NA,NA,"","",NA,NA,"","",NA,NA,NA,"",NA
"568","","time_out","","html-keyboard-response",567,151849,"0.0-1.0-773.0-0.0",0,0,18183,"",NA,"",NA,"null",85,"","",NA,NA,"","",NA,NA,"","",NA,NA,NA,"",NA
"569","","ITI","","html-keyboard-response",568,152353,"0.0-1.0-774.0",0,0,18183,"",104,"",NA,"68",85,"","",NA,NA,"","",NA,NA,"","",NA,NA,NA,"d",NA
"570","","S1","","html-keyboard-response",569,152609,"0.0-1.0-776.0",0,0,18183,"",NA,"",NA,"null",86,"","",NA,NA,"","",NA,NA,"","",NA,NA,NA,"",NA
"571","","ISI","","html-keyboard-response",570,152715,"0.0-1.0-777.0",0,0,18183,"",57,"",NA,"68",86,"d","",NA,NA,"","",NA,NA,"","",NA,NA,NA,"",NA
"572","","S2","","html-keyboard-response",571,152967,"0.0-1.0-778.0",0,0,18183,"",213,"",NA,"68",86,"","d",NA,NA,"","",NA,NA,"","",NA,NA,NA,"",NA
"573","","response","","html-keyboard-response",572,153217,"0.0-1.0-779.0",0,0,18183,"",249,"",NA,"68",86,"","",6,86,"test","non_adjacent",6,3,"M.jpg","R.jpg",0,0,1,"",NA
"574","","feedback","","html-keyboard-response",573,153320,"0.0-1.0-780.0-0.0",0,0,18183,"",NA,"",NA,"null",86,"","",NA,NA,"","",NA,NA,"","",NA,NA,NA,"",NA
"575","","ITI","","html-keyboard-response",574,153824,"0.0-1.0-783.0",0,0,18183,"",292,"",NA,"68",86,"","",NA,NA,"","",NA,NA,"","",NA,NA,NA,"d",NA
"576","","S1","","html-keyboard-response",575,154079,"0.0-1.0-785.0",0,0,18183,"",NA,"",NA,"null",87,"","",NA,NA,"","",NA,NA,"","",NA,NA,NA,"",NA
"577","","ISI","","html-keyboard-response",576,154183,"0.0-1.0-786.0",0,0,18183,"",NA,"",NA,"null",87,"NaN","",NA,NA,"","",NA,NA,"","",NA,NA,NA,"",NA
"578","","S2","","html-keyboard-response",577,154437,"0.0-1.0-787.0",0,0,18183,"",83,"",NA,"68",87,"","d",NA,NA,"","",NA,NA,"","",NA,NA,NA,"",NA
"579","","response","","html-keyboard-response",578,154575,"0.0-1.0-788.0",0,0,18183,"",136,"",NA,"68",87,"","",6,87,"test","adjacent",2,3,"L.jpg","R.jpg",0,1,0,"",NA
"580","","feedback","","html-keyboard-response",579,154676,"0.0-1.0-789.0-0.0",0,0,18183,"",NA,"",NA,"null",87,"","",NA,NA,"","",NA,NA,"","",NA,NA,NA,"",NA
"581","","time_out","","html-keyboard-response",580,154780,"0.0-1.0-791.0-0.0",0,0,18183,"",NA,"",NA,"null",87,"","",NA,NA,"","",NA,NA,"","",NA,NA,NA,"",NA
"582","","ITI","","html-keyboard-response",581,155284,"0.0-1.0-792.0",0,0,18183,"",47,"",NA,"68",87,"","",NA,NA,"","",NA,NA,"","",NA,NA,NA,"d",NA
"583","","S1","","html-keyboard-response",582,155538,"0.0-1.0-794.0",0,0,18183,"",NA,"",NA,"null",88,"","",NA,NA,"","",NA,NA,"","",NA,NA,NA,"",NA
"584","","ISI","","html-keyboard-response",583,155643,"0.0-1.0-795.0",0,0,18183,"",NA,"",NA,"null",88,"NaN","",NA,NA,"","",NA,NA,"","",NA,NA,NA,"",NA
"585","","S2","","html-keyboard-response",584,155900,"0.0-1.0-796.0",0,0,18183,"",88,"",NA,"75",88,"","k",NA,NA,"","",NA,NA,"","",NA,NA,NA,"",NA
"586","","response","","html-keyboard-response",585,156031,"0.0-1.0-797.0",0,0,18183,"",129,"",NA,"75",88,"","",6,88,"test","non_adjacent",1,4,"N.jpg","Q.jpg",1,1,1,"",NA
"587","","feedback","","html-keyboard-response",586,156133,"0.0-1.0-798.0-0.0",0,0,18183,"",NA,"",NA,"null",88,"","",NA,NA,"","",NA,NA,"","",NA,NA,NA,"",NA
"588","","ITI","","html-keyboard-response",587,156638,"0.0-1.0-801.0",0,0,18183,"",130,"",NA,"75",88,"","",NA,NA,"","",NA,NA,"","",NA,NA,NA,"k",NA
"589","","S1","","html-keyboard-response",588,156891,"0.0-1.0-803.0",0,0,18183,"",NA,"",NA,"null",89,"","",NA,NA,"","",NA,NA,"","",NA,NA,NA,"",NA
"590","","ISI","","html-keyboard-response",589,156994,"0.0-1.0-804.0",0,0,18183,"",NA,"",NA,"null",89,"NaN","",NA,NA,"","",NA,NA,"","",NA,NA,NA,"",NA
"591","","S2","","html-keyboard-response",590,157248,"0.0-1.0-805.0",0,0,18183,"",149,"",NA,"75",89,"","k",NA,NA,"","",NA,NA,"","",NA,NA,NA,"",NA
"592","","response","","html-keyboard-response",591,157363,"0.0-1.0-806.0",0,0,18183,"",113,"",NA,"75",89,"","",6,89,"test","adjacent",3,2,"R.jpg","L.jpg",1,0,0,"",NA
"593","","feedback","","html-keyboard-response",592,157466,"0.0-1.0-807.0-0.0",0,0,18183,"",NA,"",NA,"null",89,"","",NA,NA,"","",NA,NA,"","",NA,NA,NA,"",NA
"594","","time_out","","html-keyboard-response",593,157573,"0.0-1.0-809.0-0.0",0,0,18183,"",NA,"",NA,"null",89,"","",NA,NA,"","",NA,NA,"","",NA,NA,NA,"",NA
"595","","ITI","","html-keyboard-response",594,158076,"0.0-1.0-810.0",0,0,18183,"",26,"",NA,"75",89,"","",NA,NA,"","",NA,NA,"","",NA,NA,NA,"k",NA
"596","","S1","","html-keyboard-response",595,158331,"0.0-1.0-812.0",0,0,18183,"",NA,"",NA,"null",90,"","",NA,NA,"","",NA,NA,"","",NA,NA,NA,"",NA
"597","","ISI","","html-keyboard-response",596,158434,"0.0-1.0-813.0",0,0,18183,"",NA,"",NA,"null",90,"NaN","",NA,NA,"","",NA,NA,"","",NA,NA,NA,"",NA
"598","","S2","","html-keyboard-response",597,158690,"0.0-1.0-814.0",0,0,18183,"",49,"",NA,"75",90,"","k",NA,NA,"","",NA,NA,"","",NA,NA,NA,"",NA
"599","","response","","html-keyboard-response",598,158709,"0.0-1.0-815.0",0,0,18183,"",19,"",NA,"75",90,"","",6,90,"test","non_adjacent",5,2,"O.jpg","L.jpg",1,0,0,"",NA
"600","","feedback","","html-keyboard-response",599,158811,"0.0-1.0-816.0-0.0",0,0,18183,"",NA,"",NA,"null",90,"","",NA,NA,"","",NA,NA,"","",NA,NA,NA,"",NA
"601","","time_out","","html-keyboard-response",600,158914,"0.0-1.0-818.0-0.0",0,0,18183,"",NA,"",NA,"null",90,"","",NA,NA,"","",NA,NA,"","",NA,NA,NA,"",NA
"602","","ITI","","html-keyboard-response",601,159419,"0.0-1.0-819.0",0,0,18183,"",21,"",NA,"75",90,"","",NA,NA,"","",NA,NA,"","",NA,NA,NA,"k",NA
"603","","S1","","html-keyboard-response",602,159673,"0.0-1.0-821.0",0,0,18183,"",NA,"",NA,"null",91,"","",NA,NA,"","",NA,NA,"","",NA,NA,NA,"",NA
"604","","ISI","","html-keyboard-response",603,159778,"0.0-1.0-822.0",0,0,18183,"",NA,"",NA,"null",91,"NaN","",NA,NA,"","",NA,NA,"","",NA,NA,NA,"",NA
"605","","S2","","html-keyboard-response",604,160034,"0.0-1.0-823.0",0,0,18183,"",94,"",NA,"75",91,"","k",NA,NA,"","",NA,NA,"","",NA,NA,NA,"",NA
"606","","response","","html-keyboard-response",605,160106,"0.0-1.0-824.0",0,0,18183,"",71,"",NA,"75",91,"","",6,91,"test","non_adjacent",5,3,"O.jpg","R.jpg",1,0,0,"",NA
"607","","feedback","","html-keyboard-response",606,160210,"0.0-1.0-825.0-0.0",0,0,18183,"",NA,"",NA,"null",91,"","",NA,NA,"","",NA,NA,"","",NA,NA,NA,"",NA
"608","","time_out","","html-keyboard-response",607,160314,"0.0-1.0-827.0-0.0",0,0,18183,"",NA,"",NA,"null",91,"","",NA,NA,"","",NA,NA,"","",NA,NA,NA,"",NA
"609","","ITI","","html-keyboard-response",608,160818,"0.0-1.0-828.0",0,0,18183,"",6,"",NA,"75",91,"","",NA,NA,"","",NA,NA,"","",NA,NA,NA,"k",NA
"610","","S1","","html-keyboard-response",609,161074,"0.0-1.0-830.0",0,0,18183,"",NA,"",NA,"null",92,"","",NA,NA,"","",NA,NA,"","",NA,NA,NA,"",NA
"611","","ISI","","html-keyboard-response",610,161176,"0.0-1.0-831.0",0,0,18183,"",NA,"",NA,"null",92,"NaN","",NA,NA,"","",NA,NA,"","",NA,NA,NA,"",NA
"612","","S2","","html-keyboard-response",611,161431,"0.0-1.0-832.0",0,0,18183,"",94,"",NA,"75",92,"","k",NA,NA,"","",NA,NA,"","",NA,NA,NA,"",NA
"613","","response","","html-keyboard-response",612,161517,"0.0-1.0-833.0",0,0,18183,"",84,"",NA,"75",92,"","",6,92,"test","non_adjacent",4,2,"Q.jpg","L.jpg",1,0,0,"",NA
"614","","feedback","","html-keyboard-response",613,161621,"0.0-1.0-834.0-0.0",0,0,18183,"",NA,"",NA,"null",92,"","",NA,NA,"","",NA,NA,"","",NA,NA,NA,"",NA
"615","","time_out","","html-keyboard-response",614,161724,"0.0-1.0-836.0-0.0",0,0,18183,"",NA,"",NA,"null",92,"","",NA,NA,"","",NA,NA,"","",NA,NA,NA,"",NA
"616","","ITI","","html-keyboard-response",615,162226,"0.0-1.0-837.0",0,0,18183,"",40,"",NA,"75",92,"","",NA,NA,"","",NA,NA,"","",NA,NA,NA,"k",NA
"617","","S1","","html-keyboard-response",616,162484,"0.0-1.0-839.0",0,0,18183,"",NA,"",NA,"null",93,"","",NA,NA,"","",NA,NA,"","",NA,NA,NA,"",NA
"618","","ISI","","html-keyboard-response",617,162587,"0.0-1.0-840.0",0,0,18183,"",NA,"",NA,"null",93,"NaN","",NA,NA,"","",NA,NA,"","",NA,NA,NA,"",NA
"619","","S2","","html-keyboard-response",618,162843,"0.0-1.0-841.0",0,0,18183,"",202,"",NA,"75",93,"","k",NA,NA,"","",NA,NA,"","",NA,NA,NA,"",NA
"620","","response","","html-keyboard-response",619,163347,"0.0-1.0-842.0",0,0,18183,"",NA,"",NA,"null",93,"","",6,93,"test","non_adjacent",6,2,"M.jpg","L.jpg",NA,0,0,"",NA
"621","","too_slow_prompt","","html-keyboard-response",620,164353,"0.0-1.0-844.0-0.0",1,0,18183,"",NA,"",NA,"null",NA,"","",NA,NA,"","",NA,NA,"","",NA,NA,NA,"",NA
"622","","time_out","","html-keyboard-response",621,164459,"0.0-1.0-845.0-0.0",0,0,18183,"",NA,"",NA,"null",93,"","",NA,NA,"","",NA,NA,"","",NA,NA,NA,"",NA
"623","","ITI","","html-keyboard-response",622,164961,"0.0-1.0-846.0",0,0,18183,"",42,"",NA,"77",93,"","",NA,NA,"","",NA,NA,"","",NA,NA,NA,"m",NA
"624","","S1","","html-keyboard-response",623,165215,"0.0-1.0-848.0",0,0,18183,"",NA,"",NA,"null",94,"","",NA,NA,"","",NA,NA,"","",NA,NA,NA,"",NA
"625","","ISI","","html-keyboard-response",624,165322,"0.0-1.0-849.0",0,0,18183,"",75,"",NA,"77",94,"m","",NA,NA,"","",NA,NA,"","",NA,NA,NA,"",NA
"626","","S2","","html-keyboard-response",625,165578,"0.0-1.0-850.0",0,0,18183,"",217,"",NA,"77",94,"","m",NA,NA,"","",NA,NA,"","",NA,NA,NA,"",NA
"627","","response","","html-keyboard-response",626,166084,"0.0-1.0-851.0",0,0,18183,"",NA,"",NA,"null",94,"","",6,94,"test","non_adjacent",7,2,"P.jpg","L.jpg",NA,0,0,"",NA
"628","","too_slow_prompt","","html-keyboard-response",627,167089,"0.0-1.0-853.0-0.0",1,0,18183,"",NA,"",NA,"null",NA,"","",NA,NA,"","",NA,NA,"","",NA,NA,NA,"",NA
"629","","time_out","","html-keyboard-response",628,167190,"0.0-1.0-854.0-0.0",0,0,18183,"",NA,"",NA,"null",94,"","",NA,NA,"","",NA,NA,"","",NA,NA,NA,"",NA
"630","","ITI","","html-keyboard-response",629,167694,"0.0-1.0-855.0",0,0,18183,"",336,"",NA,"68",94,"","",NA,NA,"","",NA,NA,"","",NA,NA,NA,"d",NA
"631","","S1","","html-keyboard-response",630,167947,"0.0-1.0-857.0",0,0,18183,"",NA,"",NA,"null",95,"","",NA,NA,"","",NA,NA,"","",NA,NA,NA,"",NA
"632","","ISI","","html-keyboard-response",631,168051,"0.0-1.0-858.0",0,0,18183,"",NA,"",NA,"null",95,"NaN","",NA,NA,"","",NA,NA,"","",NA,NA,NA,"",NA
"633","","S2","","html-keyboard-response",632,168308,"0.0-1.0-859.0",0,0,18183,"",NA,"",NA,"null",95,"","NaN",NA,NA,"","",NA,NA,"","",NA,NA,NA,"",NA
"634","","response","","html-keyboard-response",633,168368,"0.0-1.0-860.0",0,0,18183,"",59,"",NA,"68",95,"","",6,95,"test","adjacent",4,3,"Q.jpg","R.jpg",0,0,1,"",NA
"635","","feedback","","html-keyboard-response",634,168474,"0.0-1.0-861.0-0.0",0,0,18183,"",NA,"",NA,"null",95,"","",NA,NA,"","",NA,NA,"","",NA,NA,NA,"",NA
"636","","ITI","","html-keyboard-response",635,168975,"0.0-1.0-864.0",0,0,18183,"",195,"",NA,"68",95,"","",NA,NA,"","",NA,NA,"","",NA,NA,NA,"d",NA
"637","","S1","","html-keyboard-response",636,169228,"0.0-1.0-866.0",0,0,18183,"",NA,"",NA,"null",96,"","",NA,NA,"","",NA,NA,"","",NA,NA,NA,"",NA
"638","","ISI","","html-keyboard-response",637,169333,"0.0-1.0-867.0",0,0,18183,"",NA,"",NA,"null",96,"NaN","",NA,NA,"","",NA,NA,"","",NA,NA,NA,"",NA
"639","","S2","","html-keyboard-response",638,169588,"0.0-1.0-868.0",0,0,18183,"",197,"",NA,"68",96,"","d",NA,NA,"","",NA,NA,"","",NA,NA,NA,"",NA
"640","","response","","html-keyboard-response",639,169806,"0.0-1.0-869.0",0,0,18183,"",216,"",NA,"68",96,"","",6,96,"test","non_adjacent",7,1,"P.jpg","N.jpg",0,0,1,"",NA
"641","","feedback","","html-keyboard-response",640,169909,"0.0-1.0-870.0-0.0",0,0,18183,"",NA,"",NA,"null",96,"","",NA,NA,"","",NA,NA,"","",NA,NA,NA,"",NA
"642","","ITI","","html-keyboard-response",641,170415,"0.0-1.0-873.0",0,0,18183,"",307,"",NA,"68",96,"","",NA,NA,"","",NA,NA,"","",NA,NA,NA,"d",NA
"643","","S1","","html-keyboard-response",642,170668,"0.0-1.0-875.0",0,0,18183,"",NA,"",NA,"null",97,"","",NA,NA,"","",NA,NA,"","",NA,NA,NA,"",NA
"644","","ISI","","html-keyboard-response",643,170770,"0.0-1.0-876.0",0,0,18183,"",NA,"",NA,"null",97,"NaN","",NA,NA,"","",NA,NA,"","",NA,NA,NA,"",NA
"645","","S2","","html-keyboard-response",644,171022,"0.0-1.0-877.0",0,0,18183,"",68,"",NA,"68",97,"","d",NA,NA,"","",NA,NA,"","",NA,NA,NA,"",NA
"646","","response","","html-keyboard-response",645,171140,"0.0-1.0-878.0",0,0,18183,"",116,"",NA,"68",97,"","",6,97,"test","non_adjacent",5,1,"O.jpg","N.jpg",0,0,1,"",NA
"647","","feedback","","html-keyboard-response",646,171244,"0.0-1.0-879.0-0.0",0,0,18183,"",NA,"",NA,"null",97,"","",NA,NA,"","",NA,NA,"","",NA,NA,NA,"",NA
"648","","ITI","","html-keyboard-response",647,171749,"0.0-1.0-882.0",0,0,18183,"",259,"",NA,"68",97,"","",NA,NA,"","",NA,NA,"","",NA,NA,NA,"d",NA
"649","","S1","","html-keyboard-response",648,172002,"0.0-1.0-884.0",0,0,18183,"",NA,"",NA,"null",98,"","",NA,NA,"","",NA,NA,"","",NA,NA,NA,"",NA
"650","","ISI","","html-keyboard-response",649,172109,"0.0-1.0-885.0",0,0,18183,"",NA,"",NA,"null",98,"NaN","",NA,NA,"","",NA,NA,"","",NA,NA,NA,"",NA
"651","","S2","","html-keyboard-response",650,172362,"0.0-1.0-886.0",0,0,18183,"",89,"",NA,"68",98,"","d",NA,NA,"","",NA,NA,"","",NA,NA,NA,"",NA
"652","","response","","html-keyboard-response",651,172503,"0.0-1.0-887.0",0,0,18183,"",140,"",NA,"68",98,"","",6,98,"test","adjacent",2,1,"L.jpg","N.jpg",0,0,1,"",NA
"653","","feedback","","html-keyboard-response",652,172605,"0.0-1.0-888.0-0.0",0,0,18183,"",NA,"",NA,"null",98,"","",NA,NA,"","",NA,NA,"","",NA,NA,NA,"",NA
"654","","ITI","","html-keyboard-response",653,173108,"0.0-1.0-891.0",0,0,18183,"",268,"",NA,"68",98,"","",NA,NA,"","",NA,NA,"","",NA,NA,NA,"d",NA
"655","","block_over","","html-keyboard-response",654,183834,"0.0-1.0-892.0-0.0",0,0,18183,"",10724,"",NA,"32",98,"","",NA,NA,"","",NA,NA,"","",NA,NA,NA,"",NA
